side,stage,device_ms,ax,ay,az,gx,gy,gz,toe,heel,phase,L_toe,L_heel,R_toe,R_heel
R,,184152.0,-0.016,0.154,-0.087,5.6,2.0,18.5,527,709,0,880.0,488.0,771.0,644.0
R,,184162.0,-0.029,0.146,-0.097,7.1,-0.3,17.1,526,706,0,880.0,488.0,771.0,644.0
R,,184172.0,-0.05,0.126,-0.097,7.7,-6.1,15.8,530,708,0,880.0,488.0,771.0,644.0
R,,184182.0,-0.052,0.123,-0.074,16.8,-4.7,13.3,531,710,0,880.0,488.0,821.0,698.0
R,,184192.0,-0.054,0.117,-0.088,11.3,-6.1,14.7,536,713,0,880.0,488.0,821.0,698.0
R,,184202.0,-0.044,0.141,-0.07,7.0,-7.3,15.1,537,715,0,880.0,488.0,821.0,698.0
R,,184212.0,-0.028,0.162,-0.065,5.9,-9.8,11.4,537,718,0,852.0,306.0,821.0,698.0
R,,184222.0,-0.027,0.16,-0.055,5.9,-10.2,8.4,538,716,0,852.0,306.0,821.0,698.0
R,,184232.0,-0.024,0.15,-0.044,2.9,-10.2,6.2,540,719,0,852.0,306.0,821.0,698.0
R,,184242.0,-0.022,0.146,-0.052,0.1,-9.2,3.5,542,721,0,852.0,306.0,837.0,720.0
R,,184252.0,-0.022,0.142,-0.07,-1.5,-9.0,0.8,542,722,0,852.0,306.0,837.0,720.0
R,,184262.0,0.007,0.061,-0.119,-0.5,-10.6,0.2,528,710,0,852.0,306.0,837.0,720.0
R,,184272.0,0.116,0.011,-0.15,5.3,-12.3,3.8,544,711,0,684.0,421.0,837.0,720.0
R,,184282.0,0.172,-0.022,-0.112,4.2,-12.9,9.6,562,719,0,684.0,421.0,837.0,720.0
R,,184292.0,0.124,0.096,-0.045,-4.2,-9.4,8.7,579,727,0,684.0,421.0,837.0,720.0
R,,184302.0,0.051,0.153,-0.046,0.5,-6.7,1.2,589,736,0,684.0,421.0,837.0,720.0
R,,184312.0,0.105,0.133,-0.058,5.3,-7.2,-3.0,596,742,0,684.0,421.0,844.0,731.0
R,,184322.0,0.09,0.1,-0.087,2.0,-4.0,-5.0,598,740,0,684.0,421.0,844.0,731.0
R,,184332.0,0.035,0.074,-0.139,13.9,-6.1,-9.0,603,744,0,684.0,421.0,844.0,731.0
R,,184342.0,0.039,0.095,-0.127,19.8,-10.4,-13.1,612,754,0,705.0,459.0,844.0,731.0
R,,184352.0,0.036,0.1,-0.099,11.5,-11.1,-12.7,622,760,0,705.0,459.0,844.0,731.0
R,,184362.0,0.021,0.098,-0.104,9.6,-10.5,-13.7,637,774,0,705.0,459.0,844.0,731.0
R,,184372.0,0.022,0.098,-0.096,8.3,-8.1,-15.3,652,779,0,705.0,459.0,851.0,737.0
R,,184382.0,0.018,0.087,-0.112,6.9,-5.3,-16.0,662,786,0,705.0,459.0,851.0,737.0
R,,184392.0,0.015,0.075,-0.124,3.6,-4.9,-15.1,671,794,0,705.0,459.0,851.0,737.0
R,,184402.0,0.0,0.058,-0.131,2.5,-5.8,-14.4,679,799,0,696.0,456.0,851.0,737.0
R,,184412.0,0.012,0.065,-0.107,-3.1,-4.3,-11.3,684,804,0,696.0,456.0,851.0,737.0
R,,184422.0,0.013,0.046,-0.118,-4.9,-4.5,-10.0,688,807,0,696.0,456.0,851.0,737.0
R,,184432.0,0.011,0.041,-0.104,-5.2,-5.8,-9.6,695,812,0,696.0,456.0,866.0,754.0
R,,184442.0,0.013,0.048,-0.103,-7.4,-5.7,-9.1,698,816,0,696.0,456.0,866.0,754.0
R,,184452.0,0.011,0.049,-0.11,-8.9,-6.8,-8.5,705,820,0,696.0,456.0,866.0,754.0
R,,184462.0,0.005,0.052,-0.092,-10.0,-7.1,-7.4,711,822,0,697.0,466.0,866.0,754.0
R,,184472.0,0.005,0.051,-0.083,-8.6,-5.5,-6.2,714,827,0,697.0,466.0,866.0,754.0
R,,184482.0,0.008,0.053,-0.079,-8.3,-4.0,-4.9,719,831,0,697.0,466.0,866.0,754.0
R,,184492.0,0.006,0.076,-0.089,-7.5,-3.0,-4.3,725,836,0,697.0,466.0,875.0,764.0
R,,184502.0,0.015,0.074,-0.098,-8.2,-3.1,-3.8,729,840,0,697.0,466.0,875.0,764.0
R,,184512.0,0.02,0.08,-0.108,-7.7,-3.0,-3.9,733,843,0,697.0,466.0,875.0,764.0
R,,184522.0,0.019,0.079,-0.109,-5.8,-4.6,-5.2,737,847,0,711.0,485.0,875.0,764.0
R,,184532.0,0.013,0.069,-0.095,-5.1,-4.8,-5.3,739,849,0,711.0,485.0,875.0,764.0
R,,184542.0,0.015,0.077,-0.085,-4.9,-2.8,-3.2,741,854,0,711.0,485.0,875.0,764.0
R,,184552.0,0.016,0.084,-0.105,-2.1,-2.6,-3.4,743,856,0,711.0,485.0,879.0,769.0
R,,184562.0,0.006,0.076,-0.112,-1.3,-4.0,-3.5,747,859,0,711.0,485.0,879.0,769.0
R,,184572.0,0.005,0.07,-0.095,-1.0,-4.1,-3.0,747,860,0,711.0,485.0,879.0,769.0
R,,184582.0,0.002,0.066,-0.094,0.0,-3.0,-2.9,749,860,0,715.0,493.0,879.0,769.0
R,,184592.0,0.0,0.067,-0.093,0.9,-2.4,-2.5,751,863,0,715.0,493.0,879.0,769.0
R,,184602.0,0.004,0.068,-0.097,0.8,-1.7,-1.5,752,863,0,715.0,493.0,879.0,769.0
R,,184612.0,0.005,0.072,-0.104,-1.5,-1.5,-1.3,754,867,0,715.0,493.0,884.0,772.0
R,,184622.0,0.003,0.073,-0.105,-3.3,-1.9,-1.0,756,869,0,715.0,493.0,884.0,772.0
R,,184632.0,0.006,0.075,-0.1,-4.2,-2.5,-0.8,756,866,0,715.0,493.0,884.0,772.0
R,,184642.0,0.007,0.074,-0.099,-4.4,-2.6,-0.5,757,868,0,724.0,498.0,884.0,772.0
R,,184652.0,0.004,0.074,-0.101,-4.6,-2.7,-0.2,758,869,0,724.0,498.0,884.0,772.0
R,,184662.0,0.002,0.073,-0.098,-5.1,-2.9,-2.2,758,870,0,724.0,498.0,884.0,772.0
R,,184672.0,0.006,0.076,-0.094,-6.0,-2.8,0.0,759,873,0,724.0,498.0,888.0,773.0
R,,184682.0,0.005,0.076,-0.098,-6.3,-2.9,0.0,759,872,0,724.0,498.0,888.0,773.0
R,,184692.0,0.004,0.076,-0.097,-6.8,-2.8,-0.1,762,873,0,724.0,498.0,888.0,773.0
R,,184702.0,0.004,0.076,-0.094,-6.7,-2.7,0.1,762,873,0,734.0,504.0,888.0,773.0
R,,184712.0,0.008,0.073,-0.074,-2.6,-2.6,-1.0,762,873,0,734.0,504.0,888.0,773.0
R,,184722.0,0.005,0.076,-0.1,-2.7,-1.1,-1.1,764,873,0,734.0,504.0,888.0,773.0
R,,184732.0,-0.002,0.084,-0.116,-4.9,-2.3,-0.7,765,873,0,734.0,504.0,890.0,775.0
R,,184742.0,0.002,0.082,-0.108,-7.6,-3.3,-0.5,764,875,0,734.0,504.0,890.0,775.0
R,,184752.0,-0.001,0.083,-0.108,-12.7,-4.6,0.0,766,876,0,734.0,504.0,890.0,775.0
R,,184762.0,-0.002,0.08,-0.086,-12.7,-5.0,0.2,767,876,0,748.0,514.0,890.0,775.0
R,,184772.0,0.0,0.076,-0.08,-13.3,-3.6,1.4,764,878,0,748.0,514.0,890.0,775.0
R,,184782.0,0.005,0.1,-0.083,-12.0,-2.3,2.8,768,879,0,748.0,514.0,890.0,775.0
R,,184792.0,0.009,0.094,-0.088,-8.7,-3.1,1.6,768,878,0,748.0,514.0,893.0,764.0
R,,184802.0,0.004,0.09,-0.084,-7.8,-3.5,0.9,767,877,0,748.0,514.0,893.0,764.0
R,,184812.0,0.003,0.092,-0.087,-9.1,-3.2,1.1,766,879,0,748.0,514.0,893.0,764.0
R,,184822.0,0.003,0.097,-0.092,-10.4,-3.9,0.9,770,880,0,768.0,559.0,893.0,764.0
R,,184832.0,0.005,0.098,-0.093,-11.4,-5.1,0.4,770,880,0,768.0,559.0,893.0,764.0
R,,184842.0,0.006,0.096,-0.082,-10.8,-6.3,-0.9,770,881,0,768.0,559.0,893.0,764.0
R,,184852.0,0.006,0.096,-0.071,-9.4,-6.2,-1.6,769,882,0,768.0,559.0,893.0,764.0
R,,184862.0,0.0,0.091,-0.07,-8.7,-5.4,-1.9,770,881,0,780.0,619.0,893.0,764.0
R,,184872.0,-0.001,0.097,-0.072,-8.6,-5.1,-1.7,770,882,0,780.0,619.0,893.0,764.0
R,,184882.0,-0.007,0.095,-0.075,-9.9,-2.4,-0.9,769,881,0,780.0,619.0,893.0,764.0
R,,184892.0,-0.002,0.102,-0.081,-11.9,-4.7,-0.2,771,884,0,780.0,619.0,893.0,764.0
R,,184902.0,0.0,0.1,-0.079,-12.5,-5.4,-0.3,770,884,0,780.0,619.0,895.0,712.0
R,,184912.0,-0.002,0.102,-0.067,-11.5,-5.2,-0.7,770,886,0,780.0,619.0,895.0,712.0
R,,184922.0,-0.002,0.105,-0.06,-8.5,-5.3,-0.9,771,884,0,780.0,619.0,895.0,712.0
R,,184932.0,-0.002,0.1,-0.047,-6.5,-4.7,-1.1,772,887,0,827.0,670.0,895.0,712.0
R,,184942.0,-0.005,0.107,-0.061,-5.5,-4.1,-1.0,772,887,0,827.0,670.0,895.0,712.0
R,,184952.0,-0.003,0.105,-0.063,-5.0,-3.8,-1.3,772,887,0,827.0,670.0,895.0,712.0
R,,184962.0,-0.005,0.106,-0.065,-4.6,-3.5,-1.2,772,888,0,827.0,670.0,886.0,600.0
R,,184972.0,-0.007,0.106,-0.066,-5.1,-3.6,-1.1,772,888,0,827.0,670.0,886.0,600.0
R,,184982.0,-0.01,0.108,-0.069,-5.5,-3.3,-0.9,772,888,0,827.0,670.0,886.0,600.0
R,,184992.0,-0.006,0.11,-0.07,-5.9,-3.7,-1.1,770,888,0,845.0,702.0,886.0,600.0
R,,185002.0,-0.007,0.115,-0.071,-6.6,-4.0,-1.0,772,889,0,845.0,702.0,886.0,600.0
R,,185012.0,-0.006,0.112,-0.073,-7.1,-4.9,-1.4,771,890,0,845.0,702.0,886.0,600.0
R,,185022.0,-0.004,0.111,-0.078,-6.7,-5.2,-1.4,772,889,0,845.0,702.0,870.0,305.0
R,,185032.0,-0.004,0.118,-0.076,-6.6,-6.3,-2.0,767,891,0,845.0,702.0,870.0,305.0
R,,185042.0,-0.006,0.119,-0.07,-7.3,-7.0,-2.5,766,891,0,845.0,702.0,870.0,305.0
R,,185052.0,-0.008,0.113,-0.068,-8.8,-7.6,-2.2,762,890,0,857.0,721.0,870.0,305.0
R,,185062.0,-0.009,0.121,-0.069,-8.6,-8.3,-1.9,759,891,0,857.0,721.0,870.0,305.0
R,,185072.0,-0.018,0.12,-0.062,-3.5,-8.2,-3.3,752,893,0,857.0,721.0,870.0,305.0
R,,185082.0,-0.007,0.112,-0.088,-8.2,-9.3,-2.2,744,891,0,857.0,721.0,660.0,469.0
R,,185092.0,-0.004,0.14,-0.082,-7.2,-9.8,-2.7,737,892,0,857.0,721.0,660.0,469.0
R,,185102.0,0.005,0.159,-0.065,-10.5,-9.4,-4.0,732,890,0,857.0,721.0,660.0,469.0
R,,185112.0,0.007,0.145,-0.056,-11.2,-9.8,-4.2,720,891,0,868.0,736.0,660.0,469.0
R,,185122.0,0.011,0.158,-0.056,-10.4,-8.5,-5.0,707,888,0,868.0,736.0,660.0,469.0
R,,185132.0,0.006,0.168,-0.065,-10.9,-8.4,-5.7,687,889,0,868.0,736.0,660.0,469.0
R,,185142.0,0.007,0.176,-0.072,-10.6,-8.8,-6.6,675,890,0,868.0,736.0,695.0,511.0
R,,185152.0,0.021,0.176,-0.077,-11.9,-9.8,-7.2,669,889,0,868.0,736.0,695.0,511.0
R,,185162.0,0.009,0.167,-0.078,-13.3,-11.6,-7.7,654,894,0,868.0,736.0,695.0,511.0
R,,185172.0,0.009,0.159,-0.084,-9.5,-11.5,-7.9,638,890,0,876.0,743.0,695.0,511.0
R,,185182.0,0.002,0.156,-0.09,-6.0,-12.1,-7.7,608,894,0,876.0,743.0,695.0,511.0
R,,185192.0,-0.007,0.14,-0.091,-2.2,-13.1,-7.2,601,888,0,876.0,743.0,695.0,511.0
R,,185202.0,-0.009,0.115,-0.086,3.3,-14.0,-5.9,582,886,0,876.0,743.0,689.0,525.0
R,,185212.0,0.008,0.091,-0.122,1.4,-9.4,-2.6,568,877,0,876.0,743.0,689.0,525.0
R,,185222.0,-0.03,0.122,-0.129,-5.4,-15.4,-0.4,549,870,0,876.0,743.0,689.0,525.0
R,,185232.0,-0.015,0.144,-0.117,-1.4,-16.0,-2.8,531,855,0,880.0,746.0,689.0,525.0
R,,185242.0,0.011,0.123,-0.124,3.4,-20.5,-3.9,516,835,0,880.0,746.0,689.0,525.0
R,,185252.0,-0.004,0.102,-0.101,-0.5,-25.2,-1.3,512,821,0,880.0,746.0,689.0,525.0
R,,185262.0,0.0,0.101,-0.078,5.9,-24.1,-0.1,519,798,0,880.0,746.0,699.0,537.0
R,,185272.0,-0.005,0.094,-0.104,-3.6,-29.4,3.2,502,776,0,880.0,746.0,699.0,537.0
R,,185282.0,0.029,0.095,-0.1,-3.7,-35.2,4.9,496,747,0,880.0,746.0,699.0,537.0
R,,185292.0,0.104,0.059,-0.094,-1.2,-40.6,5.5,478,698,0,883.0,748.0,699.0,537.0
R,,185302.0,0.147,0.049,-0.033,-4.7,-46.2,6.8,497,718,0,883.0,748.0,699.0,537.0
R,,185312.0,0.121,0.068,0.035,-3.1,-47.9,4.1,503,723,0,883.0,748.0,699.0,537.0
R,,185322.0,0.135,0.017,0.069,5.5,-39.6,6.0,504,718,0,883.0,748.0,700.0,541.0
R,,185332.0,0.133,0.031,0.084,3.2,-30.3,8.3,510,719,0,883.0,748.0,700.0,541.0
R,,185342.0,0.116,0.051,0.058,7.7,-20.9,8.4,515,722,0,883.0,748.0,700.0,541.0
R,,185352.0,0.105,0.05,0.036,12.5,-17.9,7.9,510,720,0,886.0,748.0,700.0,541.0
R,,185362.0,0.094,0.05,0.028,13.3,-16.4,8.6,499,711,0,886.0,748.0,700.0,541.0
R,,185372.0,0.083,0.055,0.033,14.2,-14.9,10.0,503,710,0,886.0,748.0,700.0,541.0
R,,185382.0,0.081,0.064,0.038,17.1,-12.5,12.1,504,706,0,886.0,748.0,700.0,541.0
R,,185392.0,0.076,0.07,0.04,19.2,-9.9,13.8,497,706,0,886.0,748.0,711.0,551.0
R,,185402.0,0.073,0.075,0.033,20.9,-6.5,16.4,492,692,0,886.0,748.0,711.0,551.0
R,,185412.0,0.071,0.088,0.022,22.9,-4.0,18.2,493,702,0,886.0,748.0,711.0,551.0
R,,185458.0,0.053,0.138,-0.009,26.5,-3.3,24.2,490,699,0,885.0,738.0,721.0,560.0
R,,185520.0,0.017,0.175,-0.095,12.5,-0.5,29.2,516,711,0,888.0,730.0,732.0,570.0
R,,185579.0,0.032,0.199,-0.022,5.4,3.0,20.7,518,724,0,885.0,690.0,752.0,586.0
R,,185638.0,-0.018,0.143,-0.059,8.6,4.6,9.8,527,722,0,853.0,653.0,736.0,614.0
R,,185728.0,-0.019,0.075,-0.098,-0.1,-4.4,-1.6,534,716,0,873.0,527.0,801.0,672.0
R,,185788.0,0.043,0.197,-0.038,10.3,-9.6,-14.7,670,791,0,782.0,297.0,837.0,720.0
R,,185848.0,0.01,0.087,-0.114,-10.5,-7.4,-8.6,719,830,0,684.0,432.0,867.0,752.0
R,,185909.0,0.015,0.08,-0.067,-7.4,-3.3,-2.8,731,842,0,705.0,452.0,883.0,769.0
R,,185968.0,0.024,0.101,-0.088,4.1,-0.5,-2.8,744,854,0,703.0,455.0,890.0,775.0
R,,186029.0,0.006,0.087,-0.088,-4.5,-2.8,-1.6,752,863,0,705.0,465.0,895.0,775.0
R,,186088.0,0.015,0.1,-0.082,-6.2,-3.9,-1.1,761,873,0,705.0,465.0,896.0,772.0
R,,186148.0,0.0,0.096,-0.085,-8.4,-2.6,-0.1,764,876,0,709.0,467.0,895.0,764.0
R,,186208.0,0.011,0.109,-0.078,-3.8,-4.0,-2.9,767,881,0,709.0,472.0,898.0,754.0
R,,186270.0,0.003,0.104,-0.073,-7.7,-5.5,-3.2,769,885,0,724.0,485.0,898.0,742.0
R,,186329.0,0.0,0.116,-0.071,-8.4,-7.2,-5.2,762,889,0,731.0,493.0,900.0,719.0
R,,186388.0,0.006,0.157,-0.07,-10.9,-7.6,-5.6,731,892,0,735.0,501.0,900.0,719.0
R,,186449.0,0.015,0.183,-0.067,-13.2,-3.3,-10.5,702,895,0,737.0,507.0,902.0,680.0
R,,186508.0,0.076,0.202,-0.091,-15.1,-7.4,-16.8,612,890,0,735.0,551.0,898.0,679.0
R,,186569.0,-0.053,0.121,-0.122,13.6,-2.3,-18.8,523,761,0,858.0,723.0,898.0,630.0
R,,186659.0,0.069,0.0,0.033,7.9,-17.7,6.5,513,701,0,875.0,742.0,850.0,524.0
R,,186718.0,0.053,0.062,0.022,17.7,2.1,16.6,495,677,0,879.0,746.0,679.0,487.0
R,,186779.0,0.022,0.139,-0.039,20.4,11.9,23.8,501,688,0,875.0,742.0,696.0,513.0
R,,186838.0,0.004,0.178,-0.073,21.4,21.3,22.4,516,691,0,885.0,751.0,696.0,513.0
R,,186899.0,-0.012,0.154,-0.051,8.6,12.2,18.6,529,709,0,883.0,751.0,704.0,521.0
R,,186958.0,-0.022,0.153,-0.078,8.6,11.6,15.6,526,713,0,888.0,752.0,720.0,534.0
R,,187020.0,-0.122,0.193,-0.093,3.8,-1.7,5.2,538,711,0,887.0,752.0,727.0,543.0
R,,187079.0,0.197,-0.026,-0.135,3.0,-16.1,17.2,598,737,0,888.0,752.0,728.0,550.0
R,,187138.0,-0.015,0.172,-0.061,14.9,-3.5,-29.5,678,804,0,887.0,752.0,733.0,553.0
R,,187199.0,0.009,0.055,-0.103,-19.1,-11.0,-10.7,710,827,0,887.0,752.0,733.0,558.0
R,,187258.0,0.014,0.101,-0.069,-1.3,-0.6,-6.4,732,850,0,888.0,752.0,739.0,561.0
R,,187319.0,0.02,0.095,-0.086,0.5,-3.5,-4.4,749,864,0,882.0,744.0,738.0,565.0
R,,187378.0,0.01,0.096,-0.073,-6.8,-3.6,-3.1,761,880,0,878.0,741.0,741.0,569.0
R,,187439.0,0.013,0.105,-0.066,-7.6,-4.9,-3.6,762,882,0,878.0,741.0,743.0,572.0
R,,187529.0,0.004,0.111,-0.068,-4.2,-3.4,-4.1,763,888,0,882.0,730.0,748.0,571.0
R,,187588.0,-0.003,0.108,-0.075,-4.5,-3.9,-5.5,758,896,0,883.0,679.0,751.0,575.0
R,,187649.0,0.005,0.134,-0.055,-11.1,-8.4,-6.1,728,892,0,885.0,675.0,745.0,565.0
R,,187710.0,0.03,0.169,-0.071,-11.6,-2.5,-9.4,667,892,0,880.0,633.0,794.0,668.0
R,,187768.0,0.072,0.198,-0.092,-17.0,-8.6,-12.8,609,892,0,833.0,489.0,830.0,711.0
R,,187859.0,-0.051,0.063,-0.153,15.2,-13.9,-16.1,493,681,0,748.0,503.0,851.0,734.0
R,,187918.0,0.057,0.011,-0.007,2.3,-10.4,2.7,508,701,0,740.0,496.0,870.0,755.0
R,,187978.0,0.041,0.023,-0.011,14.6,1.7,14.4,511,692,0,745.0,486.0,884.0,769.0
R,,188039.0,0.027,0.08,-0.023,21.6,11.7,21.5,514,690,0,752.0,502.0,887.0,771.0
R,,188098.0,0.032,0.128,-0.016,22.2,18.9,26.7,527,702,0,758.0,512.0,890.0,772.0
R,,188159.0,0.009,0.18,-0.138,14.7,13.3,26.5,522,705,0,759.0,521.0,890.0,771.0
R,,188218.0,-0.042,0.206,-0.122,14.0,11.3,20.7,524,714,0,763.0,529.0,893.0,775.0
R,,188279.0,-0.116,0.235,-0.01,-1.1,-4.8,1.3,528,710,0,761.0,528.0,895.0,772.0
R,,188338.0,0.119,0.075,-0.133,-5.5,-14.5,10.1,596,732,0,761.0,527.0,895.0,771.0
R,,188428.0,0.004,0.082,-0.116,-12.9,-6.3,-13.8,699,820,0,739.0,508.0,895.0,767.0
R,,188520.0,0.021,0.104,-0.089,-2.8,-0.3,-4.2,740,853,0,740.0,503.0,895.0,754.0
R,,188579.0,0.008,0.082,-0.095,-4.6,-3.6,-2.7,748,861,0,772.0,553.0,891.0,742.0
R,,188668.0,0.028,0.097,-0.061,-3.7,-3.9,-1.8,760,873,0,837.0,697.0,858.0,511.0
R,,188729.0,0.01,0.108,-0.075,-7.7,-3.5,-0.9,761,879,0,855.0,720.0,783.0,488.0
R,,188789.0,0.006,0.105,-0.068,-2.4,-3.4,-3.8,768,883,0,870.0,738.0,697.0,471.0
R,,188848.0,0.006,0.106,-0.076,-6.1,-3.6,-3.1,768,885,0,876.0,739.0,697.0,471.0
R,,188908.0,0.003,0.125,-0.084,-10.6,-4.7,-4.6,766,889,0,878.0,740.0,708.0,498.0
R,,188999.0,0.028,0.201,-0.082,-15.2,-7.7,-9.6,675,894,0,883.0,745.0,720.0,524.0
R,,189058.0,0.061,0.155,-0.1,-7.7,-5.2,-16.1,549,873,0,882.0,741.0,720.0,529.0
R,,189119.0,0.026,-0.039,-0.109,14.0,-18.9,-6.6,481,668,0,874.0,732.0,723.0,536.0
R,,189178.0,0.076,0.03,0.023,3.9,-18.3,7.1,531,709,0,887.0,740.0,720.0,536.0
R,,189239.0,0.049,0.042,0.012,17.7,6.2,12.7,523,708,0,883.0,726.0,721.0,535.0
R,,189300.0,0.026,0.095,-0.021,22.1,7.4,18.4,527,714,0,884.0,708.0,733.0,535.0
R,,189359.0,0.027,0.137,-0.068,17.9,9.3,22.0,539,722,0,881.0,694.0,736.0,566.0
R,,189418.0,0.011,0.164,-0.088,16.8,10.9,21.0,544,734,0,879.0,662.0,760.0,627.0
R,,189479.0,-0.068,0.205,-0.097,11.4,5.0,13.7,535,731,0,880.0,607.0,799.0,663.0
R,,189539.0,-0.113,0.227,-0.047,8.3,-8.4,-1.5,560,729,0,873.0,520.0,799.0,663.0
R,,189598.0,0.037,0.162,-0.089,5.3,-13.0,-13.4,653,786,0,725.0,324.0,820.0,683.0
R,,189659.0,0.001,0.062,-0.114,-9.4,-6.2,-11.5,711,827,0,725.0,324.0,828.0,703.0
R,,189718.0,0.003,0.07,-0.072,-15.1,-3.3,-2.7,737,852,0,669.0,427.0,848.0,731.0
R,,189779.0,0.015,0.099,-0.094,0.5,-2.7,-4.0,753,869,0,745.0,488.0,879.0,765.0
R,,189838.0,0.002,0.084,-0.084,-3.3,-1.8,-1.4,762,876,0,749.0,487.0,888.0,771.0
R,,189899.0,0.012,0.095,-0.071,-5.9,-4.2,-1.4,763,878,0,732.0,484.0,894.0,780.0
R,,189960.0,0.004,0.096,-0.068,-5.7,-3.9,-0.9,767,879,0,742.0,501.0,892.0,778.0
R,,190048.0,0.0,0.106,-0.073,-5.5,-3.9,-1.9,769,886,0,729.0,498.0,891.0,777.0
R,,190109.0,0.0,0.114,-0.075,-7.3,-3.6,-2.4,770,888,0,746.0,514.0,894.0,779.0
R,,190168.0,0.0,0.114,-0.078,-9.1,-7.1,-4.3,765,893,0,750.0,515.0,891.0,776.0
R,,190229.0,0.015,0.171,-0.069,-11.7,-7.0,-7.4,714,890,0,749.0,515.0,897.0,773.0
R,,190289.0,0.057,0.183,-0.1,-13.3,-8.8,-11.6,597,889,0,754.0,521.0,897.0,773.0
R,,190348.0,-0.037,0.101,-0.079,-0.5,-13.3,-11.0,538,819,0,756.0,520.0,898.0,757.0
R,,190409.0,0.081,0.011,-0.009,0.9,-35.8,7.4,518,706,0,762.0,525.0,900.0,738.0
R,,190468.0,0.077,0.045,0.054,13.7,-12.8,7.9,518,705,0,769.0,534.0,901.0,692.0
R,,190529.0,0.031,0.087,-0.005,24.4,0.5,15.3,500,701,0,771.0,538.0,902.0,681.0
R,,190588.0,0.027,0.127,-0.044,21.0,-1.4,23.9,512,711,0,771.0,538.0,899.0,704.0
R,,190649.0,0.026,0.167,-0.051,18.1,5.8,23.6,536,716,0,774.0,537.0,897.0,652.0
R,,190710.0,-0.039,0.204,-0.092,13.4,2.5,19.1,544,733,0,758.0,517.0,904.0,212.0
R,,190769.0,-0.096,0.181,-0.017,5.4,-10.4,6.1,558,743,0,801.0,648.0,735.0,445.0
R,,190829.0,0.082,0.053,-0.13,14.1,-4.0,7.6,630,767,0,848.0,715.0,735.0,445.0
R,,190888.0,-0.008,0.085,-0.152,2.0,-2.5,-12.1,713,826,0,864.0,734.0,669.0,493.0
R,,190949.0,0.006,0.049,-0.063,-19.0,-4.1,-0.2,736,852,0,874.0,740.0,707.0,525.0
R,,191008.0,0.018,0.098,-0.096,2.5,-2.1,-4.5,754,868,0,875.0,743.0,720.0,539.0
R,,191098.0,0.0,0.086,-0.086,-8.8,-3.0,-0.1,767,880,0,878.0,745.0,716.0,549.0
R,,191189.0,0.003,0.096,-0.067,-6.6,-3.3,-1.3,772,888,0,874.0,745.0,729.0,561.0
R,,191249.0,0.001,0.103,-0.074,-4.1,-2.7,-1.8,775,891,0,875.0,742.0,732.0,567.0
R,,191309.0,-0.004,0.104,-0.08,-6.5,-5.0,-2.5,767,892,0,879.0,749.0,736.0,573.0
R,,191369.0,-0.008,0.109,-0.072,-6.2,-7.7,-3.2,751,893,0,879.0,748.0,736.0,573.0
R,,191428.0,0.002,0.139,-0.067,-7.5,-7.2,-5.4,723,894,0,877.0,747.0,735.0,573.0
R,,191490.0,0.013,0.169,-0.074,-12.5,-6.1,-9.6,689,896,0,876.0,746.0,739.0,576.0
R,,191548.0,0.064,0.165,-0.107,-7.4,-11.9,-11.1,592,889,0,873.0,747.0,739.0,576.0
R,,191609.0,-0.084,0.115,-0.133,0.2,-17.0,-10.6,483,799,0,876.0,747.0,742.0,579.0
R,,191668.0,0.096,0.005,0.028,0.2,-36.1,6.6,483,696,0,881.0,753.0,742.0,579.0
R,,191729.0,0.059,0.056,-0.003,14.4,-12.8,11.0,493,694,0,886.0,752.0,744.0,579.0
R,,191789.0,0.036,0.093,-0.018,25.9,8.7,16.9,494,695,0,894.0,753.0,748.0,584.0
R,,191848.0,0.024,0.105,-0.067,24.6,7.7,23.8,503,696,0,895.0,749.0,749.0,585.0
R,,191909.0,0.043,0.185,-0.102,23.5,11.2,28.6,516,705,0,894.0,687.0,752.0,584.0
R,,191968.0,-0.044,0.243,-0.139,21.3,8.0,20.7,526,721,0,884.0,579.0,733.0,573.0
R,,192029.0,-0.127,0.201,-0.038,1.8,-2.1,-1.9,526,732,0,820.0,359.0,748.0,577.0
R,,192119.0,0.011,0.165,-0.112,6.6,-11.1,-20.1,680,797,0,750.0,459.0,876.0,744.0
R,,192180.0,-0.007,0.054,-0.095,-16.2,-8.3,-5.1,725,840,0,752.0,514.0,885.0,767.0
R,,192239.0,0.013,0.083,-0.087,-6.4,-1.1,-2.9,746,857,0,752.0,523.0,892.0,776.0
R,,192298.0,0.005,0.086,-0.108,-6.3,-4.0,-1.5,758,871,0,759.0,533.0,897.0,780.0
R,,192359.0,0.001,0.082,-0.087,-9.3,-2.9,0.4,764,877,0,760.0,539.0,897.0,781.0
R,,192418.0,0.0,0.086,-0.096,-12.4,-3.9,-1.6,769,883,0,761.0,540.0,899.0,781.0
R,,192479.0,0.006,0.106,-0.08,-6.8,-3.3,-2.8,771,888,0,765.0,545.0,897.0,781.0
R,,192539.0,-0.002,0.101,-0.083,-7.5,-4.1,-2.9,771,893,0,763.0,546.0,899.0,781.0
R,,192599.0,-0.003,0.112,-0.063,-6.2,-5.8,-3.5,751,894,0,762.0,545.0,899.0,781.0
R,,192659.0,-0.004,0.128,-0.071,-6.7,-6.7,-4.1,728,894,0,762.0,547.0,900.0,782.0
R,,192718.0,0.003,0.158,-0.069,-10.6,-8.0,-8.2,676,894,0,759.0,543.0,898.0,781.0
R,,192779.0,0.035,0.195,-0.105,-14.3,-11.9,-10.5,624,893,0,766.0,547.0,896.0,777.0
R,,192838.0,-0.006,0.108,-0.089,-2.5,-10.9,-6.6,480,844,0,766.0,548.0,896.0,777.0
R,,192900.0,0.072,0.051,-0.031,-18.0,-39.0,5.7,508,713,0,766.0,548.0,895.0,768.0
R,,192958.0,0.068,0.024,0.008,11.5,-16.5,5.3,519,722,0,760.0,545.0,900.0,769.0
R,,193019.0,0.051,0.058,-0.001,26.5,4.5,13.8,516,716,0,754.0,540.0,901.0,776.0
R,,193079.0,0.034,0.099,-0.037,29.1,8.7,20.5,513,715,0,735.0,502.0,899.0,769.0
R,,193168.0,0.019,0.172,-0.087,13.0,6.2,28.2,520,723,0,709.0,444.0,893.0,556.0
R,,193229.0,-0.005,0.195,-0.115,15.7,4.3,21.6,541,729,0,727.0,440.0,871.0,440.0
R,,193289.0,-0.076,0.227,-0.009,8.1,1.6,-2.1,540,737,0,832.0,464.0,690.0,502.0
R,,193349.0,0.119,0.002,-0.148,7.9,-10.3,3.9,606,755,0,878.0,706.0,686.0,512.0
R,,193409.0,0.0,0.137,-0.098,5.0,-12.4,-17.4,672,798,0,880.0,744.0,700.0,535.0
R,,193468.0,0.007,0.052,-0.104,-19.7,-6.2,-6.0,717,832,0,880.0,747.0,713.0,551.0
R,,193529.0,0.021,0.089,-0.084,-5.4,-2.7,-5.4,744,856,0,826.0,701.0,711.0,553.0
R,,193590.0,0.003,0.077,-0.114,-5.3,-2.7,-2.7,757,870,0,852.0,721.0,711.0,553.0
R,,193649.0,0.007,0.079,-0.084,-10.9,-3.3,-1.0,762,876,0,852.0,721.0,715.0,547.0
R,,193708.0,-0.011,0.084,-0.098,-12.7,-4.2,-2.9,768,883,0,872.0,735.0,721.0,560.0
R,,193769.0,0.001,0.096,-0.069,-7.2,-3.4,-2.4,768,887,0,877.0,741.0,721.0,560.0
R,,193829.0,-0.006,0.103,-0.073,-6.8,-2.5,-3.0,769,889,0,879.0,743.0,728.0,568.0
R,,193889.0,-0.007,0.111,-0.074,-6.7,-4.9,-3.0,759,894,0,880.0,746.0,732.0,569.0
R,,193949.0,-0.006,0.133,-0.051,-8.3,-7.6,-3.7,728,894,0,880.0,746.0,732.0,570.0
R,,194008.0,-0.001,0.141,-0.062,-12.2,-7.8,-7.4,679,893,0,878.0,743.0,735.0,571.0
R,,194069.0,0.022,0.189,-0.087,-18.7,-7.2,-9.0,623,892,0,839.0,711.0,735.0,572.0
R,,194127.0,0.037,0.149,-0.086,-2.9,-7.0,-17.7,424,884,0,844.0,714.0,737.0,573.0
R,,194218.0,0.075,-0.02,-0.034,-6.2,-31.1,4.1,503,697,0,855.0,717.0,741.0,575.0
R,,194279.0,0.064,0.022,0.034,11.8,-10.6,5.9,509,708,0,876.0,724.0,741.0,574.0
R,,194340.0,0.05,0.058,-0.012,26.7,2.1,15.3,495,696,0,880.0,673.0,743.0,578.0
R,,194399.0,0.062,0.12,-0.011,24.8,3.8,24.5,503,702,0,863.0,637.0,747.0,581.0
R,,194458.0,0.065,0.189,-0.064,28.1,17.4,27.4,520,710,0,812.0,604.0,752.0,588.0
R,,194519.0,0.001,0.229,-0.111,21.3,16.1,25.3,536,720,0,809.0,613.0,751.0,586.0
R,,194579.0,-0.152,0.205,-0.093,10.2,-2.4,10.1,551,738,0,843.0,643.0,756.0,588.0
R,,194639.0,-0.072,0.114,-0.115,14.8,-14.8,-0.2,581,745,0,830.0,608.0,747.0,571.0
R,,194699.0,0.02,0.181,-0.121,16.1,-8.5,-29.4,685,805,0,881.0,571.0,719.0,520.0
R,,194758.0,-0.004,0.059,-0.108,-25.4,-11.6,-7.9,732,844,0,838.0,283.0,737.0,402.0
R,,194819.0,0.016,0.091,-0.078,-9.4,-2.6,-4.8,752,866,0,838.0,283.0,837.0,585.0
R,,194878.0,0.002,0.088,-0.086,-1.4,-3.8,-3.5,762,876,0,729.0,402.0,884.0,765.0
R,,194939.0,0.0,0.084,-0.084,-3.8,-2.1,-1.7,767,882,0,726.0,448.0,890.0,773.0
R,,194999.0,0.008,0.1,-0.088,-7.4,-3.7,-0.7,769,885,0,736.0,464.0,893.0,778.0
R,,195060.0,0.001,0.1,-0.071,-5.3,-2.7,-1.9,770,887,0,732.0,480.0,898.0,783.0
R,,195119.0,-0.001,0.101,-0.077,-5.0,-3.5,-2.3,771,894,0,750.0,498.0,898.0,780.0
R,,195179.0,-0.006,0.104,-0.072,-6.9,-5.7,-3.5,763,894,0,744.0,491.0,898.0,782.0
R,,195269.0,-0.001,0.135,-0.069,-7.7,-7.7,-4.1,726,894,0,737.0,499.0,897.0,782.0
R,,195329.0,0.004,0.154,-0.072,-10.8,-7.6,-8.4,671,895,0,733.0,498.0,895.0,782.0
R,,195389.0,0.059,0.184,-0.106,-14.0,-12.3,-10.0,605,891,0,744.0,505.0,900.0,785.0
R,,195449.0,-0.048,0.149,-0.087,-0.5,-13.6,-8.9,486,832,0,739.0,502.0,895.0,781.0
R,,195508.0,0.085,-0.009,-0.013,0.2,-43.7,3.4,499,711,0,745.0,505.0,894.0,782.0
R,,195569.0,0.055,0.027,0.0,15.4,-12.6,9.1,486,704,0,745.0,506.0,897.0,784.0
R,,195628.0,0.042,0.085,0.014,28.0,-0.2,16.2,489,702,0,746.0,506.0,897.0,784.0
R,,195689.0,0.029,0.109,-0.019,25.1,4.1,21.4,496,712,0,747.0,500.0,897.0,781.0
R,,195750.0,0.025,0.139,-0.058,23.6,10.7,23.1,517,722,0,749.0,498.0,897.0,767.0
R,,195809.0,0.004,0.168,-0.073,15.8,3.5,23.8,525,734,0,745.0,485.0,898.0,753.0
R,,195869.0,-0.047,0.209,-0.036,3.7,-6.4,19.6,549,751,0,745.0,485.0,898.0,750.0
R,,195929.0,-0.096,0.08,-0.173,19.1,-4.8,-0.3,583,756,0,750.0,496.0,900.0,749.0
R,,195989.0,-0.004,0.044,-0.144,13.1,-9.8,-24.7,696,813,0,743.0,453.0,900.0,725.0
R,,196048.0,-0.016,0.041,-0.087,-25.2,-13.0,-6.0,732,847,0,735.0,422.0,894.0,527.0
R,,196109.0,0.012,0.089,-0.081,-5.9,-2.8,-4.1,754,866,0,828.0,473.0,896.0,279.0
R,,196168.0,0.002,0.088,-0.087,-2.2,-4.7,-2.1,768,879,0,876.0,604.0,676.0,453.0
R,,196229.0,-0.003,0.081,-0.088,-5.9,-2.6,-0.2,772,886,0,876.0,730.0,679.0,501.0
R,,196319.0,-0.006,0.087,-0.085,-6.7,-1.5,-1.1,773,889,0,889.0,747.0,705.0,533.0
R,,196378.0,0.001,0.104,-0.081,-2.7,-0.1,-0.4,772,891,0,892.0,747.0,714.0,541.0
R,,196439.0,-0.005,0.103,-0.086,-6.9,-4.8,-1.9,769,891,0,890.0,745.0,708.0,530.0
R,,196500.0,-0.008,0.11,-0.074,-6.8,-7.1,-2.5,758,894,0,892.0,743.0,714.0,536.0
R,,196559.0,-0.003,0.128,-0.069,-6.5,-6.8,-4.8,732,894,0,892.0,746.0,716.0,550.0
R,,196619.0,-0.001,0.148,-0.062,-12.2,-7.6,-7.8,688,894,0,891.0,748.0,716.0,555.0
R,,196679.0,0.033,0.192,-0.097,-15.1,-8.8,-7.8,645,897,0,896.0,753.0,726.0,567.0
R,,196739.0,0.008,0.146,-0.092,5.9,-4.5,-14.0,446,863,0,895.0,750.0,729.0,570.0
R,,196798.0,0.017,-0.031,-0.118,7.4,-28.4,7.0,479,690,0,895.0,754.0,739.0,577.0
R,,196859.0,0.058,0.029,0.037,14.8,-16.4,0.9,496,710,0,893.0,752.0,741.0,579.0
R,,196918.0,0.053,0.068,0.021,15.4,-9.1,14.1,490,693,0,893.0,752.0,745.0,586.0
R,,196979.0,0.025,0.091,-0.01,20.9,0.0,22.6,479,677,0,893.0,749.0,747.0,587.0
R,,197039.0,0.03,0.118,-0.043,25.9,9.5,27.9,508,690,0,890.0,722.0,750.0,588.0
R,,197099.0,0.028,0.19,-0.079,24.5,13.8,26.2,519,710,0,892.0,681.0,744.0,586.0
R,,197159.0,-0.073,0.223,-0.088,10.7,-2.4,22.9,544,732,0,889.0,667.0,750.0,597.0
R,,197220.0,-0.192,0.311,-0.066,19.2,-16.4,1.6,597,749,0,893.0,686.0,760.0,602.0
R,,197279.0,0.007,0.109,-0.071,7.3,-5.5,-26.4,695,810,0,889.0,720.0,750.0,576.0
R,,197369.0,0.009,0.057,-0.069,-12.9,-3.1,-2.6,742,858,0,891.0,425.0,738.0,510.0
R,,197429.0,0.018,0.098,-0.099,0.0,-0.7,-4.1,757,872,0,778.0,217.0,770.0,490.0
R,,197489.0,0.005,0.08,-0.091,-5.1,-2.0,-0.8,769,882,0,702.0,395.0,860.0,531.0
R,,197549.0,0.007,0.091,-0.079,-7.9,-3.3,-0.9,769,885,0,720.0,441.0,891.0,762.0
R,,197609.0,-0.001,0.097,-0.09,-8.3,-3.5,-1.7,772,885,0,734.0,477.0,895.0,784.0
R,,197668.0,0.003,0.103,-0.074,-5.6,-2.5,-1.0,771,891,0,742.0,498.0,895.0,783.0
R,,197728.0,-0.002,0.101,-0.076,-5.6,-5.4,-2.0,768,892,0,742.0,498.0,894.0,783.0
R,,197789.0,-0.004,0.112,-0.076,-5.2,-6.8,-2.3,755,894,0,752.0,512.0,897.0,786.0
R,,197849.0,0.006,0.155,-0.072,-7.6,-7.6,-5.4,715,897,0,749.0,516.0,894.0,784.0
R,,197911.0,0.019,0.168,-0.068,-14.4,-4.9,-9.1,695,895,0,743.0,512.0,900.0,785.0
R,,197969.0,0.07,0.164,-0.116,-9.8,-13.6,-12.7,589,893,0,746.0,514.0,902.0,789.0
R,,198029.0,-0.037,0.169,-0.121,0.5,-13.5,-14.6,475,812,0,751.0,516.0,898.0,788.0
R,,198088.0,0.075,0.005,0.014,-4.8,-27.8,3.1,498,706,0,747.0,515.0,898.0,788.0
R,,198149.0,0.025,0.009,-0.012,16.8,-8.3,5.0,489,686,0,750.0,518.0,902.0,786.0
R,,198208.0,0.054,0.064,0.019,19.7,-0.5,18.9,498,688,0,751.0,519.0,899.0,781.0
R,,198269.0,0.076,0.115,0.057,14.7,12.0,21.8,506,684,0,742.0,517.0,901.0,777.0
R,,198329.0,0.078,0.156,0.006,10.5,28.6,22.5,516,688,0,750.0,520.0,901.0,766.0
R,,198418.0,-0.103,0.205,-0.214,15.4,42.3,4.0,542,716,0,752.0,525.0,901.0,758.0
R,,198479.0,-0.225,0.117,-0.182,4.0,11.8,4.0,559,709,0,748.0,520.0,900.0,739.0
R,,198539.0,0.127,0.135,-0.072,2.1,0.3,-26.5,680,805,0,753.0,519.0,899.0,749.0
R,,198599.0,0.012,0.063,-0.003,-5.7,-10.0,-12.8,718,835,0,746.0,512.0,903.0,752.0
R,,198661.0,0.027,0.117,-0.073,11.1,-0.3,-8.6,741,860,0,742.0,494.0,900.0,744.0
R,,198719.0,0.026,0.107,-0.073,1.1,-4.6,-7.2,754,870,0,709.0,367.0,904.0,673.0
R,,198779.0,0.015,0.104,-0.053,-7.1,-2.0,-5.2,767,884,0,725.0,365.0,903.0,464.0
R,,198839.0,0.009,0.107,-0.054,0.4,-0.4,-4.5,767,889,0,860.0,512.0,909.0,171.0
R,,198899.0,0.009,0.107,-0.062,1.8,-1.2,-4.7,764,888,0,879.0,675.0,849.0,418.0
R,,198958.0,0.003,0.113,-0.068,-3.1,-4.2,-4.4,748,893,0,886.0,720.0,849.0,418.0
R,,199018.0,0.007,0.127,-0.064,-4.2,-4.0,-5.1,723,897,0,892.0,747.0,722.0,513.0
R,,199079.0,0.009,0.131,-0.067,-8.4,-5.3,-7.6,680,898,0,894.0,751.0,710.0,528.0
R,,199139.0,0.038,0.181,-0.111,-10.2,1.4,-9.5,631,898,0,893.0,752.0,689.0,445.0
R,,199199.0,0.075,0.166,-0.06,-7.1,-5.5,-17.6,432,892,0,892.0,753.0,685.0,472.0
R,,199259.0,-0.042,0.085,-0.105,-2.0,-3.6,-24.7,503,755,0,891.0,751.0,685.0,464.0
R,,199319.0,0.057,0.044,-0.044,-9.6,7.1,3.2,504,705,0,888.0,749.0,696.0,458.0
R,,199380.0,0.015,0.009,-0.023,-3.0,15.3,6.7,521,710,0,886.0,750.0,690.0,449.0
R,,199469.0,0.03,0.067,-0.045,1.4,30.2,17.0,533,711,0,887.0,750.0,689.0,455.0
R,,199529.0,0.055,0.107,-0.071,3.9,37.4,21.6,548,716,0,888.0,749.0,686.0,439.0
R,,199589.0,0.053,0.184,-0.148,6.5,47.8,12.4,552,716,0,887.0,750.0,687.0,454.0
R,,199679.0,-0.188,0.08,-0.329,8.4,24.6,1.0,565,727,0,888.0,751.0,690.0,481.0
R,,199739.0,0.253,0.125,-0.127,36.1,-10.3,-6.9,645,777,0,891.0,754.0,704.0,505.0
R,,199799.0,0.016,0.102,0.041,9.6,-10.8,-18.4,703,828,0,894.0,753.0,720.0,508.0
R,,199859.0,0.034,0.102,-0.066,11.8,-0.7,-7.7,721,847,0,894.0,705.0,738.0,512.0
R,,199918.0,0.028,0.102,-0.061,12.7,-0.8,-11.0,742,861,0,884.0,551.0,738.0,512.0
R,,199979.0,0.013,0.101,-0.083,1.5,-1.5,-5.8,757,873,0,832.0,355.0,723.0,431.0
R,,200039.0,0.009,0.117,-0.049,1.9,-2.5,-5.6,766,879,0,697.0,464.0,913.0,170.0
R,,200100.0,0.013,0.104,-0.075,-3.0,-2.5,-2.1,772,887,0,662.0,446.0,899.0,654.0
R,,200159.0,0.007,0.105,-0.061,-2.1,-1.7,-1.5,774,888,0,683.0,469.0,899.0,654.0
R,,200219.0,0.009,0.11,-0.064,0.4,-0.1,-0.9,772,891,0,705.0,483.0,898.0,704.0
R,,200279.0,0.016,0.114,-0.073,-3.0,-0.4,-1.8,767,892,0,719.0,499.0,897.0,719.0
R,,200339.0,0.022,0.123,-0.066,-8.7,-1.0,-4.8,742,894,0,724.0,506.0,898.0,722.0
R,,200399.0,0.022,0.155,-0.086,-8.0,0.0,-7.6,728,895,0,717.0,504.0,900.0,726.0
R,,200458.0,0.057,0.17,-0.088,-17.8,-4.1,-12.3,671,892,0,715.0,504.0,900.0,720.0
R,,200519.0,0.082,0.184,-0.101,-4.5,5.5,-20.0,467,877,0,723.0,509.0,898.0,713.0
R,,200579.0,-0.018,0.119,-0.045,-9.8,-3.5,-22.7,423,633,0,712.0,501.0,903.0,705.0
R,,200639.0,0.013,0.047,-0.106,-9.8,15.1,-9.4,480,689,0,710.0,501.0,902.0,705.0
R,,200699.0,0.001,0.015,-0.036,-6.0,16.5,5.2,488,685,0,712.0,503.0,904.0,708.0
R,,200759.0,0.015,0.03,-0.048,2.0,22.6,14.6,488,681,0,721.0,507.0,902.0,698.0
R,,200821.0,0.032,0.05,-0.081,10.0,26.2,21.9,496,682,0,670.0,431.0,899.0,634.0
R,,200879.0,0.042,0.12,-0.092,18.8,31.4,22.7,521,703,0,638.0,333.0,907.0,276.0
R,,200939.0,-0.062,0.262,-0.242,27.2,42.7,19.6,534,723,0,797.0,455.0,913.0,153.0
R,,200999.0,-0.267,0.164,-0.163,-6.2,-6.7,6.5,553,738,0,862.0,320.0,904.0,175.0
R,,201059.0,0.157,0.296,-0.11,-7.5,-16.5,-12.8,659,783,0,862.0,320.0,662.0,490.0
R,,201119.0,0.013,0.125,-0.069,-6.1,-6.8,-12.4,716,836,0,868.0,603.0,695.0,532.0
R,,201179.0,0.018,0.059,-0.037,1.9,-1.1,-8.1,736,851,0,891.0,681.0,687.0,531.0
R,,201239.0,0.025,0.106,-0.087,1.5,-3.9,-4.7,752,864,0,892.0,714.0,693.0,539.0
R,,201299.0,0.016,0.093,-0.069,-0.1,-3.3,-4.9,761,874,0,895.0,719.0,703.0,547.0
R,,201359.0,0.014,0.105,-0.067,-3.0,-4.1,-3.4,768,883,0,892.0,701.0,699.0,543.0
R,,201419.0,0.0,0.116,-0.091,-3.6,-1.0,-3.7,767,884,0,893.0,689.0,709.0,549.0
R,,201481.0,0.012,0.112,-0.071,-1.1,-2.8,-2.9,769,888,0,891.0,677.0,715.0,545.0
R,,201539.0,0.0,0.116,-0.077,-5.8,-1.6,-4.6,767,892,0,888.0,649.0,739.0,527.0
R,,201599.0,0.001,0.131,-0.068,-8.6,-7.1,-5.7,736,897,0,864.0,577.0,757.0,477.0
R,,201659.0,0.022,0.165,-0.072,-9.3,-3.7,-9.7,699,893,0,892.0,433.0,820.0,485.0
R,,201719.0,0.053,0.188,-0.137,-13.4,-6.1,-12.8,655,898,0,891.0,276.0,903.0,222.0
R,,201779.0,0.065,0.141,-0.075,-7.8,-0.5,-19.1,420,880,0,848.0,296.0,899.0,566.0
R,,201839.0,0.013,0.009,-0.051,-17.4,-14.4,-3.8,495,684,0,674.0,430.0,898.0,683.0
R,,201899.0,0.029,0.008,0.011,2.3,-11.5,-1.4,511,698,0,706.0,471.0,898.0,725.0
R,,201959.0,0.051,0.011,0.022,11.1,1.7,12.1,524,700,0,715.0,489.0,899.0,736.0
R,,202019.0,0.038,0.044,0.001,17.8,16.7,19.7,531,696,0,735.0,507.0,899.0,739.0
R,,202079.0,0.042,0.092,-0.061,21.0,23.1,27.4,536,703,0,749.0,517.0,900.0,742.0
R,,202138.0,0.042,0.192,-0.14,18.3,28.2,30.4,540,712,0,745.0,520.0,900.0,742.0
R,,202201.0,-0.109,0.252,-0.212,19.3,20.1,24.1,546,722,0,749.0,525.0,900.0,743.0
R,,202259.0,-0.189,0.264,-0.049,-10.7,-18.4,-1.7,566,739,0,756.0,528.0,900.0,741.0
R,,202319.0,0.102,0.186,-0.105,-17.0,-26.1,-12.6,635,781,0,756.0,529.0,900.0,739.0
R,,202379.0,-0.012,0.09,-0.157,5.7,-2.2,-24.6,708,825,0,739.0,506.0,902.0,727.0
R,,202439.0,0.008,0.053,-0.063,-18.3,-3.0,-7.9,742,854,0,702.0,386.0,900.0,621.0
R,,202499.0,0.016,0.104,-0.09,-1.8,-2.8,-6.1,762,871,0,806.0,486.0,899.0,471.0
R,,202559.0,0.007,0.085,-0.088,-3.3,-1.6,-4.8,767,882,0,889.0,272.0,901.0,241.0
R,,202619.0,0.003,0.106,-0.081,-8.1,-1.4,-1.3,768,887,0,895.0,271.0,789.0,521.0
R,,202679.0,0.018,0.119,-0.06,-6.8,-8.0,-4.6,766,890,0,887.0,497.0,702.0,534.0
R,,202739.0,-0.004,0.102,-0.079,-3.5,-4.6,-2.6,756,892,0,892.0,571.0,734.0,562.0
R,,202799.0,-0.005,0.114,-0.078,-4.7,-7.7,-2.7,739,896,0,894.0,593.0,755.0,593.0
R,,202859.0,0.008,0.134,-0.068,-6.9,-7.8,-6.0,705,895,0,889.0,617.0,768.0,606.0
R,,202920.0,0.016,0.178,-0.096,-15.0,-8.0,-10.9,649,894,0,886.0,657.0,769.0,614.0
R,,202979.0,0.077,0.202,-0.177,-14.0,-15.0,-14.4,534,893,0,879.0,691.0,772.0,620.0
R,,203039.0,-0.038,0.176,-0.104,-6.6,-15.3,-13.2,488,795,0,879.0,713.0,777.0,626.0
R,,203099.0,0.087,0.057,0.032,-5.2,-23.1,1.8,500,713,0,882.0,713.0,784.0,630.0
R,,203159.0,0.033,0.031,0.034,9.2,-3.5,4.8,515,719,0,879.0,690.0,784.0,632.0
R,,203219.0,0.039,0.057,0.034,11.1,5.9,16.0,528,723,0,879.0,655.0,785.0,629.0
R,,203279.0,0.018,0.094,-0.007,12.3,14.7,23.8,524,723,0,875.0,607.0,795.0,640.0
R,,203339.0,0.024,0.121,0.004,12.3,17.3,23.0,537,730,0,847.0,524.0,796.0,640.0
R,,203399.0,0.0,0.187,-0.125,11.5,24.4,22.1,551,743,0,869.0,508.0,796.0,640.0
R,,203459.0,-0.136,0.176,-0.191,13.9,13.7,15.6,557,750,0,832.0,533.0,792.0,670.0
R,,203519.0,-0.094,0.268,-0.053,0.1,-12.4,17.3,591,753,0,731.0,507.0,807.0,679.0
R,,203581.0,0.026,0.209,-0.048,3.2,-11.2,-30.5,670,808,0,757.0,536.0,815.0,693.0
R,,203639.0,0.027,0.073,-0.083,-8.6,-3.8,-13.5,712,833,0,774.0,559.0,818.0,696.0
R,,203699.0,0.027,0.09,-0.068,-3.7,-0.2,-5.1,739,856,0,784.0,574.0,810.0,688.0
R,,203759.0,0.032,0.109,-0.078,1.5,-1.3,-5.6,751,869,0,787.0,577.0,807.0,681.0
R,,203819.0,0.019,0.094,-0.079,-3.3,-2.4,-5.9,760,873,0,790.0,580.0,807.0,680.0
R,,203879.0,0.021,0.104,-0.059,-6.4,-2.7,-4.6,765,881,0,793.0,585.0,812.0,684.0
R,,203939.0,0.009,0.106,-0.067,-3.6,-1.7,-3.7,774,888,0,795.0,587.0,811.0,684.0
R,,204000.0,0.011,0.114,-0.064,-3.7,-1.3,-4.4,770,890,0,801.0,591.0,813.0,682.0
R,,204059.0,0.007,0.112,-0.067,-5.2,-3.5,-2.9,763,892,0,791.0,605.0,816.0,686.0
R,,204119.0,0.007,0.132,-0.06,-6.3,-7.5,-5.3,733,894,0,803.0,652.0,800.0,669.0
R,,204179.0,0.026,0.154,-0.052,-9.9,-5.2,-9.2,683,897,0,819.0,674.0,754.0,620.0
R,,204239.0,0.068,0.212,-0.118,-12.2,-2.6,-13.3,626,892,0,824.0,676.0,755.0,615.0
R,,204300.0,0.048,0.177,-0.092,-12.4,-2.4,-21.2,417,867,0,819.0,669.0,764.0,619.0
R,,204359.0,-0.01,0.088,0.042,-37.3,-2.5,-4.4,493,688,0,819.0,669.0,764.0,619.0
R,,204419.0,-0.002,0.0,0.0,2.1,2.1,0.4,516,713,0,823.0,673.0,765.0,630.0
R,,204479.0,0.018,0.039,0.008,7.2,9.3,11.5,523,709,0,825.0,676.0,771.0,634.0
R,,204540.0,0.019,0.083,0.001,9.1,21.6,18.0,521,700,0,827.0,678.0,772.0,636.0
R,,204599.0,0.021,0.099,-0.054,11.1,26.7,20.5,535,709,0,828.0,680.0,780.0,639.0
R,,204659.0,0.032,0.12,-0.106,13.0,31.2,21.4,544,715,0,831.0,683.0,778.0,641.0
R,,204719.0,-0.018,0.186,-0.159,18.4,35.0,17.3,555,726,0,832.0,684.0,774.0,625.0
R,,204779.0,-0.184,0.193,-0.182,8.0,12.9,7.6,563,733,0,833.0,686.0,778.0,624.0
R,,204839.0,0.182,0.02,-0.027,-7.9,-9.5,10.4,630,760,0,828.0,680.0,779.0,617.0
R,,204899.0,0.0,0.114,-0.082,15.8,1.5,-26.7,704,829,0,827.0,677.0,856.0,551.0
R,,204959.0,0.04,0.059,-0.042,-7.2,-8.5,-13.8,738,857,0,817.0,668.0,884.0,673.0
R,,205021.0,0.026,0.125,-0.06,1.9,-0.2,-14.0,765,884,0,781.0,625.0,894.0,726.0
R,,205080.0,0.016,0.106,-0.057,-4.7,2.1,-10.9,766,893,0,768.0,576.0,895.0,742.0
R,,205139.0,0.005,0.114,-0.04,1.4,-0.8,-6.7,745,894,0,775.0,583.0,901.0,741.0
R,,205199.0,0.005,0.105,-0.019,-1.3,-3.3,-5.1,727,896,0,784.0,593.0,896.0,720.0
R,,205258.0,-0.006,0.12,-0.048,-1.4,-3.4,-3.8,709,895,0,786.0,594.0,896.0,720.0
R,,205319.0,-0.004,0.118,-0.042,-1.5,-1.9,-4.2,694,896,0,782.0,591.0,898.0,720.0
R,,205379.0,0.007,0.141,-0.054,-5.4,-2.0,-4.3,680,895,0,782.0,585.0,898.0,718.0
R,,205439.0,0.036,0.17,-0.059,-9.4,0.2,-9.9,655,894,0,764.0,570.0,898.0,721.0
R,,205500.0,0.111,0.206,-0.091,-13.1,-7.7,-14.4,435,892,0,768.0,572.0,899.0,725.0
R,,205559.0,-0.005,0.112,-0.181,9.6,-6.0,-32.7,494,778,0,738.0,533.0,900.0,720.0
R,,205619.0,0.036,0.09,-0.104,-16.9,10.2,1.8,506,703,0,745.0,510.0,898.0,672.0
R,,205681.0,0.023,0.016,-0.028,2.5,14.6,5.3,513,692,0,761.0,511.0,899.0,466.0
R,,205739.0,0.04,0.035,-0.022,2.0,21.5,16.2,525,701,0,843.0,416.0,911.0,165.0
R,,205799.0,0.033,0.083,-0.079,8.1,31.8,21.8,535,705,0,878.0,558.0,903.0,238.0
R,,205859.0,0.061,0.121,-0.107,10.7,39.3,25.3,546,715,0,873.0,641.0,790.0,481.0
R,,205919.0,0.046,0.193,-0.16,11.3,39.2,24.6,556,730,0,871.0,669.0,698.0,513.0
R,,205979.0,-0.228,0.181,-0.279,19.8,19.4,9.6,571,739,0,887.0,666.0,703.0,524.0
R,,206040.0,0.345,-0.075,-0.174,-1.1,-24.5,10.2,632,766,0,891.0,593.0,698.0,534.0
R,,206099.0,0.066,0.054,-0.123,39.1,14.5,-39.7,721,848,0,893.0,587.0,705.0,542.0
R,,206159.0,0.02,0.032,0.017,-1.8,-11.6,-20.1,759,879,0,895.0,600.0,719.0,557.0
R,,206219.0,0.024,0.136,-0.088,2.4,-0.5,-8.4,767,888,0,893.0,599.0,731.0,569.0
R,,206279.0,0.001,0.097,-0.058,-6.7,0.1,-3.9,760,895,0,889.0,583.0,732.0,567.0
R,,206339.0,0.006,0.109,-0.051,1.8,2.8,-2.5,743,894,0,889.0,583.0,697.0,523.0
R,,206401.0,0.016,0.111,-0.04,2.0,2.0,-2.2,742,895,0,887.0,566.0,696.0,426.0
R,,206459.0,0.013,0.107,-0.064,1.0,-0.7,-3.0,741,898,0,889.0,548.0,726.0,373.0
R,,206519.0,0.01,0.115,-0.051,-1.5,-1.6,-1.6,742,898,0,883.0,405.0,746.0,382.0
R,,206580.0,0.016,0.126,-0.057,-4.7,-2.0,-1.1,733,899,0,891.0,284.0,818.0,393.0
R,,206639.0,0.022,0.127,-0.058,-6.2,-1.5,-3.8,702,899,0,892.0,267.0,879.0,645.0
R,,206699.0,0.017,0.136,-0.061,-9.7,-1.6,-6.2,676,899,0,863.0,296.0,890.0,735.0
R,,206759.0,0.052,0.167,-0.114,-9.3,2.7,-11.5,616,897,0,753.0,452.0,897.0,752.0
R,,206819.0,0.083,0.153,-0.053,-9.5,4.0,-19.1,403,875,0,719.0,468.0,895.0,767.0
R,,206879.0,0.016,0.096,-0.045,-15.1,-4.8,-16.5,479,694,0,721.0,478.0,896.0,774.0
R,,206939.0,-0.02,0.058,-0.157,-8.3,25.8,-11.8,499,730,0,721.0,485.0,899.0,768.0
R,,207000.0,-0.002,0.025,-0.068,-1.6,17.0,5.5,492,709,0,721.0,490.0,898.0,762.0
R,,207059.0,0.007,0.049,-0.031,-2.3,21.1,16.7,511,719,0,720.0,493.0,899.0,752.0
R,,207121.0,0.028,0.076,-0.074,9.1,31.9,18.2,528,724,0,725.0,497.0,898.0,742.0
R,,207209.0,0.029,0.167,-0.137,14.0,44.2,14.1,542,732,0,741.0,510.0,898.0,730.0
R,,207299.0,-0.184,0.139,-0.281,12.1,26.6,-1.3,556,744,0,745.0,512.0,898.0,725.0
R,,207358.0,-0.083,0.276,-0.05,-12.0,-16.3,18.1,610,757,0,747.0,515.0,898.0,725.0
R,,207419.0,0.02,0.074,-0.148,27.4,4.4,-29.0,700,828,0,744.0,511.0,898.0,725.0
R,,207479.0,0.027,0.08,-0.063,8.1,-3.1,-7.8,713,848,0,754.0,483.0,895.0,520.0
R,,207540.0,0.037,0.13,-0.089,11.3,0.8,-8.7,737,857,0,834.0,499.0,900.0,332.0
R,,207599.0,0.017,0.092,-0.069,1.7,-4.4,-6.7,757,872,0,878.0,555.0,903.0,210.0
R,,207660.0,0.009,0.109,-0.066,-2.2,-3.5,-5.9,761,877,0,880.0,607.0,827.0,461.0
R,,207719.0,0.01,0.102,-0.066,0.7,-1.7,-2.8,766,881,0,864.0,637.0,703.0,501.0
R,,207779.0,0.005,0.101,-0.064,-1.4,-2.1,-2.9,770,885,0,879.0,646.0,714.0,520.0
R,,207840.0,0.004,0.103,-0.047,-2.9,-2.6,-1.4,770,889,0,893.0,673.0,711.0,528.0
R,,207899.0,0.007,0.114,-0.066,-3.5,-0.6,-1.0,770,890,0,893.0,690.0,713.0,528.0
R,,207959.0,0.007,0.126,-0.067,-8.4,-1.5,-3.4,760,892,0,895.0,693.0,704.0,528.0
R,,208019.0,0.021,0.144,-0.065,-6.7,-0.1,-5.1,724,894,0,897.0,697.0,705.0,533.0
R,,208080.0,0.042,0.175,-0.096,-14.5,-4.0,-10.4,677,894,0,895.0,700.0,715.0,541.0
R,,208139.0,0.072,0.161,-0.07,-8.7,-2.8,-18.1,546,881,0,892.0,718.0,713.0,542.0
R,,208200.0,-0.028,0.144,-0.11,-1.7,-6.8,-25.4,502,792,0,891.0,727.0,710.0,540.0
R,,208259.0,0.018,0.053,-0.092,-13.7,0.7,3.0,499,697,0,892.0,729.0,708.0,539.0
R,,208319.0,0.007,0.023,-0.007,1.3,3.9,6.3,507,698,0,891.0,735.0,718.0,548.0
R,,208410.0,-0.003,0.064,-0.021,14.0,14.0,14.7,522,705,0,888.0,737.0,841.0,711.0
R,,208469.0,0.007,0.093,-0.027,11.4,15.7,17.4,530,713,0,879.0,739.0,858.0,737.0
R,,208529.0,0.014,0.107,-0.081,18.1,23.4,19.8,542,723,0,871.0,731.0,858.0,737.0
R,,208590.0,-0.054,0.167,-0.107,18.8,27.3,12.3,556,739,0,875.0,734.0,865.0,749.0
R,,208649.0,-0.174,0.209,-0.179,5.8,7.1,5.2,556,736,0,873.0,734.0,865.0,752.0
R,,208709.0,0.191,0.325,-0.109,-10.6,-15.4,-4.5,668,793,0,866.0,729.0,867.0,754.0
R,,208769.0,-0.006,0.069,-0.082,-10.2,-7.0,-13.8,724,843,0,871.0,732.0,867.0,754.0
R,,208830.0,0.004,0.091,-0.052,2.2,-0.7,-5.7,757,873,0,877.0,726.0,870.0,759.0
R,,208889.0,0.013,0.117,-0.091,7.5,-0.4,-6.6,772,885,0,877.0,726.0,872.0,762.0
R,,208950.0,0.003,0.098,-0.07,-2.3,-1.2,-3.7,771,887,0,868.0,639.0,874.0,763.0
R,,209009.0,0.002,0.107,-0.067,-5.1,-1.9,-2.7,771,889,0,793.0,564.0,873.0,763.0
R,,209069.0,-0.002,0.104,-0.061,-2.4,-0.8,-1.3,774,891,0,752.0,532.0,869.0,759.0
R,,209129.0,0.003,0.108,-0.069,-1.9,-0.7,-1.4,771,893,0,754.0,533.0,870.0,762.0
R,,209189.0,0.002,0.114,-0.078,-5.1,-3.0,-2.0,765,893,0,755.0,537.0,874.0,765.0
R,,209250.0,0.0,0.125,-0.071,-6.1,-7.8,-4.0,752,895,0,756.0,534.0,880.0,771.0
R,,209309.0,0.035,0.182,-0.106,-7.4,0.1,-5.8,705,894,0,758.0,533.0,884.0,774.0
R,,209370.0,0.073,0.183,-0.068,-12.0,-6.4,-15.5,567,881,0,739.0,504.0,887.0,776.0
R,,209429.0,-0.002,0.056,-0.043,-6.4,-6.2,-13.7,532,713,0,767.0,561.0,887.0,775.0
R,,209490.0,-0.006,0.046,-0.007,-6.6,-7.0,-2.0,553,735,0,829.0,675.0,887.0,775.0
R,,209549.0,0.027,0.048,0.046,-1.0,6.7,6.6,547,717,0,848.0,710.0,890.0,751.0
R,,209609.0,0.018,0.07,0.031,0.7,18.2,13.8,544,717,0,863.0,725.0,874.0,634.0
R,,209668.0,-0.004,0.104,-0.021,3.2,17.4,13.3,552,725,0,870.0,734.0,800.0,592.0
R,,209729.0,0.004,0.138,-0.047,4.7,25.6,9.7,564,729,0,872.0,740.0,717.0,561.0
R,,209790.0,-0.025,0.133,-0.107,8.8,33.8,2.3,571,743,0,878.0,742.0,722.0,572.0
R,,209849.0,-0.071,0.113,-0.163,8.4,22.9,-0.2,567,749,0,884.0,748.0,721.0,572.0
R,,209910.0,0.116,0.114,-0.062,0.7,-21.8,1.1,668,823,0,881.0,745.0,728.0,578.0
R,,210000.0,0.024,0.115,-0.058,10.9,1.5,1.1,751,870,0,882.0,747.0,736.0,592.0
R,,210059.0,0.03,0.115,-0.065,4.4,1.4,2.9,757,874,0,860.0,728.0,741.0,595.0
R,,210120.0,0.03,0.117,-0.058,6.6,0.7,-0.5,754,866,0,853.0,720.0,745.0,596.0
R,,210179.0,0.038,0.109,-0.053,1.1,-0.2,-0.6,753,866,0,868.0,730.0,745.0,592.0
R,,210240.0,0.036,0.107,-0.059,3.4,-0.1,-4.0,752,863,0,867.0,729.0,762.0,631.0
R,,210299.0,0.018,0.108,-0.066,0.2,-0.6,-5.1,760,875,0,827.0,692.0,794.0,668.0
R,,210359.0,0.022,0.109,-0.049,-1.3,-0.4,-5.5,768,880,0,878.0,697.0,821.0,697.0
R,,210419.0,0.011,0.106,-0.051,-2.6,0.0,-3.0,770,888,0,880.0,650.0,836.0,718.0
R,,210479.0,0.015,0.11,-0.053,-3.9,1.5,-1.9,770,889,0,876.0,585.0,844.0,729.0
R,,210540.0,0.017,0.119,-0.053,-8.1,2.3,0.1,769,890,0,853.0,540.0,844.0,729.0
R,,210599.0,0.052,0.146,-0.076,-7.1,1.8,-1.6,756,890,0,827.0,525.0,848.0,735.0
R,,210660.0,0.081,0.164,-0.063,-7.7,2.9,-8.5,667,867,0,736.0,490.0,855.0,745.0
R,,210750.0,0.049,0.148,-0.056,-36.8,25.4,-27.0,545,720,0,743.0,505.0,857.0,749.0
R,,210809.0,-0.019,0.013,-0.162,4.1,24.7,-24.7,549,731,0,750.0,515.0,861.0,752.0
R,,210870.0,-0.001,0.039,-0.067,0.0,9.3,-2.2,554,733,0,759.0,519.0,861.0,752.0
R,,210929.0,0.031,0.044,-0.014,-4.7,14.4,6.4,557,735,0,759.0,519.0,863.0,753.0
R,,211019.0,0.034,0.073,-0.068,15.1,23.2,13.6,554,725,0,765.0,536.0,864.0,755.0
R,,211080.0,0.043,0.139,-0.107,17.6,31.2,16.3,561,735,0,764.0,538.0,873.0,762.0
R,,211139.0,-0.02,0.16,-0.157,15.9,23.2,14.5,563,745,0,771.0,539.0,878.0,765.0
R,,211200.0,-0.09,0.181,-0.104,7.4,12.5,7.3,570,751,0,772.0,540.0,885.0,771.0
R,,211259.0,-0.045,0.096,-0.11,10.0,-5.2,3.5,570,744,0,772.0,540.0,892.0,778.0
R,,211320.0,0.084,0.183,-0.033,12.5,-12.9,-18.1,655,789,0,776.0,548.0,894.0,775.0
R,,211379.0,0.005,0.114,-0.043,-8.7,-6.2,-13.3,716,838,0,810.0,639.0,893.0,764.0
R,,211441.0,0.017,0.073,-0.061,0.5,-1.8,-5.0,739,863,0,845.0,698.0,891.0,739.0
R,,211500.0,0.023,0.102,-0.088,3.7,-3.0,-4.8,755,873,0,864.0,720.0,885.0,708.0
R,,211559.0,0.024,0.1,-0.07,0.5,-2.4,-5.6,761,876,0,871.0,732.0,885.0,708.0
R,,211620.0,0.009,0.1,-0.07,-4.8,-3.5,-4.7,764,879,0,873.0,737.0,874.0,656.0
R,,211679.0,0.008,0.107,-0.06,-1.8,-3.6,-4.5,768,882,0,879.0,742.0,854.0,627.0
R,,211740.0,0.005,0.111,-0.068,-2.6,-3.0,-2.9,772,887,0,876.0,741.0,753.0,596.0
R,,211799.0,0.005,0.113,-0.063,-6.8,-3.2,-1.3,773,894,0,877.0,740.0,757.0,603.0
R,,211859.0,0.001,0.113,-0.084,-7.1,-6.4,-4.9,748,892,0,878.0,741.0,754.0,604.0
R,,211919.0,0.031,0.195,-0.099,-10.0,-4.8,-9.6,662,893,0,878.0,745.0,755.0,608.0
R,,211979.0,0.081,0.172,-0.081,-9.5,-5.7,-17.9,573,883,0,881.0,745.0,760.0,612.0
R,,212070.0,0.079,0.016,-0.001,-11.8,-13.4,1.2,532,735,0,880.0,747.0,766.0,620.0
R,,212129.0,0.065,0.014,0.037,3.8,0.0,6.1,541,729,0,881.0,747.0,766.0,620.0
R,,212191.0,0.046,0.038,-0.011,11.7,14.7,14.0,538,722,0,881.0,746.0,772.0,623.0
R,,212250.0,0.051,0.081,-0.041,16.0,22.8,22.5,539,718,0,884.0,746.0,772.0,623.0
R,,212308.0,0.05,0.16,-0.101,17.0,32.5,22.2,556,735,0,884.0,746.0,772.0,628.0
R,,212370.0,-0.024,0.212,-0.143,14.7,36.5,10.4,564,747,0,883.0,746.0,766.0,623.0
R,,212429.0,-0.208,0.146,-0.195,6.3,10.4,-2.3,572,754,0,880.0,742.0,810.0,632.0
R,,212490.0,0.194,-0.017,-0.141,-14.8,-19.6,15.2,642,774,0,867.0,726.0,870.0,677.0
R,,212549.0,-0.02,0.121,-0.081,6.5,-0.2,-18.5,723,847,0,838.0,691.0,883.0,733.0
R,,212610.0,0.009,0.072,-0.053,0.8,-2.3,-8.8,749,865,0,794.0,618.0,892.0,769.0
R,,212669.0,0.024,0.118,-0.08,5.4,-1.6,-9.2,764,874,0,794.0,618.0,887.0,775.0
R,,212729.0,0.009,0.096,-0.06,-4.3,-4.8,-6.9,767,883,0,771.0,569.0,884.0,774.0
R,,212789.0,0.0,0.118,-0.065,-3.6,-1.3,-3.3,769,888,0,783.0,580.0,878.0,766.0
R,,212849.0,0.006,0.113,-0.059,-0.6,-0.7,-3.5,769,891,0,785.0,584.0,873.0,764.0
R,,212941.0,0.003,0.126,-0.05,-3.9,-3.1,-4.1,760,896,0,779.0,584.0,877.0,764.0
R,,213000.0,0.005,0.14,-0.058,-6.2,-3.5,-4.5,733,895,0,784.0,591.0,876.0,766.0
R,,213089.0,0.046,0.177,-0.097,-9.1,1.9,-10.8,676,898,0,784.0,589.0,877.0,765.0
R,,213149.0,0.082,0.172,-0.095,-5.3,-3.7,-18.8,455,885,0,812.0,586.0,878.0,765.0
R,,213209.0,-0.003,0.013,-0.139,1.4,-16.9,-23.6,473,702,0,862.0,627.0,872.0,764.0
R,,213269.0,0.013,0.054,-0.063,-15.1,3.2,-0.6,510,707,0,868.0,656.0,871.0,760.0
R,,213330.0,0.017,-0.002,0.009,4.6,10.7,9.0,520,708,0,874.0,710.0,867.0,754.0
R,,213389.0,0.012,0.05,-0.02,12.1,16.2,15.2,528,703,0,877.0,731.0,858.0,741.0
R,,213450.0,0.016,0.108,-0.062,12.9,26.3,20.2,534,702,0,877.0,737.0,805.0,688.0
R,,213509.0,0.036,0.13,-0.102,17.0,34.6,19.0,541,715,0,877.0,743.0,731.0,610.0
R,,213570.0,-0.024,0.191,-0.153,11.6,32.9,13.6,555,728,0,879.0,744.0,731.0,597.0
R,,213631.0,-0.218,0.158,-0.199,12.8,15.9,2.1,563,739,0,881.0,744.0,742.0,608.0
R,,213689.0,-0.109,0.259,-0.03,-3.1,-4.8,14.3,604,755,0,879.0,744.0,749.0,619.0
R,,213750.0,-0.011,0.062,-0.029,24.5,3.1,-46.4,720,842,0,880.0,745.0,757.0,628.0
R,,213809.0,0.023,0.047,-0.043,-13.2,-12.9,-12.0,743,864,0,880.0,745.0,758.0,631.0
R,,213870.0,0.032,0.122,-0.07,8.7,-0.7,-7.6,759,877,0,878.0,744.0,789.0,669.0
R,,213929.0,0.016,0.109,-0.074,-1.2,-5.1,-5.6,767,884,0,875.0,740.0,837.0,723.0
R,,213990.0,0.013,0.109,-0.057,-5.7,-3.8,-5.6,772,888,0,874.0,737.0,853.0,738.0
R,,214049.0,0.002,0.107,-0.064,-0.9,-1.1,-4.1,772,889,0,869.0,736.0,854.0,740.0
R,,214139.0,0.002,0.115,-0.071,-2.1,-2.2,-3.6,768,893,0,873.0,738.0,863.0,749.0
R,,214200.0,0.002,0.116,-0.07,-3.4,-3.9,-4.2,751,895,0,872.0,735.0,861.0,751.0
R,,214259.0,0.01,0.14,-0.077,-9.1,-6.5,-5.6,718,898,0,871.0,737.0,864.0,753.0
R,,214320.0,0.034,0.179,-0.067,-11.5,-0.7,-10.7,684,894,0,869.0,738.0,867.0,754.0
R,,214381.0,0.103,0.183,-0.095,-11.7,-11.6,-17.4,531,890,0,870.0,738.0,871.0,758.0
R,,214439.0,-0.059,0.145,-0.175,5.5,-7.6,-23.7,497,820,0,872.0,737.0,873.0,759.0
R,,214500.0,0.042,0.025,-0.087,-14.9,-2.4,4.0,507,715,0,872.0,738.0,875.0,761.0
R,,214559.0,0.044,0.005,0.004,4.4,3.3,5.8,520,713,0,870.0,738.0,876.0,761.0
R,,214620.0,0.028,0.043,-0.021,12.8,21.2,14.4,523,716,0,872.0,741.0,880.0,763.0
R,,214679.0,0.027,0.101,-0.081,20.1,30.1,18.1,527,716,0,877.0,743.0,881.0,764.0
R,,214740.0,0.055,0.132,-0.098,16.1,33.1,21.1,537,729,0,877.0,743.0,883.0,766.0
R,,214799.0,-0.028,0.196,-0.17,10.8,34.3,16.5,548,741,0,873.0,742.0,884.0,766.0
R,,214860.0,-0.218,0.174,-0.179,7.1,6.4,7.0,561,757,0,875.0,742.0,883.0,767.0
R,,214919.0,-0.067,0.255,-0.059,3.9,-14.2,5.1,605,762,0,874.0,743.0,886.0,769.0
R,,214979.0,-0.005,0.099,-0.04,8.8,2.4,-34.9,724,845,0,875.0,742.0,885.0,768.0
R,,215040.0,0.003,0.06,-0.051,-14.2,-10.7,-11.8,750,869,0,875.0,742.0,885.0,769.0
R,,215101.0,0.021,0.113,-0.09,7.9,2.0,-2.5,764,878,0,878.0,745.0,884.0,768.0
R,,215190.0,0.01,0.089,-0.054,-3.3,-3.9,-3.7,772,888,0,877.0,746.0,884.0,768.0
R,,215250.0,0.006,0.109,-0.068,-3.3,-2.4,-2.1,773,889,0,878.0,746.0,887.0,769.0
R,,215309.0,0.006,0.1,-0.061,-2.3,-0.1,-2.5,771,892,0,879.0,745.0,884.0,767.0
R,,215370.0,0.0,0.109,-0.068,-2.6,-3.3,-3.9,765,891,0,881.0,745.0,887.0,768.0
R,,215429.0,-0.005,0.113,-0.078,-1.9,-4.8,-3.2,746,895,0,878.0,748.0,888.0,770.0
R,,215490.0,0.005,0.137,-0.069,-7.1,-6.3,-5.0,713,894,0,878.0,745.0,886.0,769.0
R,,215549.0,0.017,0.168,-0.081,-10.6,-4.3,-9.3,687,896,0,879.0,747.0,887.0,771.0
R,,215610.0,0.091,0.208,-0.123,-19.4,-10.2,-12.4,622,895,0,882.0,749.0,889.0,771.0
R,,215669.0,0.002,0.193,-0.125,3.7,-4.7,-19.8,361,870,0,876.0,744.0,888.0,771.0
R,,215730.0,0.009,0.059,-0.02,-32.8,-7.0,0.0,511,714,0,877.0,745.0,886.0,772.0
R,,215791.0,0.017,-0.007,-0.003,6.3,0.2,3.8,534,734,0,877.0,745.0,886.0,772.0
R,,215849.0,0.035,0.03,0.0,14.8,11.2,16.1,534,728,0,878.0,746.0,888.0,772.0
R,,215909.0,0.043,0.069,-0.02,17.1,16.7,25.2,541,722,0,878.0,745.0,889.0,776.0
R,,215969.0,0.061,0.127,-0.068,21.8,26.8,29.7,548,726,0,882.0,745.0,888.0,775.0
R,,216030.0,0.017,0.236,-0.179,15.3,32.5,25.9,555,728,0,878.0,744.0,889.0,776.0
R,,216089.0,-0.217,0.208,-0.223,22.1,19.4,7.3,562,741,0,879.0,744.0,887.0,774.0
R,,216150.0,0.054,0.193,-0.068,12.6,-11.1,2.1,617,764,0,878.0,745.0,887.0,775.0
R,,216240.0,0.012,0.116,-0.114,-14.4,-2.7,-14.3,717,842,0,877.0,744.0,888.0,776.0
R,,216299.0,0.02,0.072,-0.016,-4.9,-2.4,-9.5,744,863,0,878.0,745.0,887.0,773.0
R,,216360.0,0.033,0.119,-0.088,7.3,-2.2,-8.7,764,878,0,878.0,746.0,889.0,773.0
R,,216419.0,0.015,0.083,-0.052,-5.1,-4.3,-7.1,772,889,0,877.0,746.0,887.0,774.0
R,,216480.0,0.01,0.109,-0.062,-6.3,-1.1,-6.2,770,890,0,880.0,748.0,888.0,776.0
R,,216541.0,0.004,0.099,-0.062,-2.2,-1.6,-3.5,765,895,0,878.0,745.0,886.0,775.0
R,,216599.0,0.008,0.119,-0.052,-1.9,-4.3,-4.4,749,895,0,880.0,747.0,892.0,779.0
R,,216660.0,0.0,0.116,-0.062,-4.4,-4.2,-4.7,727,898,0,879.0,746.0,889.0,777.0
R,,216719.0,0.0,0.132,-0.056,-8.5,-5.0,-5.3,679,900,0,879.0,747.0,888.0,775.0
R,,216780.0,0.021,0.154,-0.053,-11.8,-3.3,-8.2,665,897,0,878.0,748.0,889.0,776.0
R,,216839.0,0.073,0.201,-0.129,-13.3,-5.5,-11.2,571,895,0,878.0,748.0,888.0,777.0
R,,216900.0,0.022,0.192,-0.117,1.4,-0.8,-16.5,353,873,0,879.0,746.0,890.0,777.0
R,,216959.0,-0.002,0.053,0.031,-38.8,-3.6,-6.5,504,697,0,877.0,748.0,889.0,777.0
R,,217020.0,0.026,-0.012,0.026,-2.3,3.3,2.7,525,712,0,878.0,747.0,889.0,777.0
R,,217080.0,0.026,0.032,-0.017,5.7,15.1,15.5,526,702,0,878.0,748.0,888.0,776.0
R,,217139.0,0.026,0.083,-0.05,12.5,25.9,20.3,532,704,0,879.0,746.0,891.0,782.0
R,,217201.0,0.023,0.11,-0.128,17.3,36.4,21.1,544,714,0,879.0,746.0,888.0,777.0
R,,217290.0,-0.017,0.164,-0.188,24.4,31.7,12.9,555,721,0,880.0,748.0,889.0,778.0
R,,217349.0,-0.16,0.229,-0.158,2.9,11.1,9.3,557,733,0,878.0,747.0,890.0,778.0
R,,217410.0,-0.088,0.199,-0.037,-2.7,-5.4,1.0,597,734,0,880.0,747.0,891.0,777.0
R,,217469.0,0.066,0.176,-0.05,6.7,-12.8,-22.8,663,797,0,879.0,748.0,889.0,777.0
R,,217530.0,0.013,0.09,-0.085,-4.7,-7.1,-16.4,704,834,0,881.0,748.0,891.0,777.0
R,,217589.0,0.021,0.076,-0.056,1.7,-2.2,-11.5,731,852,0,881.0,747.0,887.0,778.0
R,,217650.0,0.026,0.115,-0.08,-4.6,-5.2,-6.3,752,867,0,880.0,747.0,890.0,780.0
R,,217709.0,0.008,0.092,-0.07,0.8,-3.1,-8.1,767,881,0,879.0,748.0,889.0,778.0
R,,217770.0,0.016,0.112,-0.069,-5.2,-2.9,-3.5,771,885,0,880.0,747.0,890.0,778.0
R,,217830.0,0.001,0.116,-0.08,-5.4,-2.2,-2.6,770,888,0,879.0,748.0,890.0,777.0
R,,217889.0,0.009,0.111,-0.066,-1.0,-0.5,-3.2,772,891,0,878.0,748.0,890.0,778.0
R,,217951.0,0.0,0.106,-0.067,-7.7,-3.4,-4.0,763,895,0,882.0,750.0,891.0,778.0
R,,218009.0,0.01,0.124,-0.058,-7.1,-4.3,-5.0,733,898,0,880.0,748.0,890.0,779.0
R,,218070.0,0.003,0.135,-0.078,-9.5,-3.2,-6.9,712,897,0,879.0,749.0,891.0,778.0
R,,218129.0,0.045,0.171,-0.088,-12.7,-3.0,-10.4,687,895,0,881.0,750.0,891.0,779.0
R,,218190.0,0.051,0.159,-0.151,-6.0,-7.4,-19.3,432,887,0,882.0,750.0,891.0,781.0
R,,218250.0,-0.006,0.108,-0.146,7.2,-25.4,-16.6,456,817,0,882.0,748.0,891.0,780.0
R,,218339.0,0.032,0.025,-0.002,-0.7,-3.8,-1.0,501,689,0,882.0,750.0,890.0,778.0
R,,218400.0,0.02,0.03,-0.004,19.3,0.6,10.9,511,699,0,883.0,749.0,890.0,780.0
R,,218459.0,0.014,0.078,-0.015,29.1,10.2,22.3,521,698,0,881.0,749.0,889.0,778.0
R,,218520.0,0.012,0.118,-0.05,22.7,10.9,22.8,531,707,0,882.0,748.0,891.0,778.0
R,,218580.0,-0.007,0.17,-0.105,27.8,16.5,25.8,543,721,0,879.0,748.0,889.0,778.0
R,,218639.0,-0.1,0.297,-0.11,14.8,8.3,22.2,565,747,0,879.0,747.0,890.0,780.0
R,,218701.0,-0.116,0.193,-0.043,9.6,-1.8,-7.5,583,737,0,879.0,748.0,891.0,778.0
R,,218759.0,0.038,0.082,-0.114,16.9,-7.7,-12.7,644,775,0,879.0,748.0,889.0,779.0
R,,218820.0,-0.015,0.026,-0.135,-12.8,-7.8,-10.7,691,808,0,879.0,748.0,889.0,778.0
R,,218879.0,0.012,0.052,-0.079,-3.3,-3.4,-6.6,709,821,0,879.0,747.0,891.0,778.0
R,,218940.0,0.01,0.078,-0.111,-1.8,-2.5,-3.5,721,832,0,879.0,747.0,889.0,778.0
R,,219000.0,0.0,0.074,-0.115,-8.1,-2.8,-1.3,733,842,0,879.0,748.0,890.0,777.0
R,,219060.0,0.004,0.078,-0.087,-3.7,-3.1,-2.1,744,852,0,879.0,748.0,890.0,779.0
R,,219120.0,0.004,0.09,-0.09,-7.1,-3.2,-0.1,759,870,0,880.0,747.0,893.0,783.0
R,,219179.0,-0.004,0.091,-0.101,-4.1,-3.8,-1.8,766,882,0,878.0,746.0,892.0,779.0
R,,219240.0,0.0,0.096,-0.078,-7.2,-4.2,-1.1,769,885,0,879.0,746.0,890.0,780.0
R,,219299.0,-0.001,0.1,-0.07,-2.4,-0.8,-4.6,769,889,0,884.0,749.0,890.0,780.0
R,,219391.0,0.004,0.137,-0.11,-12.7,-4.5,-5.8,730,898,0,879.0,748.0,889.0,780.0
R,,219450.0,0.025,0.187,-0.103,-10.4,-6.8,-12.1,705,899,0,881.0,749.0,892.0,778.0
R,,219540.0,0.003,0.116,-0.109,2.1,-18.0,-10.8,427,855,0,881.0,750.0,889.0,778.0
R,,219600.0,0.077,-0.03,-0.045,-11.4,-38.9,7.7,500,705,0,881.0,749.0,890.0,779.0
R,,219660.0,0.063,0.017,0.05,24.8,-7.9,4.5,497,707,0,880.0,749.0,892.0,784.0
R,,219719.0,0.046,0.066,0.004,25.1,-1.0,19.8,490,705,0,881.0,748.0,890.0,779.0
R,,219780.0,0.041,0.112,-0.032,23.8,-6.2,30.9,510,711,0,882.0,749.0,889.0,778.0
R,,219839.0,0.042,0.134,-0.026,36.8,12.6,28.3,529,721,0,881.0,748.0,890.0,778.0
R,,219900.0,-0.016,0.2,-0.123,19.1,3.8,28.8,536,729,0,882.0,750.0,892.0,778.0
R,,219959.0,-0.079,0.228,-0.079,1.9,-13.5,25.7,560,753,0,879.0,750.0,889.0,778.0
R,,220020.0,0.038,0.049,-0.084,10.3,-11.2,-12.4,616,769,0,881.0,748.0,888.0,778.0
R,,220080.0,-0.003,0.095,-0.135,-9.6,-13.4,-9.9,681,807,0,882.0,748.0,889.0,778.0
R,,220141.0,-0.005,0.04,-0.076,-10.3,-4.6,-4.4,717,832,0,881.0,750.0,887.0,778.0
R,,220200.0,0.0,0.073,-0.095,-5.5,-3.1,-2.8,728,839,0,882.0,750.0,888.0,779.0
R,,220259.0,0.0,0.065,-0.096,-7.7,-4.0,-0.8,739,848,0,880.0,748.0,888.0,779.0
R,,220319.0,-0.004,0.061,-0.093,-2.5,-0.7,-0.8,741,853,0,881.0,748.0,888.0,778.0
R,,220379.0,-0.005,0.069,-0.109,-7.4,-1.3,0.0,751,862,0,880.0,748.0,888.0,777.0
R,,220469.0,-0.007,0.096,-0.106,-8.9,-2.3,-1.7,761,875,0,879.0,746.0,887.0,778.0
R,,220530.0,0.007,0.124,-0.075,24.5,-4.6,-11.4,766,884,0,879.0,746.0,888.0,776.0
R,,220589.0,0.002,0.118,-0.106,-17.5,-6.0,-2.0,765,889,0,877.0,743.0,886.0,776.0
R,,220650.0,-0.013,0.12,-0.12,-5.0,-8.4,-3.4,733,894,0,876.0,739.0,885.0,774.0
R,,220709.0,-0.004,0.143,-0.091,-6.3,-7.8,-7.4,710,899,0,873.0,735.0,886.0,773.0
R,,220770.0,0.044,0.174,-0.165,-12.4,-7.8,-10.1,664,899,0,874.0,736.0,884.0,775.0
R,,220830.0,0.01,0.126,-0.109,0.2,-18.1,-6.4,417,860,0,875.0,739.0,885.0,776.0
R,,220891.0,0.02,0.158,-0.06,-20.7,-33.6,9.0,480,692,0,876.0,741.0,883.0,776.0
R,,220950.0,0.057,0.009,0.08,20.0,-8.5,6.1,497,712,0,876.0,739.0,886.0,776.0
R,,221009.0,0.057,0.057,0.043,17.1,-3.6,17.0,486,710,0,876.0,742.0,886.0,776.0
R,,221070.0,0.042,0.109,-0.037,20.8,-2.4,29.0,496,710,0,878.0,744.0,886.0,777.0
R,,221129.0,0.074,0.161,0.022,20.0,2.2,29.9,523,719,0,881.0,748.0,886.0,777.0
R,,221190.0,0.05,0.223,-0.104,25.1,22.1,23.8,526,725,0,878.0,744.0,886.0,777.0
R,,221250.0,-0.132,0.198,-0.151,10.8,-0.1,22.4,539,746,0,878.0,744.0,889.0,777.0
R,,221310.0,-0.058,0.189,-0.048,-2.0,-13.2,3.6,553,745,0,880.0,746.0,889.0,777.0
R,,221370.0,0.054,0.158,-0.178,14.2,-17.4,-15.7,654,795,0,881.0,745.0,889.0,777.0
R,,221430.0,-0.016,0.065,-0.132,-11.9,-5.8,-13.1,715,832,0,881.0,747.0,890.0,779.0
R,,221490.0,0.011,0.069,-0.084,-9.4,-2.6,-4.0,739,849,0,879.0,746.0,889.0,777.0
R,,221551.0,0.003,0.079,-0.102,-3.9,-0.8,-2.2,756,869,0,879.0,745.0,889.0,778.0
R,,221609.0,0.005,0.068,-0.068,-5.8,-2.7,-1.5,761,876,0,882.0,748.0,887.0,777.0
R,,221669.0,0.015,0.077,-0.075,0.3,-3.6,-3.5,764,880,0,883.0,749.0,888.0,778.0
R,,221730.0,-0.001,0.077,-0.047,-7.2,-6.2,-2.6,767,882,0,880.0,750.0,892.0,780.0
R,,221790.0,-0.004,0.098,-0.08,-0.2,-4.2,-3.3,770,886,0,883.0,750.0,890.0,776.0
R,,221850.0,0.005,0.12,-0.082,-7.5,-5.2,-3.1,768,890,0,884.0,749.0,888.0,777.0
R,,221910.0,-0.004,0.102,-0.076,0.0,-6.5,-4.7,764,898,0,883.0,751.0,892.0,779.0
R,,221970.0,0.001,0.131,-0.096,-12.2,-9.9,-6.0,728,895,0,883.0,751.0,889.0,776.0
R,,222030.0,0.005,0.156,-0.12,-12.2,-1.8,-11.0,688,896,0,884.0,751.0,890.0,778.0
R,,222089.0,0.075,0.176,-0.15,-9.3,-13.5,-14.3,564,895,0,886.0,752.0,888.0,779.0
R,,222150.0,-0.026,0.203,-0.082,-5.7,-21.8,-13.7,428,820,0,883.0,752.0,891.0,778.0
R,,222209.0,0.074,-0.039,-0.022,-9.5,-26.7,6.2,491,713,0,887.0,755.0,889.0,777.0
R,,222271.0,0.041,0.007,-0.002,16.8,-3.2,8.2,508,719,0,885.0,751.0,894.0,780.0
R,,222330.0,0.043,0.045,-0.002,22.6,7.4,19.4,491,705,0,883.0,752.0,889.0,776.0
R,,222390.0,0.047,0.103,-0.055,22.0,8.7,28.8,505,711,0,883.0,752.0,891.0,774.0
R,,222450.0,0.064,0.162,-0.118,32.3,26.7,33.5,523,721,0,883.0,752.0,889.0,777.0
R,,222509.0,-0.037,0.278,-0.084,7.3,11.8,30.8,528,729,0,885.0,750.0,889.0,778.0
R,,222570.0,-0.234,0.245,-0.081,10.5,-1.9,-0.4,540,727,0,882.0,753.0,891.0,778.0
R,,222629.0,0.202,0.088,-0.077,9.4,-8.7,8.1,609,754,0,882.0,750.0,890.0,777.0
R,,222690.0,-0.008,0.076,-0.148,14.6,-4.0,-28.1,697,812,0,884.0,749.0,889.0,777.0
R,,222750.0,0.0,0.058,-0.054,-24.5,-9.2,-5.4,732,842,0,882.0,750.0,887.0,778.0
R,,222810.0,0.006,0.092,-0.103,-4.5,-1.4,-4.4,756,867,0,884.0,749.0,891.0,781.0
R,,222870.0,-0.002,0.063,-0.057,1.8,-0.1,-4.2,766,879,0,883.0,751.0,887.0,777.0
R,,222959.0,0.006,0.108,-0.115,-8.1,-2.8,-1.6,769,884,0,881.0,750.0,887.0,778.0
R,,223021.0,-0.011,0.095,-0.089,-4.3,-1.5,-2.5,770,890,0,881.0,749.0,887.0,778.0
R,,223080.0,0.0,0.11,-0.068,-6.0,-5.6,-3.7,766,891,0,879.0,748.0,887.0,778.0
R,,223140.0,-0.004,0.102,-0.072,-5.4,-6.3,-3.2,745,894,0,879.0,748.0,885.0,775.0
R,,223200.0,0.0,0.139,-0.078,-4.7,-4.6,-7.4,701,900,0,879.0,749.0,882.0,773.0
R,,223260.0,0.015,0.157,-0.1,-8.9,-5.8,-11.6,674,896,0,879.0,748.0,880.0,771.0
R,,223320.0,0.093,0.184,-0.143,-13.0,-14.8,-16.3,487,893,0,879.0,745.0,880.0,772.0
R,,223379.0,-0.025,0.104,-0.159,13.3,-19.1,-20.5,472,757,0,877.0,746.0,882.0,769.0
R,,223439.0,0.09,0.024,0.0,1.7,-24.4,5.3,495,696,0,876.0,744.0,882.0,772.0
R,,223500.0,0.058,0.026,0.034,18.5,-6.3,8.2,516,708,0,879.0,744.0,884.0,773.0
R,,223560.0,0.04,0.054,-0.018,24.5,7.6,20.4,510,707,0,876.0,744.0,884.0,773.0
R,,223620.0,0.034,0.122,-0.076,26.7,6.7,31.0,527,712,0,875.0,742.0,883.0,775.0
R,,223681.0,0.04,0.155,-0.091,35.9,30.1,32.5,541,721,0,877.0,742.0,884.0,775.0
R,,223740.0,-0.039,0.266,-0.1,6.5,3.0,31.6,540,735,0,876.0,740.0,883.0,775.0
R,,223799.0,-0.169,0.259,-0.041,12.5,-7.0,8.2,555,751,0,876.0,740.0,884.0,775.0
R,,223860.0,0.155,0.058,-0.091,14.8,-11.0,8.1,621,768,0,875.0,740.0,887.0,775.0
R,,223919.0,-0.019,0.067,-0.15,6.6,-7.0,-21.9,697,814,0,877.0,741.0,885.0,777.0
R,,223980.0,0.003,0.055,-0.091,-33.0,-8.1,-3.4,724,838,0,876.0,743.0,887.0,776.0
R,,224040.0,0.011,0.075,-0.093,-10.1,-3.4,-5.4,752,863,0,876.0,743.0,884.0,776.0
R,,224100.0,-0.002,0.072,-0.097,-13.8,-4.0,-0.9,764,875,0,877.0,744.0,889.0,780.0
R,,224160.0,0.001,0.085,-0.09,-10.7,-4.3,-2.1,771,884,0,877.0,743.0,889.0,780.0
R,,224220.0,-0.006,0.078,-0.085,-5.0,-1.8,-4.6,771,890,0,879.0,746.0,888.0,778.0
R,,224280.0,-0.011,0.088,-0.09,-6.5,-3.4,-2.6,767,894,0,879.0,745.0,884.0,779.0
R,,224339.0,-0.008,0.097,-0.075,-2.8,-5.8,-3.2,752,894,0,878.0,743.0,887.0,779.0
R,,224401.0,-0.012,0.114,-0.083,-7.3,-5.5,-3.2,730,895,0,878.0,745.0,885.0,775.0
R,,224459.0,-0.006,0.134,-0.098,-5.9,-7.7,-7.6,696,896,0,876.0,744.0,888.0,778.0
R,,224520.0,0.016,0.174,-0.127,-10.4,-9.6,-11.5,668,896,0,875.0,740.0,884.0,775.0
R,,224580.0,0.017,0.142,-0.175,-5.9,-24.9,-9.7,373,884,0,854.0,708.0,875.0,768.0
R,,224640.0,0.021,-0.039,-0.175,6.5,-36.8,6.4,489,673,0,826.0,656.0,867.0,758.0
R,,224700.0,0.089,0.04,0.088,12.6,-22.7,2.1,525,719,0,796.0,613.0,860.0,751.0
R,,224760.0,0.057,0.054,0.033,23.6,-5.0,12.7,509,708,0,782.0,596.0,853.0,747.0
R,,224820.0,0.045,0.102,-0.002,24.5,-3.3,23.7,507,707,0,778.0,591.0,847.0,743.0
R,,224879.0,0.048,0.139,-0.032,24.2,-5.1,31.7,537,724,0,778.0,590.0,854.0,748.0
R,,224940.0,0.034,0.18,-0.108,29.0,19.0,29.8,551,734,0,773.0,588.0,853.0,747.0
R,,225000.0,-0.045,0.255,-0.028,2.8,-3.7,25.7,560,745,0,777.0,591.0,854.0,749.0
R,,225061.0,-0.123,0.195,-0.041,0.0,-1.8,-5.2,564,747,0,782.0,596.0,854.0,747.0
R,,225120.0,0.051,0.207,-0.216,32.8,-6.2,-20.7,665,793,0,787.0,597.0,856.0,748.0
R,,225180.0,-0.032,0.021,-0.129,-22.4,-8.6,-7.9,718,834,0,782.0,594.0,862.0,753.0
R,,225240.0,0.0,0.079,-0.117,-0.8,3.0,-3.9,747,862,0,769.0,608.0,879.0,767.0
R,,225300.0,0.005,0.089,-0.105,-15.7,-4.2,0.5,761,873,0,827.0,682.0,885.0,748.0
R,,225360.0,-0.013,0.094,-0.098,-8.7,-3.8,-2.0,765,879,0,847.0,710.0,836.0,644.0
R,,225419.0,0.002,0.11,-0.094,-11.4,-3.7,0.0,770,882,0,853.0,721.0,732.0,570.0
R,,225480.0,0.006,0.099,-0.081,-3.8,-3.0,-2.5,771,887,0,863.0,733.0,708.0,543.0
R,,225539.0,0.002,0.088,-0.059,-3.4,-2.8,-2.6,767,889,0,877.0,741.0,707.0,551.0
R,,225600.0,-0.002,0.101,-0.073,-4.8,-4.1,-1.9,768,893,0,880.0,744.0,729.0,575.0
R,,225660.0,0.001,0.112,-0.077,-3.3,-5.6,-3.6,756,896,0,882.0,747.0,730.0,583.0
R,,225720.0,0.01,0.138,-0.071,-9.9,-7.9,-6.5,717,893,0,884.0,745.0,736.0,589.0
R,,225782.0,0.017,0.176,-0.104,-14.4,-6.9,-11.6,686,899,0,886.0,740.0,736.0,589.0
R,,225840.0,0.063,0.151,-0.149,-9.7,-18.3,-15.0,471,889,0,881.0,726.0,742.0,591.0
R,,225900.0,-0.034,0.063,-0.177,13.7,-26.0,-14.0,465,671,0,876.0,680.0,745.0,591.0
R,,225959.0,0.072,0.035,0.016,4.0,-18.1,0.8,507,705,0,885.0,626.0,751.0,612.0
R,,226019.0,0.057,0.048,0.015,17.0,-13.2,8.9,499,700,0,880.0,544.0,777.0,640.0
R,,226080.0,0.06,0.066,0.003,25.6,1.6,20.4,511,709,0,827.0,434.0,821.0,702.0
R,,226140.0,0.045,0.112,-0.061,25.5,-4.3,31.2,536,719,0,749.0,505.0,853.0,740.0
R,,226200.0,0.062,0.143,-0.026,38.6,25.1,29.2,551,728,0,715.0,479.0,884.0,774.0
R,,226260.0,-0.057,0.268,-0.045,6.7,3.2,22.8,558,744,0,691.0,467.0,899.0,781.0
R,,226320.0,-0.175,0.21,-0.012,-0.2,-7.8,-4.1,567,748,0,724.0,491.0,900.0,770.0
R,,226379.0,0.045,0.196,-0.182,26.5,-7.9,-22.6,668,793,0,736.0,507.0,897.0,756.0
R,,226440.0,-0.02,0.069,-0.143,-46.6,-14.6,-7.2,716,827,0,748.0,514.0,899.0,750.0
R,,226501.0,0.001,0.078,-0.092,-13.7,-2.9,-3.8,745,860,0,796.0,548.0,900.0,738.0
R,,226560.0,0.002,0.108,-0.092,-5.8,-0.4,-3.2,760,876,0,796.0,548.0,898.0,722.0
R,,226620.0,-0.008,0.092,-0.077,-0.9,1.2,-1.5,766,881,0,853.0,661.0,895.0,706.0
R,,226680.0,0.002,0.094,-0.077,-5.3,-1.1,0.7,766,883,0,869.0,712.0,891.0,699.0
R,,226740.0,-0.007,0.098,-0.073,-0.9,-0.8,-1.3,767,883,0,876.0,731.0,884.0,699.0
R,,226800.0,0.002,0.101,-0.076,-3.8,-1.5,-1.2,768,885,0,875.0,733.0,882.0,688.0
R,,226860.0,0.006,0.113,-0.068,-9.3,-4.7,-3.6,769,892,0,875.0,735.0,880.0,688.0
R,,226919.0,0.005,0.174,-0.107,-10.3,-10.3,-7.7,736,892,0,879.0,736.0,880.0,692.0
R,,226980.0,0.037,0.203,-0.136,-16.8,-6.3,-12.3,651,893,0,881.0,738.0,883.0,692.0
R,,227040.0,0.044,0.148,-0.166,-5.6,-20.3,-20.3,346,876,0,878.0,738.0,883.0,687.0
R,,227100.0,0.05,0.009,-0.027,-22.6,-41.4,1.5,477,656,0,883.0,743.0,888.0,678.0
R,,227162.0,0.052,0.007,0.012,6.4,-17.7,-0.5,518,705,0,885.0,744.0,888.0,664.0
R,,227220.0,0.05,0.03,-0.01,27.4,-2.1,10.8,523,704,0,887.0,744.0,891.0,657.0
R,,227280.0,0.071,0.08,0.0,28.5,-1.5,23.6,524,703,0,888.0,745.0,891.0,658.0
R,,227370.0,0.059,0.178,-0.034,30.2,10.2,25.3,546,719,0,886.0,746.0,890.0,653.0
R,,227430.0,-0.084,0.299,-0.182,21.1,15.2,22.8,558,733,0,886.0,746.0,892.0,650.0
R,,227490.0,-0.197,0.259,-0.044,7.8,-2.7,0.5,571,757,0,877.0,739.0,891.0,652.0
R,,227550.0,0.039,0.356,-0.074,13.4,-9.3,-19.9,678,802,0,872.0,732.0,893.0,661.0
R,,227610.0,-0.025,0.045,-0.06,-34.7,-16.5,-7.2,721,831,0,864.0,727.0,889.0,670.0
R,,227669.0,-0.001,0.056,-0.07,-3.7,-0.6,-4.0,738,850,0,862.0,728.0,891.0,659.0
R,,227730.0,-0.011,0.065,-0.1,-4.2,-1.7,-3.0,754,865,0,866.0,731.0,896.0,571.0
R,,227790.0,-0.004,0.084,-0.078,-1.9,0.3,-0.2,760,875,0,868.0,734.0,880.0,461.0
R,,227850.0,-0.006,0.083,-0.08,-3.7,-0.2,-0.5,766,882,0,875.0,742.0,824.0,556.0
R,,227912.0,-0.001,0.087,-0.083,-2.1,-2.1,-2.2,766,883,0,881.0,746.0,747.0,554.0
R,,227970.0,-0.005,0.097,-0.096,-5.2,-0.4,-2.3,768,888,0,880.0,745.0,736.0,554.0
R,,228030.0,-0.004,0.107,-0.065,-4.7,-7.2,-3.9,762,893,0,880.0,743.0,715.0,546.0
R,,228090.0,0.0,0.134,-0.112,-15.4,-9.3,-5.3,724,891,0,879.0,745.0,713.0,542.0
R,,228150.0,0.019,0.173,-0.12,-11.8,-6.4,-11.7,710,900,0,873.0,736.0,731.0,553.0
R,,228209.0,0.097,0.17,-0.2,-12.3,-15.5,-14.1,560,890,0,843.0,693.0,742.0,564.0
R,,228270.0,-0.012,0.097,-0.138,1.3,-26.1,-13.0,465,703,0,888.0,668.0,747.0,560.0
R,,228330.0,0.103,0.038,0.028,0.8,-31.9,6.4,503,705,0,883.0,626.0,736.0,608.0
R,,228390.0,0.08,0.051,0.048,20.9,-8.9,6.5,491,698,0,880.0,572.0,736.0,608.0
R,,228450.0,0.051,0.061,-0.003,24.5,1.5,20.4,494,692,0,841.0,364.0,800.0,664.0
R,,228510.0,0.058,0.097,-0.03,24.0,2.5,30.5,520,703,0,708.0,445.0,835.0,714.0
R,,228570.0,0.046,0.155,-0.053,32.3,8.2,27.3,536,718,0,708.0,446.0,847.0,728.0
R,,228631.0,-0.067,0.302,-0.17,2.5,-14.7,34.4,544,738,0,702.0,446.0,858.0,741.0
R,,228690.0,-0.106,0.275,0.044,-1.7,-14.3,5.8,559,751,0,699.0,447.0,866.0,749.0
R,,228750.0,0.143,0.362,-0.245,33.0,-1.5,-2.9,658,786,0,710.0,461.0,874.0,758.0
R,,228810.0,-0.041,0.055,-0.229,-22.3,-10.3,-8.1,721,832,0,696.0,453.0,881.0,763.0
R,,228870.0,-0.02,0.068,-0.098,-1.6,1.2,-1.7,743,858,0,698.0,441.0,885.0,763.0
R,,228930.0,0.008,0.089,-0.089,-16.5,-4.4,0.0,759,872,0,690.0,434.0,888.0,764.0
R,,228990.0,-0.018,0.074,-0.097,-2.8,0.0,-0.9,764,881,0,723.0,479.0,893.0,761.0
R,,229050.0,0.001,0.083,-0.083,-2.5,-0.1,-0.7,766,882,0,783.0,612.0,895.0,721.0
R,,229110.0,0.0,0.115,-0.082,-24.7,-6.4,2.3,772,888,0,832.0,686.0,900.0,679.0
R,,229170.0,-0.014,0.13,-0.152,-9.0,-5.1,-1.5,766,891,0,845.0,709.0,898.0,572.0
R,,229230.0,-0.006,0.098,-0.086,0.7,-3.5,-3.9,762,892,0,857.0,724.0,866.0,293.0
R,,229291.0,0.003,0.135,-0.081,-7.9,-8.9,-4.8,730,895,0,865.0,734.0,604.0,402.0
R,,229350.0,0.007,0.154,-0.088,-6.9,-5.7,-10.0,711,899,0,874.0,741.0,683.0,461.0
R,,229410.0,0.044,0.173,-0.167,-10.5,-9.0,-14.2,660,900,0,880.0,745.0,688.0,502.0
R,,229470.0,0.037,0.165,-0.136,-4.3,-19.6,-6.6,357,864,0,880.0,745.0,687.0,503.0
R,,229530.0,0.0,0.146,-0.097,-17.3,-28.6,-5.5,460,679,0,883.0,745.0,700.0,526.0
R,,229590.0,0.059,0.013,0.022,15.7,-20.8,-3.3,473,694,0,881.0,739.0,709.0,534.0
R,,229650.0,0.073,0.043,0.055,17.9,-4.6,14.8,488,695,0,878.0,715.0,714.0,533.0
R,,229710.0,0.033,0.062,-0.035,26.5,8.2,24.1,476,694,0,879.0,643.0,733.0,603.0
R,,229770.0,0.051,0.123,-0.045,22.6,5.3,34.0,511,709,0,883.0,587.0,795.0,656.0
R,,229830.0,0.021,0.232,-0.129,32.2,26.5,32.9,532,727,0,879.0,346.0,831.0,710.0
R,,229890.0,-0.099,0.282,-0.061,5.3,2.3,20.8,552,751,0,734.0,452.0,848.0,730.0
R,,229950.0,-0.139,0.247,-0.01,-9.4,-3.7,-7.4,555,749,0,722.0,466.0,868.0,751.0
R,,230011.0,0.054,0.212,-0.021,-4.4,-20.6,-16.1,690,806,0,698.0,452.0,881.0,763.0
R,,230070.0,-0.026,0.049,-0.075,-23.4,-10.4,-10.1,728,840,0,688.0,448.0,886.0,764.0
R,,230130.0,-0.005,0.061,-0.111,-6.1,1.0,-2.5,745,856,0,697.0,450.0,893.0,764.0
R,,230190.0,0.002,0.08,-0.088,-9.8,-5.8,-2.2,760,870,0,701.0,454.0,891.0,752.0
R,,230250.0,0.0,0.083,-0.078,-0.8,-2.7,-3.6,764,879,0,702.0,462.0,896.0,735.0
R,,230310.0,0.014,0.106,-0.124,-18.0,-1.5,2.4,767,884,0,716.0,467.0,901.0,696.0
R,,230370.0,0.017,0.097,-0.068,11.9,0.3,-7.2,766,889,0,788.0,623.0,900.0,694.0
R,,230430.0,0.004,0.103,-0.083,-26.6,-7.9,2.2,759,893,0,788.0,623.0,902.0,621.0
R,,230490.0,0.0,0.115,-0.115,-3.0,-3.2,-4.2,732,897,0,840.0,692.0,902.0,621.0
R,,230550.0,0.002,0.14,-0.083,-5.1,-6.3,-9.0,713,900,0,856.0,724.0,902.0,194.0
R,,230610.0,0.035,0.171,-0.122,-10.6,-8.2,-14.4,680,899,0,866.0,734.0,705.0,476.0
R,,230670.0,0.07,0.21,-0.135,-9.6,-18.3,-8.9,384,890,0,871.0,740.0,716.0,503.0
R,,230732.0,0.022,-0.063,-0.206,17.7,-20.5,-1.9,428,643,0,875.0,743.0,718.0,529.0
R,,230790.0,0.07,0.027,0.027,6.9,-21.5,3.1,480,700,0,882.0,748.0,719.0,534.0
R,,230850.0,0.052,0.039,0.026,18.8,-9.8,12.2,491,694,0,884.0,745.0,724.0,546.0
R,,230910.0,0.047,0.077,0.002,23.2,3.1,23.3,484,693,0,885.0,734.0,734.0,561.0
R,,231000.0,0.052,0.117,-0.014,20.3,4.4,31.1,515,708,0,884.0,675.0,741.0,564.0
R,,231060.0,0.04,0.21,-0.031,31.6,29.5,25.6,520,705,0,886.0,633.0,758.0,628.0
R,,231120.0,-0.174,0.241,-0.074,0.3,-1.0,14.4,537,728,0,863.0,565.0,794.0,655.0
R,,231180.0,-0.007,0.053,-0.182,31.6,-20.2,-4.3,594,744,0,861.0,309.0,830.0,707.0
R,,231240.0,-0.016,0.234,-0.041,18.5,-6.6,-29.6,690,805,0,768.0,446.0,845.0,729.0
R,,231330.0,-0.006,0.088,-0.114,-10.4,0.0,-4.4,743,853,0,691.0,459.0,857.0,744.0
R,,231390.0,0.01,0.097,-0.076,-7.2,-0.8,-4.3,758,872,0,699.0,460.0,872.0,757.0
R,,231452.0,0.009,0.072,-0.061,-6.6,-2.6,-3.9,767,883,0,681.0,445.0,879.0,768.0
R,,231510.0,0.007,0.103,-0.077,-8.6,-5.0,-2.4,767,888,0,688.0,444.0,886.0,772.0
R,,231570.0,0.001,0.098,-0.042,-7.6,-3.9,-3.0,763,890,0,688.0,444.0,891.0,772.0
R,,231630.0,-0.007,0.12,-0.099,-3.3,-5.2,-4.3,756,894,0,715.0,468.0,898.0,756.0
R,,231690.0,-0.011,0.095,-0.048,-1.9,-3.6,-4.0,740,901,0,711.0,466.0,898.0,703.0
R,,231750.0,0.016,0.153,-0.085,-12.2,-8.7,-7.3,699,897,0,777.0,603.0,893.0,681.0
R,,231810.0,0.031,0.166,-0.13,-9.2,-3.9,-11.6,680,898,0,834.0,684.0,895.0,536.0
R,,231870.0,0.091,0.174,-0.107,-13.3,-15.5,-7.0,411,894,0,848.0,709.0,866.0,293.0
R,,231930.0,0.0,0.11,-0.16,0.9,-17.3,-16.5,433,690,0,855.0,723.0,703.0,509.0
R,,232020.0,0.02,-0.005,0.001,11.2,-7.0,1.2,488,706,0,869.0,737.0,703.0,524.0
R,,232080.0,0.034,0.008,0.038,15.6,-3.2,12.6,510,719,0,878.0,742.0,707.0,532.0
R,,232170.0,0.015,0.08,-0.052,23.8,19.5,24.8,526,723,0,881.0,744.0,715.0,549.0
R,,232232.0,0.03,0.126,-0.062,19.0,13.8,28.7,537,728,0,883.0,745.0,723.0,553.0
R,,232291.0,0.012,0.21,-0.078,27.9,19.1,28.0,534,729,0,883.0,737.0,730.0,557.0
R,,232350.0,-0.122,0.297,-0.064,2.2,-1.0,14.0,532,740,0,879.0,674.0,733.0,564.0
R,,232410.0,-0.051,0.216,-0.055,-8.0,-1.8,-13.8,561,721,0,877.0,632.0,745.0,613.0
R,,232470.0,0.023,0.118,-0.112,3.0,-21.6,-13.6,648,785,0,870.0,546.0,784.0,642.0
R,,232560.0,-0.003,0.027,-0.076,-8.2,-4.2,-12.0,719,829,0,860.0,319.0,827.0,698.0
R,,232620.0,0.018,0.092,-0.078,-12.0,-3.6,-4.1,746,855,0,689.0,444.0,846.0,723.0
R,,232680.0,0.016,0.08,-0.073,-13.5,-4.3,-4.2,759,872,0,675.0,453.0,846.0,723.0
R,,232740.0,0.009,0.094,-0.086,-8.0,-0.4,-1.0,766,882,0,675.0,458.0,867.0,753.0
R,,232800.0,0.024,0.122,-0.021,2.5,-8.2,-8.9,766,887,0,691.0,465.0,878.0,761.0
R,,232860.0,-0.013,0.103,-0.086,-4.6,-3.7,-3.3,763,888,0,698.0,464.0,888.0,772.0
R,,232921.0,0.001,0.108,-0.072,-3.9,-4.8,-3.7,739,894,0,707.0,466.0,893.0,771.0
R,,232980.0,0.002,0.129,-0.089,-9.8,-8.0,-6.5,701,902,0,707.0,466.0,899.0,727.0
R,,233041.0,0.019,0.154,-0.076,-9.4,-4.2,-11.8,685,897,0,711.0,478.0,898.0,696.0
R,,233100.0,0.062,0.181,-0.106,-19.0,-16.2,-11.3,595,895,0,750.0,520.0,900.0,637.0
R,,233160.0,-0.007,0.236,-0.067,-2.9,-14.5,-19.0,340,859,0,816.0,657.0,903.0,370.0
R,,233220.0,0.053,-0.018,-0.061,-18.5,-20.8,-5.2,471,692,0,838.0,700.0,854.0,371.0
R,,233280.0,0.034,-0.018,0.015,10.1,-6.9,4.6,510,712,0,843.0,710.0,854.0,371.0
R,,233340.0,0.023,0.025,-0.017,20.3,1.3,17.6,518,718,0,857.0,724.0,708.0,506.0
R,,233400.0,0.041,0.1,-0.017,21.5,11.1,27.8,525,713,0,870.0,737.0,700.0,525.0
R,,233460.0,0.033,0.123,-0.019,18.6,14.5,28.2,540,719,0,876.0,743.0,703.0,537.0
R,,233520.0,0.015,0.19,-0.104,24.1,23.9,27.2,556,742,0,879.0,742.0,706.0,541.0
R,,233581.0,-0.15,0.267,-0.178,16.7,16.5,21.5,556,748,0,879.0,742.0,714.0,552.0
R,,233642.0,-0.188,0.273,-0.047,-7.2,-11.2,-4.6,554,738,0,884.0,744.0,730.0,574.0
R,,233700.0,0.067,0.174,-0.13,5.7,-25.7,-17.0,633,776,0,876.0,718.0,744.0,582.0
R,,233760.0,-0.005,0.066,-0.137,-6.8,-1.5,-23.1,705,822,0,876.0,652.0,756.0,625.0
R,,233819.0,-0.002,0.057,-0.086,-6.9,-2.3,-11.4,736,846,0,890.0,633.0,807.0,660.0
R,,233880.0,0.022,0.109,-0.082,1.6,-0.8,-5.5,755,867,0,880.0,536.0,835.0,705.0
R,,233940.0,0.01,0.08,-0.067,-5.8,-4.7,-3.7,764,879,0,830.0,398.0,835.0,705.0
R,,234000.0,-0.011,0.087,-0.082,-8.9,-3.1,-2.1,770,884,0,731.0,491.0,851.0,733.0
R,,234060.0,-0.011,0.098,-0.068,6.3,5.3,-5.1,770,888,0,711.0,484.0,861.0,748.0
R,,234121.0,0.001,0.098,-0.076,-5.6,-4.8,-3.0,763,892,0,657.0,433.0,882.0,767.0
R,,234180.0,-0.011,0.118,-0.068,-2.2,-5.6,-5.0,748,893,0,597.0,392.0,888.0,774.0
R,,234240.0,-0.002,0.139,-0.076,-7.0,-7.3,-7.4,705,900,0,682.0,463.0,891.0,767.0
R,,234299.0,0.018,0.15,-0.083,-9.9,-5.1,-10.7,692,897,0,675.0,461.0,900.0,744.0
R,,234362.0,0.058,0.18,-0.097,-19.7,-12.8,-10.7,609,898,0,,,,
R,,234420.0,0.062,0.197,-0.098,-1.2,-9.0,-16.8,233,872,0,730.0,500.0,900.0,744.0
R,,234480.0,-0.028,0.127,-0.056,-23.0,-22.6,-2.0,474,691,0,830.0,681.0,900.0,553.0
R,,234541.0,0.042,0.025,0.018,3.8,-10.2,2.3,497,711,0,850.0,714.0,881.0,144.0
R,,234600.0,0.032,0.014,0.004,14.0,-2.1,14.2,514,717,0,860.0,725.0,672.0,485.0
R,,234660.0,0.033,0.066,-0.008,20.8,7.5,24.0,522,710,0,863.0,733.0,709.0,530.0
R,,234720.0,0.041,0.127,-0.041,19.3,5.5,30.5,529,706,0,868.0,737.0,699.0,538.0
R,,234780.0,0.08,0.169,-0.079,27.6,21.0,31.9,549,726,0,878.0,742.0,707.0,550.0
R,,234840.0,-0.034,0.317,-0.099,10.3,19.9,28.2,539,726,0,882.0,746.0,697.0,543.0
R,,234900.0,-0.245,0.299,-0.114,-3.7,-9.2,5.2,558,745,0,881.0,737.0,717.0,564.0
R,,234960.0,0.426,-0.016,-0.165,15.3,-4.7,12.7,617,756,0,879.0,692.0,730.0,577.0
R,,235022.0,0.019,0.218,-0.11,13.0,-7.8,-24.7,681,802,0,887.0,652.0,739.0,580.0
R,,235081.0,0.008,0.07,-0.135,-29.8,-12.5,-9.3,722,831,0,881.0,621.0,764.0,635.0
R,,235140.0,-0.012,0.072,-0.093,-10.0,-2.3,-7.0,748,859,0,876.0,521.0,812.0,674.0
R,,235200.0,0.007,0.088,-0.108,-7.8,-1.4,-1.5,765,878,0,724.0,366.0,834.0,705.0
R,,235260.0,-0.005,0.083,-0.081,-7.2,-0.9,-3.0,771,884,0,701.0,464.0,854.0,734.0
R,,235320.0,-0.005,0.07,-0.124,-9.5,-2.5,1.1,771,890,0,686.0,464.0,867.0,753.0
R,,235380.0,0.003,0.122,-0.1,0.5,1.4,-3.1,767,894,0,696.0,468.0,879.0,765.0
R,,235440.0,0.004,0.119,-0.071,-4.2,-6.3,-3.4,756,896,0,649.0,428.0,889.0,769.0
R,,235500.0,-0.002,0.124,-0.087,-7.2,-5.2,-2.4,737,897,0,658.0,440.0,897.0,766.0
R,,235560.0,-0.002,0.128,-0.09,-5.2,-5.9,-7.1,703,901,0,625.0,422.0,897.0,745.0
R,,235621.0,0.014,0.161,-0.09,-11.4,-6.5,-11.6,678,895,0,607.0,415.0,900.0,719.0
R,,235680.0,0.058,0.169,-0.159,-10.2,-12.7,-13.1,507,891,0,607.0,415.0,899.0,706.0
R,,235742.0,-0.017,0.189,-0.111,2.6,-21.0,-17.0,409,840,0,780.0,595.0,900.0,637.0
R,,235800.0,0.068,0.008,-0.012,-9.4,-26.9,-1.4,495,694,0,827.0,671.0,905.0,250.0
R,,235860.0,0.029,0.011,0.032,9.0,-2.8,4.6,505,704,0,853.0,718.0,852.0,372.0
R,,235950.0,0.037,0.054,0.012,19.9,4.7,20.4,518,702,0,875.0,742.0,697.0,490.0
R,,236010.0,0.035,0.118,-0.06,25.5,11.2,29.0,535,708,0,878.0,744.0,703.0,515.0
R,,236070.0,0.03,0.161,-0.047,23.0,12.3,29.9,548,723,0,882.0,745.0,703.0,528.0
R,,236161.0,-0.067,0.26,-0.091,14.1,6.9,23.2,568,752,0,883.0,746.0,702.0,543.0
R,,236220.0,-0.15,0.26,-0.026,1.7,-4.1,-1.2,575,760,0,885.0,737.0,717.0,553.0
R,,236280.0,0.075,0.326,-0.119,-1.0,-23.8,-6.7,620,760,0,884.0,678.0,725.0,555.0
R,,236340.0,0.005,0.061,-0.105,-6.4,-4.5,-14.9,686,802,0,888.0,634.0,742.0,604.0
R,,236400.0,0.011,0.073,-0.079,-12.6,-3.5,-7.8,721,832,0,889.0,615.0,788.0,654.0
R,,236460.0,0.007,0.101,-0.085,-4.0,-1.6,-5.9,752,864,0,866.0,449.0,828.0,702.0
R,,236522.0,-0.012,0.077,-0.092,-5.0,-1.6,-3.1,767,881,0,794.0,331.0,846.0,728.0
R,,236581.0,-0.002,0.082,-0.066,-2.1,0.1,-1.5,772,887,0,671.0,438.0,864.0,752.0
R,,236640.0,0.07,0.134,-0.085,-28.5,-7.2,1.6,771,892,0,710.0,486.0,875.0,762.0
R,,236701.0,-0.006,0.106,-0.084,-2.0,-4.4,-2.6,762,891,0,696.0,468.0,887.0,770.0
R,,236760.0,-0.007,0.112,-0.09,-5.5,-7.1,-3.3,750,894,0,696.0,468.0,891.0,773.0
R,,236820.0,-0.006,0.116,-0.074,-1.3,-4.2,-6.7,734,893,0,663.0,453.0,895.0,770.0
R,,236879.0,-0.001,0.134,-0.098,-6.8,-7.2,-7.7,706,898,0,703.0,484.0,895.0,750.0
R,,236940.0,0.002,0.15,-0.102,-9.9,-5.0,-10.3,692,897,0,713.0,483.0,899.0,724.0
R,,237000.0,0.048,0.16,-0.136,-12.4,-13.2,-11.3,563,898,0,776.0,591.0,899.0,696.0
R,,237060.0,-0.003,0.217,-0.093,-2.8,-22.7,-8.1,302,866,0,817.0,655.0,902.0,575.0
R,,237121.0,0.019,0.044,-0.084,-17.1,-26.9,-6.8,487,694,0,845.0,706.0,889.0,184.0
R,,237211.0,0.042,0.018,0.015,15.0,-4.6,11.4,515,706,0,867.0,733.0,659.0,478.0
R,,237270.0,0.037,0.057,0.0,22.6,0.9,22.8,512,706,0,875.0,742.0,711.0,516.0
R,,237331.0,0.063,0.154,-0.033,23.7,1.6,33.8,521,710,0,879.0,746.0,715.0,541.0
R,,237390.0,0.087,0.178,0.017,26.5,23.5,29.0,548,727,0,879.0,745.0,711.0,549.0
R,,237451.0,-0.055,0.231,-0.121,19.8,17.9,22.7,557,740,0,880.0,743.0,715.0,556.0
R,,237510.0,-0.156,0.223,-0.078,5.2,-5.7,12.7,572,756,0,876.0,727.0,716.0,560.0
R,,237570.0,0.138,-0.047,-0.118,23.0,-19.6,6.5,604,755,0,878.0,665.0,723.0,561.0
R,,237630.0,0.002,0.154,-0.145,11.9,-6.3,-20.7,652,782,0,883.0,615.0,729.0,582.0
R,,237690.0,-0.005,0.062,-0.139,-16.3,-4.8,-8.6,705,820,0,879.0,536.0,777.0,643.0
R,,237750.0,0.0,0.072,-0.099,-11.3,-3.9,-5.5,733,847,0,833.0,287.0,825.0,701.0
R,,237810.0,0.01,0.084,-0.089,-1.7,-3.7,-3.7,752,864,0,833.0,287.0,856.0,744.0
R,,237871.0,0.011,0.091,-0.087,-7.6,-4.0,-0.2,762,872,0,713.0,465.0,868.0,755.0
R,,237932.0,0.01,0.085,-0.095,-2.9,-1.8,0.2,765,878,0,675.0,444.0,877.0,764.0
R,,237991.0,0.007,0.069,-0.072,-19.4,-4.8,1.1,768,881,0,677.0,451.0,885.0,771.0
R,,238050.0,-0.004,0.103,-0.106,-6.6,-3.4,-1.1,769,884,0,677.0,454.0,893.0,778.0
R,,238110.0,0.008,0.102,-0.081,-8.2,-6.3,-3.9,771,889,0,683.0,456.0,893.0,770.0
R,,238169.0,0.0,0.112,-0.082,-5.4,-7.2,-4.5,765,894,0,686.0,462.0,898.0,745.0
R,,238260.0,0.004,0.143,-0.058,5.4,-13.0,-9.5,727,897,0,768.0,592.0,895.0,733.0
R,,238350.0,0.02,0.153,-0.077,-2.4,-9.9,-10.2,672,897,0,822.0,665.0,905.0,350.0
R,,238411.0,0.009,0.129,-0.095,-9.9,-15.8,-4.9,421,882,0,843.0,704.0,862.0,329.0
R,,238470.0,-0.032,0.098,-0.114,-7.7,-31.3,-3.8,441,705,0,856.0,724.0,702.0,511.0
R,,238530.0,0.05,0.025,-0.013,-3.3,-29.6,2.8,476,691,0,866.0,734.0,707.0,528.0
R,,238590.0,0.056,0.069,0.017,14.7,-16.2,6.0,486,692,0,873.0,740.0,707.0,528.0
R,,238650.0,0.053,0.081,0.031,18.1,6.5,11.5,479,683,0,875.0,745.0,711.0,543.0
R,,238711.0,0.035,0.101,-0.02,15.9,5.3,21.5,497,690,0,879.0,747.0,707.0,547.0
R,,238770.0,0.045,0.111,-0.033,21.8,8.6,24.4,518,702,0,877.0,742.0,715.0,559.0
R,,238831.0,0.028,0.169,-0.112,12.7,10.3,26.4,526,710,0,877.0,742.0,732.0,568.0
R,,238890.0,-0.014,0.202,-0.093,6.0,0.7,20.6,540,723,0,870.0,724.0,738.0,611.0
R,,238951.0,-0.085,0.208,-0.051,6.6,-0.5,1.8,548,731,0,881.0,657.0,792.0,656.0
R,,239010.0,0.039,0.025,-0.152,23.0,-6.1,-4.8,597,740,0,807.0,524.0,827.0,705.0
R,,239070.0,0.035,0.218,-0.089,7.3,-6.6,-25.4,668,789,0,763.0,240.0,844.0,725.0
R,,239130.0,-0.033,0.025,-0.085,-9.5,-7.5,-12.5,709,825,0,657.0,430.0,858.0,745.0
R,,239190.0,0.013,0.104,-0.091,-4.9,-1.5,-4.6,729,843,0,668.0,450.0,865.0,752.0
R,,239250.0,0.005,0.08,-0.093,2.4,-3.0,-4.8,748,860,0,704.0,466.0,876.0,764.0
R,,239340.0,0.008,0.101,-0.074,-5.4,-2.8,-2.8,763,876,0,712.0,488.0,882.0,772.0
R,,239402.0,0.011,0.105,-0.062,-6.7,-7.0,-4.3,767,884,0,702.0,481.0,890.0,774.0
R,,239459.0,-0.007,0.1,-0.101,-3.5,-1.9,-2.6,768,890,0,706.0,487.0,894.0,772.0
R,,239520.0,0.0,0.114,-0.083,-1.3,-4.9,-5.4,760,895,0,693.0,474.0,897.0,745.0
R,,239581.0,0.014,0.143,-0.095,-10.1,-4.6,-7.0,718,895,0,787.0,616.0,899.0,715.0
R,,239640.0,0.019,0.167,-0.091,-10.9,-3.3,-11.8,703,897,0,833.0,688.0,899.0,630.0
R,,239701.0,0.068,0.172,-0.118,-17.3,-11.8,-10.2,601,896,0,848.0,711.0,898.0,179.0
R,,239760.0,-0.007,0.198,-0.065,-2.1,-9.5,-18.1,303,867,0,859.0,727.0,772.0,512.0
R,,239820.0,0.0,0.078,-0.077,-29.0,-21.7,-8.0,486,686,0,867.0,741.0,706.0,529.0
R,,239880.0,0.045,-0.014,0.021,0.1,-15.2,3.9,510,710,0,867.0,741.0,717.0,551.0
R,,239940.0,0.049,0.009,-0.005,14.3,5.7,19.9,519,714,0,875.0,744.0,717.0,554.0
R,,240000.0,0.06,0.07,-0.032,23.4,19.4,27.7,521,697,0,877.0,744.0,704.0,556.0
R,,240060.0,0.081,0.146,-0.054,18.5,17.1,31.8,535,706,0,883.0,745.0,725.0,574.0
R,,240122.0,0.068,0.276,-0.199,27.8,31.0,31.9,540,717,0,885.0,738.0,741.0,588.0
R,,240180.0,-0.227,0.289,-0.179,19.3,16.8,15.7,555,735,0,886.0,692.0,738.0,583.0
R,,240241.0,0.097,0.072,-0.131,11.6,-15.1,-7.6,618,757,0,886.0,661.0,747.0,625.0
R,,240300.0,0.046,0.151,-0.058,6.1,-6.9,-35.3,673,805,0,882.0,634.0,799.0,663.0
R,,240390.0,0.016,0.05,-0.053,-12.9,-5.1,-11.4,730,844,0,772.0,437.0,831.0,705.0
R,,240451.0,0.026,0.115,-0.094,5.1,-1.5,-10.4,753,867,0,656.0,428.0,849.0,731.0
R,,240510.0,0.026,0.08,-0.024,-4.1,-2.6,-8.7,772,884,0,700.0,463.0,862.0,750.0
R,,240571.0,-0.062,0.072,-0.066,-12.9,-2.8,-5.6,767,886,0,648.0,434.0,870.0,758.0
R,,240630.0,-0.01,0.107,-0.063,1.8,3.7,-3.8,764,889,0,670.0,450.0,882.0,768.0
R,,240690.0,0.002,0.109,-0.066,-3.3,-4.4,-4.2,754,893,0,614.0,409.0,891.0,780.0
R,,240750.0,0.009,0.121,-0.056,-3.5,-4.3,-6.3,728,897,0,688.0,475.0,891.0,776.0
R,,240812.0,0.013,0.158,-0.074,-6.6,-7.6,-11.6,701,895,0,717.0,492.0,895.0,771.0
R,,240871.0,0.038,0.172,-0.12,-12.5,-6.7,-13.0,627,898,0,780.0,603.0,901.0,732.0
R,,240930.0,0.075,0.169,-0.091,-10.3,-13.3,-15.3,166,901,0,813.0,658.0,899.0,710.0
R,,240991.0,-0.038,0.065,-0.157,13.5,-16.4,-17.3,422,662,0,841.0,704.0,898.0,572.0
R,,241050.0,0.065,0.043,-0.008,-8.4,-16.3,4.6,493,702,0,855.0,720.0,889.0,147.0
R,,241110.0,0.053,0.0,0.032,12.1,4.9,9.9,515,712,0,864.0,732.0,648.0,480.0
R,,241201.0,0.05,0.076,-0.052,24.0,20.2,29.4,515,703,0,871.0,740.0,701.0,540.0
R,,241260.0,0.077,0.139,-0.033,22.5,20.1,32.8,520,704,0,873.0,743.0,694.0,539.0
R,,241321.0,0.064,0.269,-0.164,27.0,25.2,31.1,533,716,0,875.0,743.0,696.0,544.0
R,,241411.0,-0.238,0.299,-0.11,-6.3,-4.0,0.0,551,742,0,887.0,736.0,713.0,562.0
R,,241470.0,0.124,0.474,-0.023,-1.6,-22.8,-5.9,620,757,0,887.0,687.0,731.0,572.0
R,,241531.0,-0.019,0.101,-0.081,-3.4,-9.1,-29.0,693,813,0,888.0,647.0,721.0,562.0
R,,241592.0,0.0,0.062,-0.078,-17.2,-7.2,-12.8,729,843,0,890.0,620.0,758.0,631.0
R,,241650.0,0.029,0.107,-0.07,-2.3,-2.4,-8.4,754,866,0,884.0,366.0,809.0,672.0
R,,241710.0,-0.007,0.09,-0.096,-10.0,-2.8,-3.2,767,878,0,699.0,454.0,833.0,705.0
R,,241770.0,-0.008,0.098,-0.087,-0.9,2.2,-1.9,770,886,0,695.0,460.0,854.0,735.0
R,,241831.0,-0.001,0.125,-0.116,-12.9,-0.6,2.1,772,888,0,660.0,440.0,868.0,756.0
R,,241890.0,-0.002,0.113,-0.087,3.7,-0.4,-4.1,769,891,0,658.0,450.0,882.0,771.0
R,,241951.0,0.007,0.118,-0.068,-6.5,-6.4,-3.7,761,894,0,686.0,468.0,890.0,773.0
R,,242010.0,-0.011,0.135,-0.076,-1.9,-7.3,-6.5,725,897,0,686.0,468.0,898.0,761.0
R,,242071.0,0.004,0.166,-0.088,-9.3,-6.6,-10.7,704,893,0,705.0,484.0,900.0,738.0
R,,242130.0,0.05,0.191,-0.138,-18.9,-8.4,-9.1,613,897,0,722.0,501.0,900.0,725.0
R,,242190.0,0.062,0.173,-0.096,-3.8,-14.0,-10.9,223,879,0,766.0,558.0,898.0,670.0
R,,242250.0,-0.023,-0.066,-0.124,0.4,-20.5,1.5,477,681,0,806.0,642.0,903.0,412.0
R,,242312.0,0.058,0.01,0.046,10.2,-13.4,2.1,519,722,0,842.0,706.0,878.0,186.0
R,,242371.0,0.063,0.019,0.011,15.8,-3.6,16.5,533,726,0,854.0,721.0,688.0,487.0
R,,242460.0,0.052,0.134,-0.084,27.0,11.3,32.5,542,723,0,872.0,740.0,700.0,514.0
R,,242520.0,0.074,0.172,-0.068,28.7,18.8,36.2,540,727,0,874.0,741.0,687.0,522.0
R,,242580.0,0.007,0.263,-0.109,7.8,5.1,37.5,545,734,0,879.0,744.0,688.0,528.0
R,,242640.0,-0.203,0.285,-0.044,5.2,-3.3,12.7,559,746,0,884.0,747.0,698.0,534.0
R,,242701.0,0.227,-0.1,-0.181,35.9,-14.3,9.7,613,760,0,885.0,738.0,715.0,548.0
R,,242760.0,0.007,0.157,-0.141,13.4,-9.0,-18.2,662,790,0,884.0,689.0,715.0,547.0
R,,242821.0,-0.004,0.046,-0.113,-13.2,-8.7,-13.5,713,825,0,889.0,669.0,731.0,566.0
R,,242880.0,-0.013,0.062,-0.087,-13.9,-4.2,-6.7,740,852,0,887.0,639.0,754.0,624.0
R,,242940.0,0.01,0.088,-0.098,-2.2,-1.2,-3.8,761,873,0,883.0,594.0,785.0,656.0
R,,243002.0,0.002,0.076,-0.082,-7.1,-1.2,-1.4,772,883,0,871.0,380.0,832.0,705.0
R,,243060.0,0.014,0.043,-0.134,-11.5,1.1,11.2,771,888,0,731.0,490.0,846.0,733.0
R,,243121.0,0.004,0.099,-0.104,4.7,-2.6,-3.5,766,892,0,619.0,420.0,864.0,752.0
R,,243180.0,-0.001,0.099,-0.11,-10.8,-7.2,-1.4,756,896,0,727.0,502.0,878.0,765.0
R,,243241.0,-0.016,0.105,-0.094,1.0,-5.3,-3.6,723,895,0,663.0,464.0,885.0,774.0
R,,243300.0,-0.008,0.118,-0.093,-7.7,-5.4,-3.8,712,898,0,643.0,440.0,893.0,775.0
R,,243361.0,0.0,0.121,-0.068,-6.8,-7.4,-7.7,705,902,0,697.0,479.0,896.0,771.0
R,,243420.0,0.018,0.176,-0.152,-20.0,-13.6,-7.1,647,902,0,672.0,468.0,900.0,753.0
R,,243510.0,-0.023,0.223,-0.068,-21.7,-29.3,-4.0,339,847,0,696.0,488.0,896.0,703.0
R,,243571.0,0.042,0.018,-0.09,-19.0,-25.7,0.0,460,686,0,754.0,586.0,892.0,571.0
R,,243630.0,0.054,0.0,0.029,19.5,-5.6,-0.1,483,702,0,827.0,680.0,889.0,178.0
R,,243691.0,0.065,0.037,0.027,16.6,1.4,19.3,479,699,0,846.0,712.0,626.0,451.0
R,,243752.0,0.055,0.106,-0.036,21.2,12.0,31.1,508,705,0,855.0,723.0,679.0,509.0
R,,243810.0,0.057,0.116,-0.029,20.6,7.8,31.3,516,703,0,862.0,732.0,669.0,508.0
R,,243870.0,0.025,0.222,-0.117,10.7,13.0,32.5,534,720,0,873.0,740.0,668.0,514.0
R,,243930.0,-0.175,0.196,-0.161,12.3,9.3,19.4,538,729,0,878.0,744.0,689.0,534.0
R,,243991.0,-0.12,0.227,0.027,-11.3,-11.6,-8.9,552,744,0,878.0,738.0,702.0,550.0
R,,244050.0,0.061,0.301,-0.077,5.9,-18.3,-10.7,616,753,0,882.0,736.0,712.0,557.0
R,,244111.0,-0.03,0.095,-0.138,0.3,-10.3,-24.3,695,811,0,884.0,706.0,716.0,558.0
R,,244201.0,-0.003,0.068,-0.076,-14.2,-5.8,-10.3,738,847,0,865.0,603.0,734.0,603.0
R,,244260.0,0.007,0.099,-0.091,-5.9,-1.9,-2.9,760,870,0,854.0,519.0,765.0,639.0
R,,244321.0,-0.005,0.071,-0.065,-0.1,-0.7,-3.2,767,879,0,846.0,292.0,828.0,712.0
R,,244380.0,0.006,0.109,-0.129,-20.1,-3.4,6.9,774,888,0,609.0,410.0,841.0,731.0
R,,244441.0,-0.007,0.081,-0.091,3.2,-0.4,-3.3,771,887,0,605.0,409.0,859.0,751.0
R,,244502.0,0.005,0.11,-0.069,-5.4,-8.1,-4.1,766,891,0,699.0,479.0,859.0,751.0
R,,244590.0,0.007,0.126,-0.076,-2.3,-6.1,-6.5,729,898,0,702.0,480.0,885.0,772.0
R,,244651.0,0.01,0.16,-0.093,-10.8,-7.8,-9.8,714,897,0,695.0,476.0,893.0,776.0
R,,244710.0,0.033,0.177,-0.134,-14.1,-10.8,-10.7,648,899,0,699.0,483.0,895.0,770.0
R,,244770.0,0.069,0.174,-0.097,-6.9,-11.9,-14.3,261,889,0,712.0,502.0,897.0,729.0
R,,244831.0,-0.031,-0.039,-0.174,8.0,-21.8,-1.1,450,649,0,722.0,514.0,894.0,728.0
R,,244890.0,0.059,0.012,0.031,4.7,-25.4,2.2,503,712,0,782.0,616.0,895.0,655.0
R,,244951.0,0.067,0.03,0.027,17.9,-7.3,12.6,525,718,0,835.0,693.0,903.0,193.0
R,,245010.0,0.046,0.075,-0.011,23.3,6.5,23.5,517,711,0,848.0,713.0,826.0,444.0
R,,245071.0,0.045,0.144,-0.057,21.5,1.8,33.0,536,720,0,861.0,729.0,689.0,495.0
R,,245130.0,0.063,0.213,-0.119,29.4,22.7,35.2,544,725,0,871.0,738.0,689.0,495.0
R,,245192.0,-0.047,0.287,-0.087,10.4,10.7,28.0,550,743,0,874.0,741.0,702.0,538.0
R,,245250.0,-0.154,0.274,-0.025,-6.6,-12.6,-4.6,558,740,0,875.0,740.0,707.0,553.0
R,,245310.0,0.078,0.205,-0.071,-2.7,-24.6,-13.2,645,780,0,876.0,738.0,717.0,565.0
R,,245371.0,-0.006,0.037,-0.133,-13.0,-6.1,-21.9,715,827,0,883.0,731.0,725.0,575.0
R,,245430.0,-0.011,0.059,-0.063,-14.3,-2.0,-7.3,741,853,0,878.0,677.0,740.0,585.0
R,,245491.0,0.019,0.11,-0.088,-2.3,-1.3,-4.4,759,873,0,873.0,621.0,766.0,641.0
R,,245550.0,-0.001,0.084,-0.08,-9.3,-4.0,-3.1,767,881,0,846.0,552.0,818.0,684.0
R,,245640.0,-0.01,0.087,-0.044,-12.0,-8.8,-4.8,771,889,0,722.0,427.0,836.0,721.0
R,,245701.0,-0.011,0.104,-0.066,-2.2,-2.2,-2.2,765,893,0,709.0,471.0,852.0,737.0
R,,245760.0,-0.007,0.1,-0.079,-6.5,-5.1,-1.8,754,894,0,666.0,438.0,863.0,753.0
R,,245821.0,0.0,0.121,-0.065,-4.8,-5.7,-4.7,727,897,0,646.0,437.0,874.0,762.0
R,,245880.0,-0.005,0.14,-0.096,-5.6,-7.9,-8.6,703,896,0,672.0,449.0,884.0,767.0
R,,245942.0,0.009,0.161,-0.103,-10.3,-7.6,-10.1,657,895,0,697.0,463.0,889.0,773.0
R,,246000.0,0.061,0.152,-0.131,-7.9,-16.0,-12.0,369,901,0,705.0,475.0,893.0,769.0
R,,246060.0,-0.024,0.147,-0.1,1.7,-22.4,-13.4,468,781,0,707.0,476.0,897.0,751.0
R,,246121.0,0.098,0.007,0.0,-2.9,-33.4,7.2,498,700,0,778.0,591.0,895.0,726.0
R,,246180.0,0.047,0.017,0.018,19.0,-7.4,8.5,520,715,0,817.0,660.0,895.0,726.0
R,,246241.0,0.033,0.065,-0.01,23.5,0.0,21.2,513,713,0,840.0,704.0,898.0,673.0
R,,246300.0,0.03,0.142,-0.063,26.5,-2.1,29.5,524,703,0,850.0,719.0,901.0,440.0
R,,246361.0,0.041,0.153,-0.021,31.8,10.0,29.9,540,717,0,857.0,728.0,784.0,484.0
R,,246420.0,0.022,0.217,-0.033,11.7,-1.8,27.7,540,725,0,863.0,733.0,698.0,501.0
R,,246481.0,-0.049,0.186,-0.086,10.0,-3.3,15.6,560,744,0,875.0,744.0,708.0,530.0
R,,246541.0,-0.042,0.151,-0.062,5.0,4.6,-10.4,580,745,0,879.0,745.0,712.0,542.0
R,,246642.0,-0.03,0.068,-0.132,-3.8,-6.0,-18.9,697,811,0,881.0,735.0,723.0,562.0
R,,246662.0,-0.032,0.019,-0.117,-16.6,-5.3,-10.2,706,820,0,881.0,735.0,723.0,562.0
R,,246720.0,-0.006,0.059,-0.1,-8.2,-2.3,-4.3,725,836,0,885.0,680.0,728.0,569.0
R,,246781.0,0.019,0.098,-0.086,-2.7,0.3,-0.7,736,845,0,854.0,623.0,715.0,551.0
R,,246840.0,0.003,0.068,-0.083,-2.8,-0.1,-0.9,742,853,0,798.0,546.0,764.0,633.0
R,,246901.0,0.007,0.074,-0.084,-9.1,-0.3,2.2,746,855,0,817.0,310.0,806.0,668.0
R,,246960.0,0.032,0.149,-0.094,-21.0,-5.6,5.2,753,861,0,654.0,400.0,831.0,703.0
R,,247021.0,0.016,0.102,-0.087,-9.5,-3.2,-1.1,756,868,0,625.0,406.0,847.0,729.0
R,,247081.0,0.014,0.106,-0.078,-10.5,-3.4,-3.0,765,876,0,702.0,464.0,860.0,748.0
R,,247140.0,0.012,0.132,-0.085,-11.6,-5.1,-7.0,769,884,0,633.0,438.0,875.0,763.0
R,,247201.0,0.005,0.108,-0.101,-7.1,-5.9,-6.5,751,892,0,639.0,442.0,885.0,771.0
R,,247260.0,0.045,0.187,-0.062,-22.2,-15.7,-9.6,662,890,0,670.0,464.0,893.0,774.0
R,,247322.0,0.038,0.103,-0.1,1.1,-10.0,-16.5,482,881,0,696.0,480.0,894.0,765.0
R,,247380.0,-0.008,0.099,-0.134,9.5,-25.1,-16.8,519,745,0,686.0,473.0,898.0,731.0
R,,247441.0,0.077,0.043,-0.017,-6.2,-17.6,5.6,523,703,0,777.0,598.0,897.0,710.0
R,,247500.0,0.049,0.025,0.009,14.5,3.0,4.7,535,714,0,830.0,679.0,898.0,599.0
R,,247561.0,0.015,0.039,-0.045,22.1,6.8,14.2,532,707,0,847.0,712.0,894.0,197.0
R,,247621.0,0.061,0.11,-0.058,20.9,5.2,23.0,536,708,0,862.0,729.0,693.0,476.0
R,,247680.0,0.058,0.19,-0.148,28.7,19.9,28.0,545,718,0,872.0,739.0,671.0,488.0
R,,247740.0,0.025,0.233,-0.111,13.9,11.9,29.5,546,725,0,873.0,739.0,674.0,511.0
R,,247800.0,-0.14,0.266,-0.14,12.9,3.6,15.8,558,734,0,877.0,741.0,670.0,519.0
R,,247861.0,0.141,0.103,-0.007,25.8,5.6,-5.1,584,729,0,879.0,742.0,679.0,528.0
R,,247920.0,0.051,0.017,-0.025,-8.2,-22.1,-10.4,642,776,0,877.0,713.0,704.0,551.0
R,,247981.0,-0.023,0.05,-0.141,-13.2,-7.0,-17.4,711,823,0,886.0,680.0,720.0,564.0
R,,248042.0,0.008,0.072,-0.084,-10.9,-2.9,-8.1,735,845,0,885.0,648.0,726.0,551.0
R,,248101.0,0.017,0.095,-0.109,-2.8,-0.2,-2.4,754,866,0,884.0,631.0,747.0,589.0
R,,248161.0,-0.002,0.077,-0.088,-3.3,-0.4,-2.0,765,878,0,883.0,556.0,783.0,653.0
R,,248220.0,0.008,0.102,-0.091,-5.1,-2.8,-3.4,770,884,0,872.0,321.0,832.0,704.0
R,,248281.0,0.003,0.083,-0.061,-2.1,0.0,-3.6,770,887,0,705.0,466.0,832.0,704.0
R,,248340.0,0.004,0.102,-0.078,-7.6,-4.1,-3.5,768,890,0,671.0,444.0,853.0,741.0
R,,248401.0,0.004,0.115,-0.068,-5.6,-5.8,-4.7,755,894,0,688.0,463.0,873.0,762.0
R,,248460.0,0.012,0.134,-0.09,-8.7,-5.9,-5.7,714,896,0,657.0,446.0,890.0,775.0
R,,248521.0,0.019,0.154,-0.087,-9.2,-7.1,-10.7,669,895,0,693.0,481.0,893.0,766.0
R,,248581.0,0.032,0.129,-0.118,-7.9,-13.3,-9.7,450,894,0,660.0,458.0,897.0,753.0
R,,248640.0,-0.032,0.196,-0.063,-6.9,-25.1,-9.6,476,825,0,698.0,489.0,895.0,739.0
R,,248703.0,0.089,0.012,-0.035,-7.2,-33.3,5.7,505,705,0,731.0,523.0,898.0,702.0
R,,248760.0,0.047,0.007,0.018,15.5,-10.1,4.0,519,715,0,775.0,608.0,898.0,702.0
R,,248821.0,0.037,0.042,-0.013,24.1,0.0,16.2,524,719,0,831.0,691.0,892.0,607.0
R,,248880.0,0.043,0.122,-0.049,26.0,1.4,26.1,530,720,0,849.0,717.0,903.0,141.0
R,,248941.0,0.073,0.163,-0.053,31.2,22.2,28.6,551,734,0,862.0,730.0,863.0,276.0
R,,249000.0,0.0,0.224,-0.102,14.4,10.5,27.1,555,745,0,868.0,738.0,662.0,483.0
R,,249061.0,-0.102,0.231,-0.07,0.5,-9.6,14.7,567,757,0,873.0,743.0,668.0,498.0
R,,249121.0,-0.059,0.23,-0.026,12.2,-11.9,-4.1,586,760,0,876.0,743.0,671.0,515.0
R,,249180.0,-0.031,0.165,-0.161,25.3,-9.7,-23.2,675,796,0,883.0,748.0,674.0,522.0
R,,249241.0,-0.05,-0.01,-0.12,-13.7,-4.8,-9.2,719,828,0,881.0,742.0,686.0,532.0
R,,249300.0,-0.003,0.072,-0.056,-7.0,-2.0,-3.9,746,858,0,877.0,703.0,695.0,549.0
R,,249361.0,0.006,0.083,-0.101,-6.7,-3.7,-1.3,766,876,0,890.0,662.0,695.0,549.0
R,,249422.0,-0.004,0.076,-0.095,-9.3,-1.0,-0.1,770,886,0,888.0,627.0,719.0,554.0
R,,249481.0,0.012,0.112,-0.096,-12.8,-7.9,-2.5,768,892,0,885.0,487.0,784.0,654.0
R,,249541.0,-0.004,0.079,-0.054,-1.6,-4.4,-2.4,758,896,0,822.0,352.0,827.0,699.0
R,,249601.0,-0.001,0.104,-0.05,-6.2,-8.9,-3.5,730,895,0,721.0,489.0,843.0,726.0
R,,249661.0,0.004,0.138,-0.087,-2.9,-6.7,-4.9,715,899,0,705.0,480.0,862.0,752.0
R,,249720.0,-0.003,0.135,-0.069,-4.5,-7.0,-7.8,703,899,0,696.0,476.0,876.0,767.0
R,,249781.0,0.033,0.147,-0.099,-11.7,-11.0,-10.0,643,900,0,692.0,476.0,888.0,773.0
R,,249840.0,0.051,0.159,-0.135,-1.7,-18.2,-8.3,402,888,0,690.0,481.0,893.0,775.0
R,,249901.0,-0.017,0.119,-0.164,3.3,-20.4,-6.1,465,710,0,658.0,449.0,895.0,767.0
R,,249960.0,0.078,0.006,-0.012,3.9,-21.6,7.3,494,707,0,669.0,462.0,897.0,743.0
R,,250021.0,0.074,0.019,0.054,15.5,-8.4,14.7,507,703,0,757.0,567.0,893.0,733.0
R,,250081.0,0.066,0.063,0.015,18.1,6.0,25.7,506,705,0,804.0,645.0,897.0,688.0
R,,250142.0,0.07,0.152,-0.042,18.3,8.0,33.5,527,719,0,840.0,704.0,900.0,482.0
R,,250201.0,0.055,0.242,-0.144,29.0,24.8,32.3,537,731,0,857.0,725.0,889.0,170.0
R,,250260.0,-0.13,0.272,-0.151,10.5,10.1,17.8,547,741,0,863.0,732.0,646.0,460.0
R,,250321.0,-0.112,0.284,-0.016,9.8,-22.2,-10.3,588,743,0,863.0,732.0,684.0,503.0
R,,250380.0,-0.008,0.197,-0.025,3.0,-9.2,-24.1,675,800,0,865.0,736.0,693.0,529.0
R,,250441.0,0.0,0.061,-0.117,-14.2,-2.2,-12.3,720,834,0,865.0,736.0,676.0,529.0
R,,250500.0,0.026,0.097,-0.053,-7.2,-3.7,-7.7,752,868,0,865.0,734.0,698.0,551.0
R,,250561.0,0.005,0.096,-0.092,-2.4,-0.7,-4.1,766,881,0,880.0,737.0,710.0,562.0
R,,250621.0,0.011,0.085,-0.066,-5.3,-0.8,-3.0,772,889,0,878.0,680.0,710.0,550.0
R,,250681.0,0.015,0.092,-0.064,-4.8,-2.2,-2.7,773,892,0,889.0,658.0,714.0,582.0
R,,250741.0,0.008,0.097,-0.047,-1.4,-3.7,-4.6,763,892,0,889.0,629.0,781.0,654.0
R,,250802.0,0.0,0.118,-0.05,-4.2,-5.2,-4.6,742,897,0,862.0,411.0,842.0,727.0
R,,250860.0,-0.003,0.117,-0.058,-4.5,-4.2,-5.1,700,897,0,831.0,366.0,863.0,755.0
R,,250920.0,0.0,0.135,-0.061,-6.9,-5.1,-5.9,687,896,0,682.0,457.0,885.0,772.0
R,,250981.0,0.013,0.145,-0.057,-6.1,-4.8,-10.6,624,898,0,666.0,453.0,889.0,776.0
R,,251041.0,0.045,0.181,-0.092,-13.3,-11.4,-8.6,511,898,0,710.0,493.0,894.0,771.0
R,,251101.0,-0.022,0.186,-0.053,-2.9,-5.0,-12.8,415,853,0,667.0,451.0,894.0,771.0
R,,251161.0,0.005,0.094,-0.051,-25.3,-20.1,-3.8,497,711,0,700.0,473.0,894.0,761.0
R,,251220.0,0.025,0.001,-0.024,8.9,-6.3,3.2,518,725,0,718.0,500.0,898.0,734.0
R,,251281.0,0.06,0.035,0.019,15.1,3.0,17.0,527,718,0,771.0,581.0,897.0,717.0
R,,251340.0,0.045,0.086,-0.033,20.9,11.2,27.2,529,725,0,771.0,581.0,901.0,441.0
R,,251401.0,0.055,0.175,-0.079,29.8,24.5,33.0,548,731,0,818.0,667.0,901.0,441.0
R,,251460.0,-0.039,0.277,-0.102,13.3,17.5,24.5,542,745,0,818.0,667.0,890.0,177.0
R,,251522.0,-0.186,0.246,-0.092,7.2,-2.1,6.9,574,750,0,866.0,737.0,654.0,465.0
R,,251581.0,0.104,0.239,-0.114,9.5,-14.5,5.7,632,776,0,868.0,739.0,696.0,521.0
R,,251641.0,0.001,0.07,-0.103,-6.8,-0.8,-18.0,701,822,0,877.0,746.0,696.0,533.0
R,,251701.0,0.03,0.054,-0.069,-17.3,-3.7,-4.4,726,842,0,880.0,742.0,693.0,537.0
R,,251760.0,0.027,0.098,-0.087,4.5,-0.3,-8.4,749,863,0,884.0,734.0,694.0,541.0
R,,251821.0,0.011,0.081,-0.071,-2.3,-2.6,-7.6,763,876,0,881.0,707.0,711.0,548.0
R,,251880.0,0.011,0.101,-0.067,-4.6,-3.2,-3.2,768,885,0,881.0,662.0,727.0,558.0
R,,251941.0,0.004,0.098,-0.07,-4.6,-1.9,-2.8,771,888,0,865.0,602.0,774.0,647.0
R,,252000.0,0.005,0.105,-0.065,-2.5,-1.0,-1.2,772,890,0,840.0,494.0,820.0,691.0
R,,252061.0,0.004,0.106,-0.071,-2.3,-1.3,-1.0,774,892,0,824.0,273.0,843.0,727.0
R,,252121.0,0.007,0.117,-0.072,-6.2,-3.7,-1.6,770,894,0,721.0,464.0,858.0,747.0
R,,252181.0,0.011,0.125,-0.072,-8.3,-6.2,-4.3,749,895,0,718.0,470.0,876.0,765.0
R,,252243.0,0.017,0.158,-0.076,-8.7,-4.6,-7.7,684,898,0,673.0,443.0,888.0,775.0
R,,252300.0,0.031,0.148,-0.069,-11.1,-7.4,-10.7,596,894,0,682.0,447.0,889.0,776.0
R,,252361.0,0.0,0.142,-0.052,-6.7,-3.5,-13.2,491,873,0,693.0,464.0,895.0,774.0
R,,252420.0,-0.028,0.04,-0.127,2.3,-17.6,-10.6,520,729,0,694.0,467.0,896.0,755.0
R,,252481.0,0.06,0.022,0.006,1.2,-10.4,2.8,534,727,0,709.0,478.0,896.0,755.0
R,,252541.0,0.051,0.03,0.003,12.1,1.8,10.9,533,718,0,749.0,529.0,897.0,733.0
R,,252601.0,0.051,0.09,-0.025,18.5,6.2,21.3,537,723,0,818.0,674.0,898.0,712.0
R,,252661.0,0.057,0.153,-0.073,23.9,15.9,27.8,548,729,0,850.0,717.0,906.0,347.0
R,,252721.0,0.043,0.193,-0.1,16.4,14.9,25.6,553,735,0,859.0,729.0,728.0,476.0
R,,252781.0,-0.077,0.238,-0.087,16.1,12.0,12.3,566,747,0,851.0,724.0,699.0,518.0
R,,252840.0,-0.095,0.212,-0.052,3.3,-6.3,0.9,583,747,0,870.0,740.0,708.0,537.0
R,,252902.0,0.078,0.133,-0.092,2.5,-12.5,-16.9,631,777,0,874.0,742.0,705.0,544.0
R,,252960.0,0.011,0.1,-0.078,-3.1,-3.1,-18.9,692,814,0,879.0,744.0,706.0,552.0
R,,253021.0,0.025,0.073,-0.083,-7.9,-1.9,-7.2,727,846,0,880.0,743.0,719.0,562.0
R,,253081.0,0.02,0.089,-0.077,-3.2,-3.3,-6.2,754,869,0,884.0,741.0,729.0,574.0
R,,253141.0,0.015,0.097,-0.082,-1.5,-2.7,-4.6,765,881,0,884.0,695.0,729.0,569.0
R,,253201.0,0.007,0.095,-0.076,-5.1,-2.5,-1.9,775,891,0,879.0,647.0,728.0,586.0
R,,253261.0,0.011,0.098,-0.074,-4.9,-2.4,-2.0,773,890,0,890.0,616.0,776.0,646.0
R,,253321.0,0.006,0.099,-0.07,-2.9,-0.5,-2.4,776,892,0,773.0,267.0,819.0,687.0
R,,253380.0,0.003,0.102,-0.068,-4.6,-1.4,-2.5,773,893,0,755.0,419.0,838.0,718.0
R,,253441.0,0.004,0.108,-0.061,-3.9,-3.0,-1.7,774,894,0,694.0,449.0,851.0,738.0
R,,253500.0,0.002,0.113,-0.06,-3.3,-3.2,-1.9,768,897,0,694.0,449.0,862.0,751.0
R,,253561.0,0.0,0.116,-0.068,-2.3,-3.8,-2.7,747,898,0,687.0,467.0,874.0,763.0
R,,253623.0,0.0,0.122,-0.066,-7.1,-3.8,-3.2,723,898,0,681.0,456.0,888.0,775.0
R,,253681.0,0.008,0.131,-0.058,-7.3,-3.7,-3.8,670,899,0,690.0,471.0,891.0,778.0
R,,253741.0,0.007,0.137,-0.054,-9.4,-6.3,-4.4,594,895,0,691.0,475.0,892.0,772.0
R,,253801.0,-0.023,0.134,-0.051,-4.4,-5.4,-3.4,557,876,0,692.0,480.0,898.0,748.0
R,,253861.0,-0.031,0.093,-0.052,-4.8,-10.6,-3.6,537,839,0,729.0,507.0,895.0,731.0
R,,253920.0,-0.009,0.067,-0.036,-2.5,-18.1,2.1,511,751,0,778.0,608.0,899.0,643.0
R,,253980.0,0.041,0.044,0.014,-0.6,-17.2,8.6,507,703,0,827.0,683.0,903.0,176.0
R,,254041.0,0.033,0.085,0.024,12.1,-1.0,9.1,532,718,0,844.0,708.0,829.0,486.0
R,,254101.0,0.009,0.133,-0.012,11.6,5.9,12.1,539,730,0,857.0,727.0,694.0,504.0
R,,254161.0,0.006,0.143,-0.04,12.0,6.2,10.9,537,722,0,866.0,736.0,702.0,532.0
R,,254221.0,0.005,0.157,-0.035,7.2,2.6,10.4,553,736,0,872.0,739.0,700.0,541.0
R,,254281.0,0.001,0.155,-0.034,4.9,9.7,4.9,562,744,0,873.0,742.0,700.0,543.0
R,,254342.0,-0.001,0.136,-0.044,5.6,13.5,-1.8,575,757,0,878.0,746.0,713.0,563.0
R,,254401.0,-0.051,0.186,-0.087,8.4,7.9,-8.6,564,751,0,884.0,747.0,729.0,583.0
R,,254460.0,0.041,0.124,-0.062,-4.4,2.0,-1.4,649,803,0,883.0,741.0,722.0,560.0
R,,254521.0,0.031,0.131,-0.046,0.9,-0.1,-3.5,716,851,0,883.0,692.0,744.0,583.0
R,,254581.0,0.02,0.097,-0.067,3.5,-1.4,-0.6,736,865,0,889.0,657.0,744.0,583.0
R,,254641.0,0.029,0.109,-0.057,4.7,-1.7,0.9,750,874,0,888.0,625.0,778.0,652.0
R,,254701.0,0.03,0.101,-0.073,3.7,-0.5,-0.9,757,878,0,847.0,341.0,834.0,696.0
R,,254761.0,0.027,0.102,-0.066,-1.4,-1.3,-1.4,757,877,0,686.0,465.0,843.0,717.0
R,,254821.0,0.023,0.1,-0.063,-1.1,-0.9,-0.8,762,883,0,694.0,466.0,843.0,717.0
R,,254880.0,0.023,0.107,-0.062,0.4,-0.4,-0.3,764,882,0,693.0,470.0,854.0,739.0
R,,254941.0,0.027,0.098,-0.062,2.6,2.1,-3.2,763,883,0,684.0,458.0,867.0,753.0
R,,255002.0,0.019,0.098,-0.069,0.1,-0.3,-0.9,761,880,0,696.0,483.0,885.0,775.0
R,,255061.0,0.022,0.103,-0.063,-0.1,-0.6,-0.4,760,883,0,702.0,492.0,889.0,775.0
R,,255121.0,0.023,0.102,-0.066,0.7,-0.1,-1.1,764,884,0,716.0,503.0,894.0,776.0
R,,255181.0,0.022,0.101,-0.067,-0.8,-0.9,0.1,764,886,0,721.0,508.0,896.0,756.0
R,,255241.0,0.021,0.102,-0.066,0.6,-0.5,-0.6,765,888,0,776.0,602.0,900.0,738.0
R,,255301.0,0.019,0.101,-0.066,0.1,-0.6,-0.2,766,886,0,821.0,663.0,899.0,709.0
R,,255361.0,0.021,0.102,-0.067,0.1,-0.4,0.0,767,887,0,828.0,691.0,908.0,163.0
R,,255420.0,0.021,0.103,-0.068,0.1,-0.5,-0.4,766,888,0,848.0,717.0,860.0,386.0
R,,255481.0,0.02,0.101,-0.067,-0.2,-0.4,0.0,766,887,0,866.0,735.0,690.0,498.0
R,,255541.0,0.02,0.103,-0.065,-0.1,-0.3,0.2,766,887,0,873.0,742.0,690.0,498.0
R,,255601.0,0.02,0.099,-0.064,0.7,-0.2,1.2,766,887,0,876.0,744.0,693.0,522.0
R,,255661.0,0.027,0.104,-0.07,1.5,-0.1,0.6,767,885,0,876.0,744.0,675.0,529.0
R,,255722.0,0.021,0.098,-0.07,-0.8,-0.5,0.7,766,885,0,882.0,747.0,686.0,541.0
R,,255781.0,0.026,0.103,-0.064,-0.1,-0.3,0.4,767,886,0,886.0,741.0,708.0,568.0
R,,255841.0,0.025,0.1,-0.069,0.2,-0.3,-0.4,767,888,0,887.0,721.0,713.0,558.0
R,,255901.0,0.023,0.1,-0.068,-0.9,-0.4,0.1,768,888,0,890.0,672.0,736.0,593.0
R,,255960.0,0.025,0.102,-0.066,-0.5,-0.5,-0.2,769,885,0,888.0,656.0,783.0,655.0
R,,256021.0,0.023,0.1,-0.066,0.0,-0.4,0.0,769,887,0,887.0,611.0,829.0,697.0
R,,256081.0,0.024,0.102,-0.068,0.2,-0.4,-0.2,769,887,0,872.0,405.0,844.0,724.0
R,,256141.0,0.022,0.1,-0.066,-0.4,-0.4,0.7,768,886,0,725.0,460.0,858.0,748.0
R,,256201.0,0.027,0.103,-0.066,0.8,-0.3,-0.2,771,886,0,695.0,472.0,871.0,761.0
R,,256261.0,0.024,0.101,-0.068,0.1,-0.4,0.1,769,887,0,698.0,469.0,884.0,773.0
R,,256321.0,0.025,0.102,-0.066,0.1,-0.4,0.0,773,889,0,679.0,465.0,891.0,776.0
R,,256382.0,0.024,0.101,-0.067,0.0,-0.4,0.0,770,886,0,708.0,488.0,894.0,768.0
R,,256441.0,0.025,0.101,-0.067,0.2,-0.4,-0.2,770,886,0,702.0,486.0,897.0,753.0
R,,256500.0,0.025,0.101,-0.067,-0.1,-0.4,-0.1,770,887,0,694.0,467.0,897.0,737.0
R,,256561.0,0.025,0.101,-0.066,0.2,-0.4,-0.2,771,889,0,738.0,508.0,901.0,687.0
R,,256621.0,0.024,0.101,-0.067,0.0,-0.4,-0.3,773,892,0,788.0,619.0,900.0,463.0
R,,256681.0,0.024,0.101,-0.067,0.0,-0.4,-0.4,772,890,0,830.0,694.0,900.0,463.0
R,,256741.0,0.023,0.101,-0.067,-0.1,-0.4,-0.4,772,890,0,853.0,720.0,887.0,146.0
R,,256801.0,0.023,0.101,-0.067,0.0,-0.4,-0.2,773,889,0,859.0,729.0,664.0,474.0
R,,256861.0,0.023,0.101,-0.067,0.0,-0.4,-0.1,776,892,0,872.0,740.0,707.0,535.0
R,,256921.0,0.023,0.102,-0.066,0.0,-0.4,-0.1,771,888,0,882.0,745.0,712.0,549.0
R,,256981.0,0.023,0.101,-0.067,0.0,-0.3,0.0,774,889,0,883.0,742.0,707.0,555.0
R,,257041.0,0.024,0.102,-0.067,0.0,-0.3,0.1,774,890,0,883.0,730.0,720.0,567.0
R,,257132.0,0.025,0.102,-0.066,0.0,-0.3,0.2,773,888,0,884.0,681.0,729.0,574.0
R,,257191.0,0.025,0.101,-0.066,0.0,-0.3,0.0,771,888,0,889.0,640.0,770.0,640.0
R,,257250.0,0.025,0.101,-0.066,0.1,-0.3,0.0,774,889,0,874.0,599.0,807.0,670.0
R,,257311.0,0.025,0.101,-0.067,0.1,-0.3,0.0,773,888,0,875.0,444.0,839.0,716.0
R,,257371.0,0.025,0.101,-0.066,-0.1,-0.4,0.0,774,888,0,825.0,300.0,849.0,735.0
R,,257431.0,0.025,0.102,-0.066,0.0,-0.4,-0.1,772,888,0,678.0,440.0,862.0,750.0
R,,257491.0,0.025,0.101,-0.066,0.0,-0.4,-0.1,774,890,0,671.0,440.0,872.0,761.0
R,,257551.0,0.025,0.101,-0.066,0.0,-0.4,-0.1,775,890,0,678.0,452.0,883.0,770.0
R,,257611.0,0.025,0.101,-0.067,0.0,-0.4,-0.1,776,894,0,670.0,452.0,883.0,770.0
R,,257671.0,0.024,0.101,-0.067,0.0,-0.4,-0.1,773,890,0,670.0,454.0,889.0,775.0
R,,257731.0,0.024,0.101,-0.066,0.0,-0.4,-0.1,772,890,0,670.0,454.0,893.0,775.0
R,,257791.0,0.025,0.101,-0.066,0.0,-0.4,-0.1,773,891,0,684.0,470.0,896.0,738.0
R,,257852.0,0.025,0.101,-0.066,0.0,-0.4,-0.1,773,893,0,746.0,535.0,898.0,725.0
R,,257911.0,0.024,0.101,-0.066,0.0,-0.4,-0.1,775,891,0,780.0,614.0,898.0,633.0
R,,257971.0,0.025,0.101,-0.066,0.0,-0.4,0.0,774,890,0,838.0,693.0,901.0,162.0
R,,258031.0,0.024,0.101,-0.067,0.0,-0.4,-0.1,774,890,0,851.0,715.0,802.0,503.0
R,,258091.0,0.025,0.101,-0.066,0.0,-0.4,0.0,774,890,0,858.0,724.0,692.0,516.0
R,,258181.0,0.025,0.102,-0.066,0.0,-0.3,0.0,774,889,0,872.0,737.0,701.0,541.0
R,,258241.0,0.025,0.101,-0.067,0.0,-0.4,0.0,773,890,0,878.0,744.0,696.0,545.0
R,,258301.0,0.025,0.101,-0.066,0.0,-0.4,0.0,775,890,0,880.0,738.0,701.0,548.0
R,,258361.0,0.025,0.101,-0.067,0.0,-0.4,0.0,774,891,0,879.0,725.0,708.0,559.0
R,,258421.0,0.025,0.101,-0.067,0.0,-0.4,0.0,775,891,0,885.0,666.0,720.0,565.0
R,,258481.0,0.025,0.101,-0.066,0.0,-0.4,0.0,773,890,0,889.0,628.0,735.0,573.0
R,,258542.0,0.025,0.101,-0.067,0.0,-0.4,0.0,773,891,0,889.0,585.0,748.0,590.0
R,,258601.0,0.025,0.101,-0.066,0.1,-0.4,0.0,773,890,0,740.0,264.0,770.0,646.0
R,,258661.0,0.025,0.101,-0.067,0.0,-0.4,0.0,773,889,0,766.0,370.0,828.0,716.0
R,,258721.0,0.025,0.101,-0.066,0.0,-0.4,0.0,773,888,0,710.0,481.0,844.0,733.0
R,,258781.0,0.025,0.101,-0.066,0.0,-0.4,0.1,772,888,0,710.0,481.0,883.0,771.0
R,,258841.0,0.026,0.101,-0.067,0.0,-0.4,0.1,773,886,0,697.0,476.0,889.0,775.0
R,,258901.0,0.025,0.101,-0.066,0.0,-0.4,0.1,773,889,0,692.0,477.0,894.0,773.0
R,,258961.0,0.026,0.101,-0.066,0.0,-0.4,0.0,769,884,0,677.0,466.0,896.0,770.0
R,,259021.0,0.026,0.1,-0.066,0.0,-0.4,0.0,768,884,0,634.0,434.0,896.0,749.0
R,,259081.0,0.027,0.101,-0.066,0.0,-0.4,0.1,770,884,0,656.0,443.0,896.0,740.0
R,,259141.0,0.027,0.101,-0.067,0.0,-0.4,0.1,768,883,0,717.0,486.0,900.0,725.0
R,,259231.0,0.027,0.101,-0.066,0.0,-0.4,0.0,768,884,0,822.0,674.0,899.0,664.0
R,,259292.0,0.027,0.1,-0.067,0.0,-0.4,0.0,773,888,0,839.0,705.0,900.0,322.0
R,,259351.0,0.027,0.1,-0.067,0.0,-0.4,0.0,768,883,0,843.0,713.0,829.0,399.0
R,,259411.0,0.027,0.101,-0.066,0.0,-0.4,-0.1,769,886,0,861.0,733.0,686.0,500.0
R,,259471.0,0.027,0.101,-0.066,0.1,-0.4,-0.1,767,885,0,857.0,728.0,699.0,526.0
R,,259531.0,0.027,0.101,-0.066,0.0,-0.4,-0.1,769,884,0,864.0,733.0,699.0,536.0
R,,259591.0,0.027,0.1,-0.066,0.0,-0.4,-0.1,769,885,0,875.0,740.0,705.0,548.0
R,,259651.0,0.027,0.101,-0.066,0.1,-0.4,0.0,769,885,0,878.0,736.0,713.0,560.0
R,,259711.0,0.027,0.101,-0.066,0.0,-0.4,0.0,767,884,0,878.0,709.0,714.0,560.0
R,,259771.0,0.027,0.101,-0.066,0.0,-0.4,-0.1,770,886,0,883.0,653.0,714.0,560.0
R,,259831.0,0.027,0.101,-0.066,0.0,-0.4,-0.1,770,883,0,807.0,562.0,708.0,560.0
R,,259891.0,0.026,0.101,-0.067,0.0,-0.4,-0.1,771,885,0,807.0,562.0,777.0,646.0
R,,259951.0,0.027,0.101,-0.066,0.0,-0.4,-0.1,772,887,0,842.0,283.0,824.0,702.0
R,,260012.0,0.026,0.1,-0.066,0.0,-0.4,0.0,772,885,0,706.0,448.0,858.0,746.0
R,,260071.0,0.026,0.101,-0.066,0.0,-0.4,-0.1,771,886,0,717.0,465.0,871.0,760.0
R,,260131.0,0.027,0.101,-0.066,0.0,-0.4,-0.1,770,885,0,641.0,417.0,883.0,771.0
R,,260191.0,0.026,0.101,-0.066,0.0,-0.4,-0.1,778,890,0,609.0,397.0,885.0,770.0
R,,260281.0,0.026,0.101,-0.066,0.0,-0.4,-0.1,770,886,0,685.0,461.0,891.0,772.0
R,,260341.0,0.027,0.101,-0.066,0.0,-0.4,-0.1,773,885,0,707.0,483.0,893.0,769.0
R,,260401.0,0.026,0.101,-0.066,0.0,-0.4,-0.1,772,886,0,734.0,505.0,898.0,746.0
R,,260461.0,0.026,0.101,-0.066,0.0,-0.4,-0.2,772,887,0,781.0,611.0,898.0,721.0
R,,260521.0,0.026,0.101,-0.066,0.0,-0.4,-0.1,774,886,0,781.0,611.0,898.0,644.0
R,,260581.0,0.026,0.101,-0.066,0.0,-0.3,-0.1,772,888,0,825.0,682.0,891.0,223.0
R,,260641.0,0.026,0.1,-0.066,0.0,-0.4,-0.1,772,886,0,839.0,704.0,760.0,501.0
R,,260703.0,0.027,0.101,-0.066,0.0,-0.4,-0.1,773,885,0,856.0,726.0,697.0,509.0
R,,260761.0,0.026,0.101,-0.066,0.0,-0.4,-0.1,770,888,0,877.0,743.0,682.0,525.0
R,,260821.0,0.026,0.101,-0.066,0.0,-0.4,-0.1,771,888,0,877.0,743.0,686.0,533.0
R,,260881.0,0.026,0.101,-0.066,0.0,-0.3,0.0,772,886,0,877.0,743.0,702.0,548.0
R,,260941.0,0.026,0.101,-0.066,-0.2,-0.4,-0.1,774,885,0,879.0,740.0,710.0,566.0
R,,261001.0,0.025,0.101,-0.064,-0.1,-0.4,0.0,773,887,0,883.0,684.0,701.0,550.0
R,,261061.0,0.027,0.101,-0.066,0.3,-0.3,0.0,773,889,0,890.0,663.0,725.0,569.0
R,,261121.0,0.027,0.101,-0.066,0.1,-0.3,-0.1,773,887,0,888.0,635.0,725.0,569.0
R,,261181.0,0.026,0.101,-0.065,-0.1,-0.4,-0.2,772,887,0,891.0,587.0,783.0,654.0
R,,261241.0,0.026,0.101,-0.066,0.0,-0.4,-0.1,773,888,0,830.0,361.0,783.0,654.0
R,,261332.0,0.027,0.101,-0.066,0.0,-0.3,0.0,773,885,0,718.0,479.0,865.0,753.0
R,,261391.0,0.027,0.101,-0.066,0.0,-0.3,0.0,772,888,0,702.0,473.0,879.0,770.0
R,,261453.0,0.027,0.101,-0.065,0.0,-0.4,0.0,773,887,0,666.0,448.0,888.0,773.0
R,,261510.0,0.027,0.101,-0.065,0.0,-0.4,0.0,772,886,0,664.0,440.0,892.0,773.0
R,,261571.0,0.027,0.101,-0.065,0.0,-0.4,0.0,771,886,0,667.0,456.0,894.0,767.0
R,,261631.0,0.027,0.101,-0.066,0.0,-0.4,0.0,772,886,0,682.0,461.0,895.0,745.0
R,,261691.0,0.027,0.102,-0.065,0.0,-0.4,0.0,771,885,0,752.0,546.0,895.0,745.0
R,,261751.0,0.027,0.101,-0.065,0.0,-0.3,0.0,771,883,0,810.0,647.0,897.0,724.0
R,,261811.0,0.027,0.101,-0.065,0.0,-0.3,0.0,772,886,0,846.0,708.0,900.0,568.0
R,,261871.0,0.027,0.101,-0.065,0.0,-0.4,0.0,771,882,0,861.0,729.0,897.0,234.0
R,,261931.0,0.027,0.101,-0.066,0.0,-0.4,0.0,768,885,0,869.0,736.0,775.0,465.0
R,,262021.0,0.027,0.101,-0.065,0.0,-0.4,-0.1,772,886,0,873.0,741.0,702.0,519.0
R,,262082.0,0.027,0.101,-0.065,0.0,-0.4,-0.2,771,886,0,879.0,745.0,695.0,540.0
R,,262141.0,0.027,0.102,-0.065,0.0,-0.4,-0.1,770,887,0,879.0,744.0,708.0,555.0
R,,262203.0,0.027,0.101,-0.065,0.0,-0.4,-0.1,775,887,0,889.0,745.0,721.0,570.0
R,,262261.0,0.027,0.101,-0.064,-0.1,-0.4,0.0,771,886,0,882.0,702.0,721.0,570.0
R,,262321.0,0.028,0.102,-0.064,-0.1,-0.4,0.1,772,888,0,890.0,679.0,730.0,574.0
R,,262411.0,0.027,0.102,-0.064,0.0,-0.3,-0.2,773,886,0,888.0,644.0,780.0,649.0
R,,262471.0,0.028,0.104,-0.065,-0.3,-0.4,-0.2,771,887,0,885.0,577.0,820.0,679.0
R,,262531.0,0.026,0.099,-0.062,-0.3,-0.4,0.0,772,885,0,847.0,307.0,839.0,715.0
R,,262591.0,0.027,0.102,-0.064,0.2,-0.2,0.2,772,887,0,664.0,432.0,856.0,745.0
R,,262651.0,0.028,0.102,-0.064,0.3,-0.3,0.4,770,884,0,708.0,475.0,872.0,764.0
R,,262711.0,0.03,0.103,-0.065,0.0,-0.4,0.3,772,884,0,690.0,468.0,885.0,775.0
R,,262771.0,0.029,0.102,-0.065,-0.5,-0.5,-0.3,770,887,0,696.0,480.0,892.0,776.0
R,,262832.0,0.028,0.102,-0.063,-1.0,-0.6,-0.4,771,886,0,701.0,487.0,898.0,752.0
R,,262893.0,0.027,0.103,-0.062,-0.4,-0.4,-0.2,770,885,0,691.0,469.0,899.0,736.0
R,,262951.0,0.028,0.103,-0.063,0.0,-0.2,0.0,771,886,0,772.0,585.0,899.0,736.0
R,,263011.0,0.028,0.103,-0.063,-0.3,-0.3,0.0,771,887,0,772.0,585.0,898.0,712.0
R,,263071.0,0.028,0.103,-0.062,-0.4,-0.3,-0.1,771,885,0,822.0,674.0,901.0,623.0
R,,263131.0,0.028,0.103,-0.061,-0.6,-0.2,-0.1,771,887,0,842.0,709.0,882.0,212.0
R,,263191.0,0.028,0.104,-0.061,-0.7,-0.2,0.0,772,886,0,858.0,725.0,643.0,462.0
R,,263251.0,0.029,0.105,-0.06,-0.9,-0.2,0.0,772,885,0,869.0,740.0,689.0,508.0
R,,263311.0,0.028,0.104,-0.058,-1.2,-0.2,0.0,772,887,0,871.0,739.0,680.0,521.0
R,,263372.0,0.029,0.106,-0.058,-1.3,-0.2,0.2,771,888,0,876.0,743.0,681.0,535.0
R,,263461.0,0.028,0.106,-0.056,-1.6,-0.1,0.0,770,885,0,883.0,735.0,696.0,546.0
R,,263521.0,0.029,0.107,-0.054,-1.4,-0.4,0.8,769,885,0,884.0,685.0,708.0,563.0
R,,263582.0,0.032,0.108,-0.053,-0.7,-0.3,0.9,765,881,0,890.0,661.0,719.0,583.0
R,,263643.0,0.032,0.109,-0.054,-0.7,-0.1,0.1,763,880,0,884.0,627.0,727.0,595.0
R,,263701.0,0.033,0.108,-0.054,-1.4,-0.5,0.0,761,880,0,884.0,554.0,780.0,650.0
R,,263761.0,0.033,0.109,-0.05,-2.0,-0.7,-0.3,755,877,0,846.0,327.0,823.0,697.0
R,,263821.0,0.031,0.108,-0.046,-2.7,-1.0,-0.5,753,877,0,684.0,456.0,847.0,733.0
R,,263881.0,0.029,0.112,-0.046,-1.6,-0.9,-0.5,750,877,0,693.0,475.0,870.0,759.0
R,,263941.0,0.031,0.11,-0.041,-1.3,-0.9,-0.2,744,877,0,710.0,487.0,879.0,771.0
R,,264001.0,0.029,0.113,-0.041,-1.6,-0.9,-0.4,743,879,0,710.0,484.0,889.0,775.0
R,,264061.0,0.026,0.113,-0.041,-1.8,-0.6,-0.3,745,879,0,673.0,467.0,893.0,771.0
R,,264122.0,0.033,0.116,-0.041,-1.3,-0.6,-0.2,750,877,0,653.0,462.0,896.0,754.0
R,,264181.0,0.028,0.115,-0.041,-0.6,-0.5,-0.9,753,880,0,735.0,519.0,895.0,724.0
R,,264241.0,0.027,0.115,-0.038,-0.3,-0.3,-1.2,750,879,0,778.0,597.0,897.0,684.0
R,,264302.0,0.025,0.114,-0.04,0.0,-0.2,-1.4,751,879,0,778.0,597.0,894.0,589.0
R,,264361.0,0.024,0.116,-0.039,-0.4,-0.7,-1.1,753,879,0,824.0,668.0,902.0,192.0
R,,264421.0,0.023,0.116,-0.039,0.0,-0.7,-0.6,756,880,0,849.0,719.0,808.0,460.0
R,,264511.0,0.023,0.114,-0.039,0.2,-0.7,0.6,755,878,0,859.0,730.0,683.0,530.0
R,,264571.0,0.024,0.114,-0.039,0.4,-0.3,0.9,753,883,0,868.0,735.0,673.0,529.0
R,,264630.0,0.026,0.115,-0.04,0.4,-0.2,1.0,755,882,0,874.0,742.0,678.0,533.0
R,,264691.0,0.029,0.117,-0.043,1.3,-0.3,0.6,756,879,0,881.0,745.0,696.0,556.0
R,,264751.0,0.028,0.115,-0.045,1.3,-0.5,0.0,749,877,0,883.0,734.0,711.0,559.0
R,,264811.0,0.031,0.115,-0.048,1.3,-1.0,-0.8,740,874,0,884.0,683.0,713.0,560.0
R,,264872.0,0.02,0.107,-0.049,2.2,-1.9,-2.1,731,873,0,888.0,644.0,741.0,619.0
R,,264961.0,0.023,0.117,-0.019,0.0,0.0,0.0,735,876,0,795.0,361.0,798.0,667.0
R,,265051.0,0.024,0.11,-0.056,3.5,0.4,2.4,753,880,0,721.0,278.0,857.0,745.0
R,,265113.0,0.03,0.11,-0.052,4.5,-0.5,2.3,759,881,0,682.0,467.0,857.0,745.0
R,,265171.0,0.031,0.107,-0.06,4.9,-0.4,1.6,763,880,0,682.0,467.0,877.0,766.0
R,,265231.0,0.031,0.103,-0.066,3.7,-0.8,0.1,762,883,0,707.0,488.0,886.0,772.0
R,,265291.0,0.031,0.102,-0.064,2.7,-0.8,-0.9,763,881,0,710.0,491.0,892.0,767.0
R,,265351.0,0.027,0.099,-0.067,1.7,-1.1,-0.7,766,882,0,694.0,485.0,895.0,745.0
R,,265412.0,0.027,0.099,-0.069,1.2,-0.7,-0.7,766,883,0,755.0,532.0,894.0,731.0
R,,265471.0,0.027,0.099,-0.07,0.9,-0.5,0.0,770,886,0,762.0,548.0,897.0,715.0
R,,265561.0,0.028,0.098,-0.07,0.2,-0.6,0.2,769,885,0,841.0,703.0,900.0,644.0
R,,265622.0,0.028,0.098,-0.07,0.3,-0.5,0.1,771,888,0,859.0,728.0,900.0,266.0
R,,265681.0,0.028,0.098,-0.07,0.6,-0.4,-0.3,775,888,0,866.0,734.0,778.0,437.0
R,,265742.0,0.028,0.098,-0.071,0.5,-0.4,-0.9,773,886,0,866.0,734.0,696.0,535.0
R,,265801.0,0.027,0.098,-0.071,0.1,-0.4,-1.3,773,886,0,876.0,745.0,696.0,541.0
R,,265863.0,0.024,0.097,-0.071,0.0,-0.3,-1.0,775,888,0,882.0,746.0,703.0,547.0
R,,265921.0,0.023,0.098,-0.072,-0.3,-0.1,-0.2,775,889,0,882.0,745.0,704.0,547.0
R,,265981.0,0.025,0.098,-0.069,-1.0,-0.6,0.6,775,889,0,880.0,689.0,704.0,547.0
R,,266041.0,0.026,0.099,-0.071,-1.5,-0.6,0.3,772,884,0,880.0,689.0,708.0,547.0
R,,266101.0,0.027,0.101,-0.071,-2.4,-0.2,-0.6,765,882,0,884.0,637.0,726.0,582.0
R,,266162.0,0.03,0.106,-0.07,-4.0,-0.2,-3.1,762,878,0,877.0,549.0,811.0,677.0
R,,266221.0,0.026,0.112,-0.069,-6.8,-0.3,-5.5,762,879,0,776.0,267.0,842.0,717.0
R,,266282.0,0.026,0.113,-0.074,-6.0,-2.6,-4.9,750,876,0,658.0,416.0,852.0,737.0
R,,266341.0,0.029,0.135,-0.05,-3.2,-3.7,-3.8,708,874,0,674.0,440.0,865.0,752.0
R,,266401.0,0.007,0.093,-0.054,-0.6,-8.6,-2.4,646,817,0,661.0,431.0,869.0,756.0
R,,266461.0,0.035,0.067,-0.034,-3.2,-13.1,8.2,587,745,0,650.0,434.0,869.0,756.0
R,,266523.0,0.037,0.081,-0.033,4.7,-12.8,13.8,587,747,0,601.0,405.0,880.0,770.0
R,,266611.0,0.023,0.129,-0.045,6.8,-5.8,14.7,592,747,0,681.0,466.0,893.0,771.0
R,,266671.0,-0.002,0.121,-0.064,6.4,-4.3,9.2,592,749,0,688.0,472.0,898.0,735.0
R,,266730.0,0.001,0.118,-0.046,2.7,-5.1,5.2,586,749,0,768.0,575.0,898.0,722.0
R,,266791.0,0.055,0.139,-0.091,6.7,0.2,-7.1,648,779,0,798.0,643.0,898.0,603.0
R,,266851.0,0.014,0.103,-0.075,-4.2,-2.4,-6.2,695,817,0,839.0,703.0,893.0,190.0
R,,266912.0,0.019,0.093,-0.078,4.4,-3.3,-2.1,723,843,0,850.0,722.0,703.0,487.0
R,,266971.0,0.015,0.099,-0.085,-0.1,-3.2,-1.5,744,860,0,860.0,733.0,701.0,524.0
R,,267032.0,0.009,0.086,-0.078,-0.3,-3.5,-0.9,754,870,0,864.0,734.0,693.0,540.0
R,,267091.0,0.011,0.096,-0.081,0.3,-2.6,-0.1,762,876,0,866.0,735.0,705.0,551.0
R,,267151.0,0.009,0.093,-0.085,0.6,-2.8,-0.1,767,881,0,881.0,743.0,705.0,551.0
R,,267211.0,0.007,0.093,-0.083,-2.4,-2.6,0.0,768,886,0,881.0,743.0,719.0,562.0
R,,267273.0,0.003,0.094,-0.082,-4.1,-2.4,0.0,768,889,0,877.0,728.0,718.0,563.0
R,,267332.0,0.006,0.101,-0.073,-2.7,-2.2,-0.5,770,890,0,886.0,673.0,723.0,565.0
R,,267391.0,0.005,0.1,-0.077,-2.4,-2.1,-1.2,766,890,0,886.0,631.0,772.0,646.0
R,,267452.0,0.0,0.099,-0.074,-2.7,-2.9,-1.4,759,893,0,768.0,337.0,822.0,687.0
R,,267511.0,-0.005,0.101,-0.073,-1.2,-3.0,-1.5,751,897,0,759.0,433.0,840.0,720.0
R,,267572.0,-0.002,0.111,-0.063,-2.6,-3.4,-1.2,728,896,0,704.0,469.0,856.0,744.0
R,,267662.0,-0.01,0.109,-0.068,-2.2,-4.7,-1.8,724,897,0,686.0,466.0,883.0,772.0
R,,267721.0,-0.004,0.123,-0.073,-3.6,-2.7,-3.0,724,901,0,649.0,436.0,888.0,774.0
R,,267782.0,0.001,0.137,-0.071,-3.5,-2.6,-7.0,702,897,0,651.0,439.0,895.0,773.0
R,,267841.0,-0.003,0.132,-0.091,-5.7,-7.9,-5.3,628,898,0,672.0,460.0,893.0,756.0
R,,267901.0,-0.026,0.102,-0.107,-3.0,-12.3,-2.0,451,871,0,688.0,462.0,898.0,723.0
R,,267961.0,-0.04,0.114,-0.08,-2.8,-21.7,-0.4,440,794,0,729.0,505.0,897.0,696.0
R,,268023.0,0.022,0.046,0.0,-0.8,-25.3,1.6,457,683,0,781.0,613.0,901.0,476.0
R,,268082.0,0.03,0.073,0.026,5.3,-14.0,6.2,475,680,0,829.0,690.0,890.0,176.0
R,,268141.0,0.018,0.097,0.038,5.7,-6.5,10.6,481,679,0,848.0,717.0,625.0,461.0
R,,268202.0,0.006,0.104,0.019,7.7,0.1,14.5,498,683,0,866.0,735.0,625.0,461.0
R,,268261.0,0.022,0.128,-0.002,10.5,4.3,14.4,509,693,0,866.0,735.0,686.0,510.0
R,,268322.0,0.024,0.131,-0.02,11.7,8.8,14.1,512,692,0,876.0,744.0,674.0,520.0
R,,268381.0,0.027,0.138,-0.058,11.0,13.1,11.9,512,698,0,879.0,745.0,674.0,523.0
R,,268441.0,0.029,0.143,-0.07,7.1,14.1,11.0,517,701,0,883.0,746.0,691.0,543.0
R,,268501.0,0.013,0.128,-0.079,6.1,10.2,7.7,521,709,0,882.0,733.0,696.0,548.0
R,,268561.0,-0.005,0.118,-0.076,3.5,3.0,5.2,528,718,0,884.0,672.0,712.0,555.0
R,,268622.0,0.008,0.118,-0.059,1.1,-1.3,0.4,525,718,0,884.0,672.0,752.0,626.0
R,,268683.0,0.052,0.086,-0.077,4.1,3.7,-3.0,570,728,0,886.0,511.0,803.0,671.0
R,,268742.0,0.067,0.14,-0.078,9.8,-14.0,-13.7,640,775,0,886.0,511.0,837.0,713.0
R,,268832.0,0.033,0.093,-0.057,2.8,-2.2,-10.7,720,838,0,727.0,482.0,863.0,752.0
R,,268891.0,0.03,0.094,-0.075,3.4,-2.7,-7.4,739,860,0,695.0,456.0,880.0,772.0
R,,268952.0,0.025,0.103,-0.077,3.2,-2.8,-5.6,756,872,0,650.0,433.0,889.0,774.0
R,,269011.0,0.011,0.088,-0.09,-0.5,-2.6,-4.8,764,880,0,637.0,423.0,895.0,759.0
R,,269072.0,0.011,0.097,-0.079,-3.2,-1.9,-3.9,768,884,0,689.0,462.0,898.0,750.0
R,,269131.0,0.003,0.097,-0.072,-6.0,-2.8,-3.3,773,890,0,760.0,526.0,898.0,735.0
R,,269191.0,0.002,0.099,-0.076,-2.8,-1.8,-2.5,771,891,0,781.0,593.0,897.0,706.0
R,,269251.0,-0.001,0.1,-0.07,-1.2,-2.0,-1.6,773,894,0,831.0,687.0,899.0,644.0
R,,269311.0,-0.001,0.102,-0.07,-0.7,-2.1,-0.3,773,895,0,854.0,718.0,910.0,225.0
R,,269372.0,-0.001,0.104,-0.068,-0.9,-2.1,-0.1,773,895,0,865.0,732.0,762.0,502.0
R,,269433.0,-0.003,0.105,-0.071,-1.1,-2.3,-0.3,771,897,0,869.0,738.0,698.0,510.0
R,,269492.0,0.0,0.108,-0.067,-2.2,-3.2,-0.7,761,898,0,877.0,744.0,698.0,535.0
R,,269551.0,-0.003,0.107,-0.064,-2.3,-3.6,-1.2,747,900,0,880.0,745.0,696.0,545.0
R,,269612.0,-0.006,0.109,-0.059,-2.3,-3.3,-1.9,735,899,0,883.0,747.0,693.0,547.0
R,,269671.0,-0.011,0.11,-0.056,-2.7,-3.4,-2.1,719,899,0,885.0,738.0,700.0,557.0
R,,269731.0,-0.015,0.113,-0.057,-2.2,-3.7,-2.4,701,900,0,883.0,679.0,705.0,567.0
R,,269791.0,-0.014,0.116,-0.058,-3.7,-2.3,-2.8,706,897,0,885.0,658.0,714.0,562.0
R,,269851.0,-0.015,0.128,-0.064,-5.4,-2.0,-1.7,699,896,0,841.0,611.0,761.0,632.0
R,,269912.0,0.002,0.145,-0.054,-7.2,-6.2,-2.3,622,895,0,876.0,530.0,803.0,669.0
R,,270001.0,-0.013,0.128,-0.078,-4.3,-6.3,-2.7,521,856,0,829.0,313.0,857.0,743.0
R,,270091.0,0.013,0.07,-0.091,-4.3,-23.3,2.7,467,680,0,701.0,485.0,874.0,764.0
R,,270152.0,0.043,0.07,-0.007,1.6,-20.2,5.1,503,713,0,688.0,474.0,885.0,775.0
R,,270213.0,0.04,0.084,0.029,8.6,-3.4,7.8,516,715,0,676.0,479.0,891.0,774.0
R,,270271.0,0.021,0.095,0.0,12.2,6.9,11.0,520,720,0,695.0,491.0,895.0,776.0
