side,stage,device_ms,ax,ay,az,gx,gy,gz,toe,heel,phase
R,,5611560,0.015,0.149,-0.075,7.2,26.6,15.5,611,753,0
R,,5611570,0.015,0.148,-0.072,7.3,26.4,15.8,610,755,0
R,,5611580,0.021,0.157,-0.063,7.9,27.1,17.1,609,758,0
R,,5611590,0.025,0.175,-0.064,6.7,27.9,17.2,608,757,0
R,,5611600,0.022,0.182,-0.055,5.7,29.2,15.0,608,758,0
R,,5611610,0.015,0.181,-0.055,3.9,30.9,13.1,609,759,0
R,,5611620,0.017,0.181,-0.053,3.2,33.6,11.7,608,761,0
R,,5611630,0.028,0.176,-0.064,2.6,35.6,9.7,606,759,0
R,,5611640,0.025,0.165,-0.072,4.7,37.7,7.4,604,759,0
R,,5611650,0.007,0.160,-0.082,5.7,38.8,6.3,603,759,0
R,,5611660,0.000,0.158,-0.087,9.9,38.8,5.7,606,762,0
R,,5611670,-0.008,0.149,-0.102,8.3,39.1,4.5,606,760,0
R,,5611680,-0.010,0.138,-0.098,7.5,37.8,4.3,603,763,0
R,,5611690,-0.015,0.164,-0.092,7.9,37.0,3.4,603,763,0
R,,5611700,-0.032,0.159,-0.098,4.6,35.6,-0.2,602,764,0
R,,5611710,-0.061,0.146,-0.139,-6.1,31.1,-0.5,604,767,0
R,,5611720,-0.084,0.131,-0.123,-6.3,25.2,-0.2,602,768,0
R,,5611730,-0.093,0.126,-0.102,0.8,23.3,-1.1,601,771,0
R,,5611740,-0.090,0.126,-0.119,2.3,20.4,-1.8,602,772,0
R,,5611750,-0.099,0.114,-0.131,0.3,15.7,-2.3,602,770,0
R,,5611760,-0.114,0.114,-0.138,0.4,8.4,-2.7,607,774,0
R,,5611770,-0.100,0.119,-0.135,1.0,2.3,-3.3,612,776,0
R,,5611780,-0.076,0.122,-0.120,1.1,-3.3,-4.3,613,776,0
R,,5611790,-0.062,0.120,-0.108,0.3,-9.0,-4.8,616,779,0
R,,5611800,-0.057,0.109,-0.088,0.1,-12.4,-5.2,618,782,0
R,,5611810,-0.055,0.107,-0.074,0.6,-13.5,-5.2,617,781,0
R,,5611820,-0.048,0.099,-0.078,3.6,-12.5,-5.3,633,777,0
R,,5611830,0.049,0.127,-0.098,1.4,-10.8,-3.2,659,778,0
R,,5611840,0.158,0.090,-0.125,7.3,-24.1,0.0,685,793,0
R,,5611850,0.204,0.113,-0.083,5.5,-37.5,1.3,689,792,0
R,,5611860,0.167,0.098,0.043,-4.6,-41.0,5.3,695,798,0
R,,5611870,0.058,0.133,0.104,-11.6,-24.5,6.9,700,803,0
R,,5611880,0.039,0.190,0.092,2.7,-5.5,2.2,707,812,0
R,,5611890,0.062,0.229,-0.001,11.4,10.1,-5.8,709,816,0
R,,5611900,0.010,0.218,-0.083,5.8,9.8,-10.2,713,815,0
R,,5611910,-0.022,0.172,-0.102,-1.8,1.0,-15.2,715,821,0
R,,5611920,-0.003,0.114,-0.110,2.2,-11.2,-18.1,720,826,0
R,,5611930,0.022,0.078,-0.045,2.1,-17.5,-13.9,720,828,0
R,,5611940,0.030,0.077,0.008,3.1,-15.6,-8.8,726,831,0
R,,5611950,0.027,0.097,0.038,6.2,-8.2,-4.8,726,834,0
R,,5611960,0.017,0.130,0.019,7.1,1.2,-2.1,727,838,0
R,,5611970,0.010,0.140,-0.036,5.5,5.6,-4.2,728,837,0
R,,5611980,0.007,0.131,-0.074,6.7,5.3,-8.4,732,840,0
R,,5611990,0.024,0.119,-0.088,12.4,3.0,-9.7,735,845,0
R,,5612000,0.020,0.113,-0.085,12.0,-1.1,-9.4,740,849,0
R,,5612010,0.013,0.098,-0.054,10.0,-3.1,-8.0,741,852,0
R,,5612020,0.021,0.096,-0.049,8.3,-1.5,-6.9,743,851,0
R,,5612030,0.025,0.093,-0.058,6.3,0.0,-5.4,744,858,0
R,,5612040,0.025,0.099,-0.065,5.9,0.2,-4.2,746,856,0
R,,5612050,0.021,0.105,-0.074,4.1,-1.1,-3.4,747,859,0
R,,5612060,0.016,0.112,-0.072,1.0,-2.7,-3.0,749,862,0
R,,5612070,0.016,0.112,-0.067,0.0,-4.3,-3.9,752,866,0
R,,5612080,0.022,0.117,-0.048,2.6,-4.4,-4.4,755,867,0
R,,5612090,0.024,0.113,-0.040,2.9,-3.5,-4.7,757,869,0
R,,5612100,0.027,0.111,-0.038,2.8,-2.2,-4.2,757,870,0
R,,5612110,0.025,0.113,-0.045,1.8,-0.7,-3.4,759,874,0
R,,5612120,0.024,0.116,-0.058,2.0,-1.4,-3.1,764,874,0
R,,5612130,0.024,0.117,-0.058,1.7,-2.6,-3.4,765,877,0
R,,5612140,0.024,0.116,-0.055,1.5,-2.6,-4.1,765,880,0
R,,5612150,0.022,0.112,-0.054,1.6,-2.2,-4.5,767,879,0
R,,5612160,0.021,0.111,-0.059,1.3,-1.6,-4.3,767,881,0
R,,5612170,0.015,0.107,-0.061,1.1,-1.7,-6.6,768,881,0
R,,5612180,0.010,0.105,-0.065,0.9,-1.8,-4.3,769,884,0
R,,5612190,0.012,0.105,-0.063,1.1,-2.6,-3.9,770,885,0
R,,5612200,0.011,0.105,-0.060,1.1,-3.1,-3.4,771,885,0
R,,5612210,0.013,0.109,-0.055,0.9,-3.5,-3.0,770,886,0
R,,5612220,0.012,0.107,-0.053,0.4,-2.9,-3.1,772,885,0
R,,5612230,0.013,0.108,-0.051,1.0,-2.6,-3.0,771,888,0
R,,5612240,0.011,0.109,-0.053,1.0,-2.2,-2.7,770,889,0
R,,5612250,0.012,0.109,-0.057,1.0,-2.0,-2.5,771,887,0
R,,5612260,0.010,0.110,-0.059,0.9,-2.3,-2.6,770,889,0
R,,5612270,0.010,0.111,-0.058,0.6,-2.6,-2.5,772,889,0
R,,5612280,0.009,0.111,-0.057,0.6,-2.5,-2.8,772,891,0
R,,5612290,0.010,0.112,-0.056,0.3,-2.2,-2.9,773,891,0
R,,5612300,0.011,0.109,-0.060,0.0,-1.9,-3.1,774,892,0
R,,5612310,0.013,0.108,-0.060,0.1,-1.9,-3.0,775,893,0
R,,5612320,0.009,0.110,-0.060,0.3,-1.8,-2.9,773,891,0
R,,5612330,0.002,0.110,-0.062,-0.1,-1.9,-2.9,770,891,0
R,,5612340,0.002,0.109,-0.059,-0.3,-2.3,-2.9,770,891,0
R,,5612350,0.003,0.108,-0.057,-0.2,-2.3,-3.0,771,893,0
R,,5612360,0.003,0.108,-0.057,-0.1,-2.4,-2.8,770,893,0
R,,5612370,0.003,0.110,-0.056,-0.2,-2.1,-2.4,771,893,0
R,,5612380,0.005,0.113,-0.058,-0.2,-1.8,-2.6,769,895,0
R,,5612390,0.003,0.112,-0.060,-0.5,-1.8,-2.6,769,896,0
R,,5612400,0.003,0.110,-0.060,-0.4,-2.1,-2.6,770,896,0
R,,5612410,0.000,0.109,-0.057,-0.3,-2.5,-2.6,767,896,0
R,,5612420,0.000,0.107,-0.054,-0.3,-2.2,-2.4,768,895,0
R,,5612430,0.003,0.108,-0.055,-0.4,-1.8,-2.0,766,894,0
R,,5612440,0.002,0.108,-0.055,-0.5,-1.7,-1.8,764,895,0
R,,5612450,0.000,0.109,-0.057,-0.6,-1.4,-1.7,765,897,0
R,,5612460,-0.002,0.108,-0.058,-0.7,-1.5,-1.7,765,897,0
R,,5612470,-0.002,0.107,-0.059,-0.8,-1.7,-1.6,765,898,0
R,,5612480,-0.002,0.107,-0.059,-0.9,-2.2,-1.4,762,898,0
R,,5612490,-0.002,0.109,-0.055,-0.7,-2.3,-1.3,762,896,0
R,,5612500,0.000,0.111,-0.053,-0.4,-2.1,-1.2,761,895,0
R,,5612510,-0.001,0.112,-0.054,-0.5,-1.9,-1.3,761,899,0
R,,5612520,-0.002,0.111,-0.055,-1.0,-1.7,-1.4,761,899,0
R,,5612530,-0.001,0.110,-0.055,-0.8,-1.6,-1.5,761,895,0
R,,5612540,-0.001,0.110,-0.055,-0.8,-1.6,-1.4,759,898,0
R,,5612550,-0.002,0.110,-0.055,-0.6,-1.4,-1.3,759,899,0
R,,5612560,-0.002,0.113,-0.055,-0.9,-1.5,-1.3,759,899,0
R,,5612570,-0.002,0.114,-0.057,-1.2,-1.2,-1.5,759,899,0
R,,5612580,-0.001,0.113,-0.060,-1.2,-1.4,-1.2,760,898,0
R,,5612590,-0.003,0.114,-0.059,-1.3,-2.1,-1.1,756,901,0
R,,5612600,-0.003,0.114,-0.056,-1.1,-2.3,-1.2,756,899,0
R,,5612610,-0.002,0.114,-0.054,-1.2,-2.1,-1.3,754,900,0
R,,5612620,-0.002,0.114,-0.055,-1.7,-1.8,-1.4,752,900,0
R,,5612630,-0.002,0.114,-0.056,-2.5,-1.4,-1.4,748,900,0
R,,5612640,-0.004,0.114,-0.059,-2.7,-1.5,-1.5,744,900,0
R,,5612650,-0.006,0.113,-0.060,-2.8,-1.8,-1.4,740,899,0
R,,5612660,-0.006,0.114,-0.061,-2.5,-2.1,-1.3,738,901,0
R,,5612670,-0.005,0.114,-0.063,-2.8,-3.0,-1.4,729,900,0
R,,5612680,-0.003,0.113,-0.055,-2.3,-3.7,-0.9,722,900,0
R,,5612690,-0.004,0.115,-0.050,-2.0,-3.2,-0.6,714,902,0
R,,5612700,-0.004,0.120,-0.050,-3.2,-2.6,-0.6,706,902,0
R,,5612710,-0.006,0.123,-0.056,-4.0,-2.2,-0.7,690,902,0
R,,5612720,-0.001,0.124,-0.060,-4.9,-2.4,-0.9,670,901,0
R,,5612730,-0.002,0.125,-0.060,-5.1,-3.1,-1.3,654,902,0
R,,5612740,-0.004,0.126,-0.058,-5.6,-3.8,-1.6,649,901,0
R,,5612750,0.002,0.123,-0.058,-6.3,-4.1,-1.9,646,900,0
R,,5612760,0.000,0.122,-0.054,-4.6,-4.0,-2.4,636,900,0
R,,5612770,-0.003,0.122,-0.052,-5.5,-3.4,-2.5,636,899,0
R,,5612780,-0.007,0.120,-0.057,-6.9,-3.3,-2.4,632,897,0
R,,5612790,-0.004,0.122,-0.060,-6.8,-4.0,-1.8,630,896,0
R,,5612800,-0.003,0.127,-0.056,-6.2,-5.7,-1.8,625,894,0
R,,5612810,-0.002,0.130,-0.049,-4.1,-7.1,-2.5,614,895,0
R,,5612820,-0.004,0.131,-0.041,-3.5,-8.0,-2.9,612,893,0
R,,5612830,0.000,0.133,-0.025,-2.0,-8.2,-3.7,612,891,0
R,,5612840,0.004,0.133,-0.018,-3.0,-6.3,-5.2,611,889,0
R,,5612850,0.003,0.133,-0.017,-3.8,-4.5,-5.6,614,887,0
R,,5612860,0.002,0.130,-0.023,-5.1,-3.1,-6.4,608,888,0
R,,5612870,0.000,0.128,-0.031,-5.0,-1.9,-7.2,603,883,0
R,,5612880,-0.006,0.124,-0.041,-4.8,-1.9,-8.0,599,881,0
R,,5612890,-0.005,0.122,-0.043,-4.1,-2.7,-8.2,596,881,0
R,,5612900,-0.008,0.123,-0.045,-3.4,-3.0,-8.5,589,877,0
R,,5612910,-0.016,0.122,-0.044,-3.2,-3.1,-8.0,585,875,0
R,,5612920,-0.019,0.122,-0.043,-2.9,-3.8,-7.7,582,871,0
R,,5612930,-0.025,0.123,-0.036,-2.1,-4.1,-8.0,576,868,0
R,,5612940,-0.028,0.125,-0.036,-1.5,-3.8,-8.0,572,867,0
R,,5612950,-0.023,0.122,-0.040,-4.4,-4.5,-8.1,563,862,0
R,,5612960,-0.020,0.119,-0.034,-1.1,-4.5,-8.3,559,856,0
R,,5612970,-0.016,0.120,-0.032,-1.3,-4.4,-8.3,556,852,0
R,,5612980,-0.019,0.123,-0.019,0.5,-3.1,-8.5,554,847,0
R,,5612990,-0.012,0.127,-0.010,0.9,-0.2,-9.6,565,835,0
R,,5613000,-0.027,0.130,-0.006,0.5,2.3,-9.9,572,824,0
R,,5613010,-0.040,0.123,-0.021,-1.2,5.2,-9.8,575,809,0
R,,5613020,-0.045,0.116,-0.059,-1.3,5.8,-10.1,587,802,0
R,,5613030,-0.055,0.106,-0.068,-0.4,4.4,-9.9,600,789,0
R,,5613040,-0.064,0.103,-0.072,2.7,0.1,-8.7,614,784,0
R,,5613050,-0.052,0.100,-0.061,4.6,-3.0,-7.7,618,777,0
R,,5613060,-0.007,0.095,-0.037,3.9,-5.5,-8.9,614,776,0
R,,5613070,0.016,0.074,-0.015,2.9,-3.6,-9.9,615,768,0
R,,5613080,-0.010,0.042,-0.006,0.4,0.6,-6.8,623,780,0
R,,5613090,-0.020,0.028,-0.047,-1.7,8.2,-1.0,622,787,0
R,,5613100,-0.037,0.032,-0.111,-2.5,7.9,2.1,624,789,0
R,,5613110,-0.060,0.030,-0.176,2.9,0.1,4.8,623,790,0
R,,5613155,-0.003,0.035,-0.042,11.4,-24.1,13.4,620,796,0
R,,5613214,0.007,0.115,-0.005,6.6,-36.9,26.5,613,787,0
R,,5613275,0.002,0.143,0.003,4.3,-24.4,25.8,611,780,0
R,,5613334,0.027,0.170,0.002,4.4,-30.1,26.3,605,790,0
R,,5613394,0.034,0.144,-0.004,4.6,-23.4,17.3,591,788,0
R,,5613455,0.023,0.143,-0.021,0.8,-12.9,11.1,580,785,0
R,,5613514,0.024,0.130,-0.026,-0.4,-5.0,1.8,566,786,0
R,,5613576,0.015,0.111,-0.036,-7.2,-3.6,3.5,555,787,0
R,,5613634,0.021,0.091,-0.093,1.3,5.8,-0.6,588,804,0
R,,5613695,0.037,0.129,-0.033,-1.0,-3.7,3.9,656,828,0
R,,5613785,0.032,0.121,-0.036,0.7,0.2,-1.1,709,849,0
R,,5613844,0.022,0.111,-0.040,1.7,-0.4,-0.7,720,857,0
R,,5613934,0.025,0.116,-0.038,2.0,-0.4,-0.5,738,867,0
R,,5613994,0.024,0.111,-0.048,2.1,-0.2,0.3,743,872,0
R,,5614054,0.028,0.113,-0.042,1.8,-0.1,0.3,746,874,0
R,,5614115,0.027,0.115,-0.049,1.6,-0.2,-0.3,749,876,0
R,,5614174,0.026,0.113,-0.054,0.8,-0.7,-0.6,751,879,0
R,,5614235,0.024,0.112,-0.048,0.4,-0.8,-0.5,754,879,0
R,,5614294,0.025,0.111,-0.041,0.0,-0.6,-0.1,757,882,0
R,,5614356,0.024,0.111,-0.043,0.8,0.0,0.1,764,887,0
R,,5614415,0.026,0.111,-0.051,1.0,0.1,0.2,763,883,0
R,,5614474,0.026,0.111,-0.051,0.3,-0.4,0.1,764,883,0
R,,5614535,0.026,0.110,-0.049,0.0,-0.5,0.2,763,884,0
R,,5614594,0.027,0.111,-0.048,0.0,-0.7,0.2,764,882,0
R,,5614655,0.027,0.111,-0.048,0.2,-0.3,0.2,766,884,0
R,,5614714,0.027,0.110,-0.051,0.2,-0.3,0.2,765,880,0
R,,5614775,0.028,0.110,-0.050,0.0,-0.6,0.3,763,881,0
R,,5614834,0.028,0.110,-0.049,0.0,-0.5,0.3,765,880,0
R,,5614894,0.028,0.110,-0.050,0.1,-0.5,0.2,764,880,0
R,,5614985,0.029,0.110,-0.050,0.3,-0.4,0.2,763,880,0
R,,5615044,0.029,0.110,-0.050,0.2,-0.5,0.2,767,880,0
R,,5615106,0.029,0.110,-0.051,0.2,-0.4,0.0,770,883,0
R,,5615165,0.029,0.109,-0.051,0.2,-0.4,0.0,766,878,0
R,,5615224,0.029,0.109,-0.051,0.1,-0.4,0.0,768,880,0
R,,5615284,0.029,0.109,-0.051,0.2,-0.4,0.0,766,880,0
R,,5615344,0.029,0.110,-0.051,0.2,-0.3,0.0,770,881,0
R,,5642455,0.020,0.114,-0.044,0.0,-0.4,0.0,785,893,0
R,,5642465,0.020,0.115,-0.043,0.0,-0.4,0.0,783,893,0
R,,5642475,0.020,0.114,-0.044,0.0,-0.4,0.0,784,892,0
R,,5642485,0.020,0.114,-0.044,0.0,-0.4,0.0,786,892,0
R,,5642495,0.020,0.115,-0.044,0.0,-0.4,0.0,786,895,0
R,,5642505,0.020,0.115,-0.044,0.0,-0.4,0.0,785,893,0
R,,5642515,0.020,0.114,-0.044,0.0,-0.4,0.0,785,893,0
R,,5642525,0.020,0.115,-0.044,0.0,-0.4,0.0,785,895,0
R,,5642535,0.020,0.115,-0.044,0.0,-0.4,0.0,783,892,0
R,,5642545,0.021,0.115,-0.044,0.0,-0.4,-0.1,785,891,0
R,,5642555,0.020,0.114,-0.044,0.0,-0.4,-0.1,785,893,0
R,,5642565,0.020,0.115,-0.044,0.0,-0.4,-0.1,784,891,0
R,,5642575,0.020,0.115,-0.044,0.0,-0.4,-0.1,785,892,0
R,,5642585,0.020,0.115,-0.044,0.0,-0.4,-0.1,786,892,0
R,,5642595,0.020,0.115,-0.044,0.0,-0.4,-0.1,785,894,0
R,,5642605,0.020,0.115,-0.044,0.0,-0.4,-0.1,786,893,0
R,,5642615,0.020,0.114,-0.044,0.0,-0.4,-0.1,784,892,0
R,,5642625,0.020,0.115,-0.044,0.0,-0.3,-0.1,784,893,0
R,,5642635,0.020,0.115,-0.044,0.0,-0.4,-0.1,784,894,0
R,,5642645,0.020,0.115,-0.043,0.0,-0.4,-0.1,786,892,0
R,,5642655,0.020,0.115,-0.043,0.0,-0.4,-0.1,785,895,0
R,,5642665,0.020,0.114,-0.044,0.0,-0.4,-0.1,785,893,0
R,,5642675,0.020,0.115,-0.044,0.0,-0.4,-0.1,784,894,0
R,,5642685,0.020,0.115,-0.043,0.0,-0.4,-0.1,784,893,0
R,,5642695,0.020,0.114,-0.044,0.0,-0.4,-0.1,785,894,0
R,,5642705,0.020,0.115,-0.044,0.0,-0.4,-0.1,784,891,0
R,,5642715,0.020,0.115,-0.044,0.0,-0.4,-0.1,784,893,0
R,,5642725,0.020,0.115,-0.044,0.0,-0.4,-0.1,784,892,0
R,,5642735,0.020,0.115,-0.044,0.0,-0.4,-0.1,783,894,0
R,,5642745,0.020,0.114,-0.044,0.0,-0.4,-0.1,786,892,0
R,,5642755,0.020,0.114,-0.043,0.0,-0.4,0.0,786,893,0
R,,5642765,0.020,0.115,-0.044,0.0,-0.4,0.0,786,894,0
R,,5642775,0.020,0.115,-0.043,0.0,-0.4,0.0,787,892,0
R,,5642785,0.020,0.114,-0.043,0.0,-0.4,0.0,785,892,0
R,,5642795,0.020,0.114,-0.044,0.0,-0.4,0.0,785,894,0
R,,5642805,0.020,0.115,-0.044,0.0,-0.4,0.0,786,894,0
R,,5642815,0.020,0.115,-0.044,0.0,-0.4,-0.1,785,892,0
R,,5642825,0.020,0.115,-0.043,0.0,-0.4,-0.1,786,894,0
R,,5642835,0.020,0.114,-0.044,0.0,-0.4,-0.1,783,893,0
R,,5642845,0.020,0.115,-0.044,0.0,-0.4,-0.1,786,892,0
R,,5642855,0.020,0.115,-0.044,0.0,-0.4,-0.1,786,895,0
R,,5642865,0.020,0.115,-0.044,0.0,-0.4,0.0,785,893,0
R,,5642875,0.020,0.115,-0.043,0.0,-0.4,-0.1,785,893,0
R,,5642885,0.020,0.114,-0.044,0.0,-0.4,0.0,785,894,0
R,,5642895,0.020,0.114,-0.044,0.0,-0.4,0.0,785,891,0
R,,5642905,0.020,0.115,-0.044,0.0,-0.4,0.0,786,891,0
R,,5642915,0.020,0.115,-0.043,0.0,-0.4,0.0,785,894,0
R,,5642925,0.020,0.115,-0.044,0.0,-0.4,0.0,784,894,0
R,,5642935,0.020,0.115,-0.044,0.0,-0.4,0.0,783,892,0
R,,5642945,0.020,0.115,-0.043,0.0,-0.4,0.0,783,894,0
R,,5642955,0.020,0.115,-0.043,0.0,-0.4,0.0,785,892,0
R,,5642965,0.021,0.115,-0.044,0.0,-0.4,0.0,785,893,0
R,,5642975,0.020,0.115,-0.043,0.0,-0.4,0.0,784,894,0
R,,5642985,0.020,0.115,-0.044,0.0,-0.4,0.0,787,891,0
R,,5642995,0.020,0.115,-0.043,0.0,-0.4,0.0,785,892,0
R,,5643005,0.020,0.115,-0.043,0.0,-0.3,0.0,785,894,0
R,,5643015,0.020,0.114,-0.044,0.0,-0.4,0.0,785,894,0
R,,5643025,0.020,0.115,-0.043,0.0,-0.4,0.0,784,893,0
R,,5643035,0.020,0.115,-0.044,0.0,-0.4,0.0,786,892,0
R,,5643045,0.020,0.115,-0.043,0.0,-0.4,0.0,786,892,0
R,,5643055,0.020,0.115,-0.043,0.0,-0.4,0.0,785,893,0
R,,5643065,0.021,0.115,-0.044,0.0,-0.4,0.0,783,891,0
R,,5643075,0.020,0.115,-0.043,0.0,-0.4,0.0,783,893,0
R,,5643085,0.020,0.115,-0.043,0.0,-0.4,0.0,785,894,0
R,,5643095,0.020,0.115,-0.043,0.0,-0.4,0.0,785,893,0
R,,5643105,0.020,0.115,-0.043,0.0,-0.4,0.0,785,894,0
R,,5643115,0.020,0.114,-0.044,0.0,-0.4,0.0,784,893,0
R,,5643125,0.020,0.115,-0.044,0.0,-0.4,0.0,784,892,0
R,,5643135,0.020,0.115,-0.044,0.0,-0.4,0.0,785,892,0
R,,5643145,0.020,0.115,-0.043,0.0,-0.4,0.0,785,893,0
R,,5643155,0.020,0.115,-0.043,0.0,-0.4,0.0,786,893,0
R,,5643165,0.020,0.115,-0.043,0.0,-0.4,0.0,784,893,0
R,,5643175,0.020,0.115,-0.043,0.0,-0.4,0.0,785,894,0
R,,5643185,0.020,0.115,-0.044,0.0,-0.4,0.0,785,892,0
R,,5643195,0.020,0.114,-0.044,0.0,-0.4,0.0,786,891,0
R,,5643205,0.020,0.115,-0.044,0.0,-0.4,0.0,785,894,0
R,,5643215,0.020,0.115,-0.044,0.0,-0.4,0.0,784,892,0
R,,5643225,0.020,0.115,-0.044,0.0,-0.4,0.0,785,894,0
R,,5643235,0.020,0.115,-0.043,0.0,-0.4,0.0,784,895,0
R,,5643245,0.020,0.115,-0.044,0.0,-0.4,0.0,785,895,0
R,,5643255,0.020,0.115,-0.044,0.0,-0.4,0.0,785,893,0
R,,5643265,0.020,0.115,-0.043,0.0,-0.4,0.0,785,894,0
R,,5643275,0.020,0.115,-0.044,0.0,-0.4,-0.1,786,894,0
R,,5643285,0.020,0.114,-0.043,0.0,-0.4,0.0,788,894,0
R,,5643295,0.021,0.114,-0.043,0.0,-0.4,-0.1,785,894,0
R,,5643305,0.020,0.114,-0.044,0.0,-0.4,0.0,784,894,0
R,,5643315,0.020,0.115,-0.044,0.0,-0.4,0.0,785,894,0
R,,5643325,0.020,0.115,-0.044,0.0,-0.4,0.0,785,893,0
R,,5643335,0.020,0.115,-0.044,0.0,-0.4,0.0,785,894,0
R,,5643345,0.020,0.115,-0.043,0.0,-0.4,0.0,785,894,0
R,,5643355,0.020,0.114,-0.044,0.0,-0.4,0.0,785,893,0
R,,5643365,0.020,0.115,-0.044,0.0,-0.4,0.0,783,893,0
R,,5643375,0.020,0.115,-0.043,0.0,-0.4,0.0,785,895,0
R,,5643385,0.020,0.115,-0.043,0.0,-0.4,0.0,786,892,0
R,,5643395,0.020,0.114,-0.044,0.0,-0.4,0.0,783,891,0
R,,5643405,0.020,0.115,-0.043,0.1,-0.4,0.0,784,893,0
R,,5643415,0.020,0.115,-0.043,0.0,-0.4,0.0,788,894,0
R,,5643425,0.020,0.115,-0.044,0.0,-0.4,0.0,785,894,0
R,,5643435,0.020,0.114,-0.044,0.0,-0.4,0.0,785,892,0
R,,5643445,0.020,0.115,-0.043,0.0,-0.4,0.0,787,893,0
R,,5643455,0.020,0.115,-0.043,0.0,-0.4,0.0,786,893,0
R,,5643465,0.020,0.115,-0.044,0.0,-0.4,0.0,785,895,0
R,,5643475,0.020,0.115,-0.044,0.0,-0.4,0.0,786,895,0
R,,5643485,0.020,0.115,-0.044,0.0,-0.4,0.0,785,892,0
R,,5643495,0.021,0.114,-0.043,0.0,-0.4,0.0,784,894,0
R,,5643505,0.020,0.115,-0.044,0.0,-0.3,0.0,786,894,0
R,,5643515,0.020,0.114,-0.044,0.0,-0.4,0.0,786,893,0
R,,5643525,0.020,0.115,-0.044,0.0,-0.4,0.0,786,893,0
R,,5643535,0.021,0.115,-0.043,0.0,-0.4,-0.1,783,893,0
R,,5643545,0.020,0.114,-0.043,0.0,-0.4,-0.1,786,893,0
R,,5643555,0.020,0.114,-0.043,0.0,-0.4,-0.1,786,894,0
R,,5643565,0.020,0.115,-0.044,0.1,-0.3,-0.1,784,893,0
R,,5643575,0.020,0.115,-0.044,0.0,-0.4,-0.1,785,893,0
R,,5643585,0.020,0.114,-0.043,0.0,-0.3,-0.1,785,893,0
R,,5643595,0.020,0.114,-0.044,0.0,-0.4,-0.1,788,894,0
R,,5643605,0.020,0.114,-0.044,0.0,-0.4,0.0,787,893,0
R,,5643615,0.020,0.115,-0.043,0.0,-0.4,-0.1,785,893,0
R,,5643625,0.020,0.114,-0.044,0.0,-0.4,-0.1,786,894,0
R,,5643635,0.020,0.114,-0.044,0.0,-0.4,0.0,786,893,0
R,,5643645,0.020,0.115,-0.043,0.0,-0.4,0.0,784,893,0
R,,5643655,0.020,0.114,-0.044,0.0,-0.4,0.0,786,893,0
R,,5643665,0.020,0.115,-0.043,0.0,-0.4,0.0,784,894,0
R,,5643675,0.020,0.115,-0.044,0.0,-0.4,0.0,785,894,0
R,,5643685,0.020,0.114,-0.043,0.0,-0.4,0.0,785,894,0
R,,5643695,0.020,0.115,-0.043,0.1,-0.4,0.0,784,891,0
R,,5643705,0.020,0.115,-0.044,0.1,-0.4,0.0,785,894,0
R,,5643715,0.020,0.114,-0.044,0.1,-0.4,0.0,785,892,0
R,,5643725,0.020,0.114,-0.043,0.1,-0.4,0.0,785,894,0
R,,5643735,0.020,0.115,-0.044,0.1,-0.4,0.0,784,893,0
R,,5643745,0.020,0.115,-0.044,0.1,-0.4,0.0,786,893,0
R,,5643755,0.021,0.115,-0.044,0.0,-0.4,0.0,785,894,0
R,,5643765,0.021,0.114,-0.043,0.1,-0.5,0.0,786,893,0
R,,5643775,0.021,0.114,-0.043,0.1,-0.4,0.0,785,893,0
R,,5643785,0.021,0.115,-0.044,0.1,-0.4,0.0,783,892,0
R,,5643795,0.021,0.115,-0.044,0.0,-0.4,0.0,786,893,0
R,,5643805,0.021,0.115,-0.043,0.0,-0.4,0.0,784,892,0
R,,5643815,0.021,0.114,-0.044,0.0,-0.4,0.0,785,894,0
R,,5643825,0.020,0.114,-0.044,0.0,-0.4,0.0,786,892,0
R,,5643835,0.021,0.115,-0.044,0.0,-0.5,0.0,785,892,0
R,,5643845,0.021,0.115,-0.044,0.0,-0.4,0.0,786,892,0
R,,5643855,0.021,0.114,-0.044,0.0,-0.4,0.0,783,891,0
R,,5643865,0.021,0.115,-0.044,0.0,-0.4,0.0,785,893,0
R,,5643875,0.021,0.115,-0.044,0.0,-0.4,0.0,785,895,0
R,,5643885,0.021,0.115,-0.043,0.0,-0.4,0.0,785,892,0
R,,5643895,0.020,0.114,-0.043,0.0,-0.4,0.0,785,893,0
R,,5643905,0.021,0.114,-0.044,0.0,-0.4,0.0,787,893,0
R,,5643915,0.021,0.115,-0.044,0.0,-0.4,-0.1,787,893,0
R,,5643925,0.021,0.114,-0.044,0.0,-0.4,-0.1,783,893,0
R,,5643935,0.021,0.115,-0.044,0.0,-0.4,-0.1,785,893,0
R,,5643945,0.021,0.114,-0.044,0.0,-0.4,-0.1,786,894,0
R,,5643955,0.021,0.115,-0.044,0.0,-0.4,-0.1,785,893,0
R,,5643965,0.021,0.115,-0.044,0.0,-0.4,-0.1,785,892,0
R,,5643975,0.021,0.114,-0.044,0.0,-0.4,-0.1,783,894,0
R,,5643985,0.020,0.114,-0.044,0.0,-0.4,-0.1,786,893,0
R,,5644063,0.021,0.115,-0.043,0.0,-0.4,-0.1,783,891,0
R,,5644123,0.020,0.114,-0.044,0.0,-0.4,-0.1,784,891,0
R,,5644183,0.020,0.114,-0.044,0.0,-0.4,0.0,783,893,0
R,,5644243,0.021,0.115,-0.044,0.0,-0.4,0.0,785,891,0
R,,5644333,0.021,0.114,-0.044,0.0,-0.4,-0.1,784,893,0
R,,5644393,0.021,0.114,-0.043,0.0,-0.4,-0.1,784,894,0
R,,5644453,0.021,0.115,-0.043,0.0,-0.4,-0.1,786,891,0
R,,5644513,0.021,0.114,-0.044,0.0,-0.4,-0.1,783,892,0
R,,5644603,0.020,0.115,-0.043,0.0,-0.4,0.0,784,892,0
R,,5644666,0.020,0.115,-0.044,0.0,-0.4,-0.1,785,894,0
R,,5644723,0.021,0.114,-0.044,0.0,-0.4,-0.1,787,891,0
R,,5644783,0.020,0.115,-0.044,0.0,-0.4,-0.1,784,893,0
R,,5644873,0.021,0.114,-0.043,0.0,-0.4,0.0,784,890,0
R,,5644933,0.020,0.115,-0.043,0.0,-0.4,-0.1,784,891,0
R,,5644993,0.020,0.115,-0.043,0.0,-0.4,-0.1,785,894,0
R,,5645053,0.020,0.114,-0.044,0.0,-0.4,-0.1,786,892,0
R,,5645113,0.021,0.114,-0.044,0.0,-0.4,-0.1,783,893,0
R,,5645173,0.020,0.115,-0.043,0.0,-0.4,0.0,785,891,0
R,,5645233,0.020,0.114,-0.043,0.0,-0.4,-0.1,786,894,0
R,,5645292,0.021,0.115,-0.043,0.0,-0.4,-0.1,785,893,0
R,,5645383,0.020,0.114,-0.044,0.0,-0.4,-0.1,783,893,0
R,,5645447,0.020,0.115,-0.044,0.0,-0.4,0.0,786,892,0
R,,5645502,0.020,0.115,-0.043,0.0,-0.4,0.0,785,892,0
R,,5645563,0.021,0.115,-0.043,0.0,-0.4,-0.1,785,894,0
R,,5645623,0.021,0.115,-0.043,0.0,-0.4,-0.1,785,894,0
R,,5645683,0.020,0.115,-0.044,0.0,-0.4,-0.1,785,895,0
R,,5645773,0.020,0.115,-0.043,0.0,-0.4,0.0,784,893,0
R,,5645833,0.020,0.115,-0.043,0.0,-0.4,0.0,786,892,0
R,,5645893,0.020,0.115,-0.043,0.1,-0.4,0.0,784,892,0
R,,5645953,0.020,0.114,-0.044,0.0,-0.4,-0.1,785,893,0
R,,5646013,0.021,0.114,-0.044,0.0,-0.4,-0.1,787,891,0
R,,5646073,0.020,0.114,-0.043,0.1,-0.4,0.0,786,893,0
R,,5646133,0.020,0.114,-0.044,0.0,-0.4,0.0,784,894,0
R,,5646197,0.021,0.115,-0.044,0.0,-0.4,0.0,784,893,0
R,,5646253,0.021,0.114,-0.043,0.0,-0.4,-0.1,786,894,0
R,,5646313,0.020,0.114,-0.044,0.0,-0.4,-0.1,785,891,0
R,,5646373,0.020,0.114,-0.043,0.0,-0.3,0.0,786,895,0
R,,5646463,0.021,0.114,-0.043,0.0,-0.4,-0.1,786,895,0
R,,5646564,0.021,0.115,-0.044,0.1,-0.3,0.0,785,893,0
R,,5646583,0.020,0.114,-0.044,0.0,-0.4,0.0,786,891,0
R,,5646673,0.021,0.114,-0.044,0.0,-0.4,-0.1,784,893,0
R,,5646763,0.021,0.114,-0.044,0.0,-0.4,0.0,785,892,0
R,,5646823,0.021,0.114,-0.043,0.0,-0.4,0.0,785,895,0
R,,5646883,0.020,0.114,-0.044,0.0,-0.4,-0.1,784,892,0
R,,5646947,0.021,0.114,-0.043,0.0,-0.4,0.0,785,894,0
R,,5647003,0.021,0.114,-0.044,0.0,-0.4,0.0,784,894,0
R,,5647093,0.021,0.115,-0.044,0.0,-0.4,-0.1,786,892,0
R,,5647183,0.021,0.114,-0.044,0.0,-0.3,0.0,785,893,0
R,,5647243,0.021,0.114,-0.044,0.0,-0.4,0.0,783,892,0
R,,5647333,0.021,0.115,-0.044,0.0,-0.4,0.0,784,892,0
R,,5647393,0.021,0.114,-0.044,0.0,-0.4,0.0,784,891,0
R,,5647483,0.021,0.115,-0.043,0.0,-0.4,-0.1,789,894,0
R,,5647543,0.021,0.114,-0.044,0.0,-0.4,-0.1,785,894,0
R,,5647603,0.020,0.114,-0.044,0.0,-0.4,-0.1,784,891,0
R,,5647663,0.021,0.115,-0.043,0.0,-0.4,-0.1,784,891,0
R,,5647722,0.021,0.114,-0.044,0.0,-0.4,-0.1,784,895,0
R,,5647817,0.021,0.115,-0.044,0.0,-0.4,-0.1,788,890,0
R,,5647873,0.020,0.114,-0.043,0.0,-0.4,-0.1,785,891,0
R,,5647933,0.020,0.115,-0.043,0.0,-0.4,-0.1,785,893,0
R,,5647993,0.020,0.114,-0.043,0.0,-0.4,0.0,784,894,0
R,,5648053,0.021,0.115,-0.044,0.0,-0.4,0.0,785,894,0
R,,5648113,0.021,0.115,-0.044,0.0,-0.4,-0.1,784,894,0
R,,5648214,0.021,0.115,-0.044,0.0,-0.4,-0.1,783,894,0
R,,5648233,0.021,0.115,-0.043,0.0,-0.3,-0.1,789,896,0
R,,5648323,0.020,0.114,-0.044,0.0,-0.4,-0.1,785,892,0
R,,5648413,0.021,0.115,-0.044,0.0,-0.4,-0.1,785,892,0
R,,5648473,0.020,0.114,-0.043,0.0,-0.4,-0.1,786,894,0
R,,5648563,0.020,0.114,-0.043,0.0,-0.4,-0.1,786,896,0
R,,5648626,0.020,0.115,-0.043,0.0,-0.4,0.0,785,894,0
R,,5648683,0.021,0.114,-0.044,0.0,-0.4,0.0,786,893,0
R,,5648743,0.021,0.115,-0.043,0.0,-0.4,0.0,784,893,0
R,,5648803,0.020,0.114,-0.043,0.0,-0.4,0.0,786,893,0
R,,5648863,0.021,0.115,-0.043,0.0,-0.4,0.0,786,892,0
R,,5648923,0.020,0.115,-0.044,0.0,-0.4,0.0,785,893,0
R,,5648983,0.020,0.115,-0.043,0.0,-0.4,0.0,786,892,0
R,,5649043,0.021,0.114,-0.043,0.0,-0.4,0.0,787,894,0
R,,5649103,0.021,0.115,-0.043,0.0,-0.4,0.0,786,894,0
R,,5649163,0.021,0.115,-0.044,0.0,-0.4,0.0,785,892,0
R,,5649223,0.021,0.115,-0.044,0.0,-0.4,-0.1,786,892,0
R,,5649287,0.021,0.115,-0.043,0.0,-0.4,0.0,785,893,0
R,,5649343,0.021,0.114,-0.043,0.0,-0.4,0.0,786,894,0
R,,5649433,0.021,0.114,-0.043,0.0,-0.4,0.0,786,892,0
R,,5649535,0.020,0.115,-0.044,0.0,-0.4,-0.1,784,893,0
R,,5649583,0.021,0.114,-0.044,0.0,-0.4,-0.1,784,894,0
R,,5649643,0.021,0.114,-0.043,0.0,-0.4,0.0,783,893,0
R,,5649703,0.021,0.114,-0.043,0.0,-0.4,-0.1,783,893,0
R,,5649804,0.021,0.115,-0.044,0.0,-0.4,-0.1,785,894,0
R,,5649823,0.021,0.114,-0.043,0.0,-0.4,-0.1,787,894,0
R,,5649883,0.021,0.115,-0.043,0.0,-0.4,-0.1,786,891,0
R,,5649943,0.021,0.114,-0.043,0.0,-0.4,-0.1,784,892,0
R,,5650003,0.021,0.115,-0.044,0.0,-0.3,-0.1,784,893,0
R,,5650067,0.021,0.115,-0.043,0.0,-0.4,-0.1,784,893,0
R,,5650168,0.021,0.115,-0.043,0.0,-0.4,-0.1,786,895,0
R,,5650183,0.020,0.114,-0.043,0.0,-0.4,0.0,785,891,0
R,,5650243,0.021,0.115,-0.043,0.0,-0.4,0.0,786,894,0
R,,5650302,0.021,0.115,-0.043,0.0,-0.4,0.0,785,891,0
R,,5650363,0.020,0.115,-0.043,0.0,-0.4,0.0,785,891,0
R,,5650453,0.021,0.115,-0.043,0.0,-0.4,-0.1,787,892,0
R,,5650543,0.021,0.114,-0.043,0.0,-0.4,-0.1,786,893,0
R,,5650633,0.021,0.115,-0.043,0.0,-0.4,0.0,787,894,0
R,,5650693,0.021,0.115,-0.043,0.0,-0.4,0.0,785,892,0
R,,5650753,0.021,0.115,-0.043,0.0,-0.4,0.0,786,892,0
R,,5650817,0.021,0.114,-0.044,0.0,-0.4,0.0,786,894,0
R,,5650874,0.021,0.115,-0.043,0.0,-0.4,0.0,786,895,0
R,,5650933,0.021,0.114,-0.043,0.0,-0.4,0.0,783,893,0
R,,5650993,0.021,0.115,-0.043,0.0,-0.4,0.0,786,894,0
R,,5651053,0.021,0.115,-0.043,0.0,-0.4,-0.1,783,891,0
R,,5651113,0.021,0.115,-0.043,0.1,-0.3,-0.1,785,891,0
R,,5651173,0.021,0.115,-0.043,0.0,-0.4,0.0,783,892,0
R,,5651233,0.021,0.115,-0.044,0.0,-0.4,0.0,784,892,0
R,,5651293,0.021,0.114,-0.044,0.0,-0.4,-0.1,785,892,0
R,,5651353,0.021,0.114,-0.043,0.0,-0.4,-0.1,787,893,0
R,,5651414,0.021,0.114,-0.043,0.0,-0.4,0.0,785,891,0
R,,5651473,0.021,0.115,-0.043,0.0,-0.4,-0.1,786,889,0
R,,5651537,0.021,0.114,-0.044,0.0,-0.4,0.0,785,892,0
R,,5651592,0.021,0.115,-0.044,0.0,-0.3,0.0,786,892,0
R,,5651683,0.021,0.114,-0.043,0.0,-0.4,-0.1,786,893,0
R,,5651743,0.021,0.114,-0.043,0.0,-0.4,-0.1,785,891,0
R,,5651803,0.021,0.115,-0.043,0.0,-0.4,0.0,785,892,0
R,,5651863,0.021,0.115,-0.044,0.0,-0.4,0.0,785,893,0
R,,5651923,0.021,0.114,-0.044,0.0,-0.4,-0.1,784,895,0
R,,5651983,0.021,0.115,-0.043,0.0,-0.4,-0.1,785,893,0
R,,5652043,0.021,0.114,-0.043,0.0,-0.4,-0.1,785,892,0
R,,5652103,0.021,0.114,-0.043,0.0,-0.3,-0.1,788,896,0
R,,5652164,0.021,0.115,-0.043,0.0,-0.4,-0.1,785,895,0
R,,5652223,0.021,0.115,-0.043,0.0,-0.4,0.0,783,893,0
R,,5652287,0.021,0.115,-0.043,0.0,-0.4,-0.1,785,893,0
R,,5652343,0.021,0.115,-0.044,0.0,-0.4,-0.1,786,894,0
R,,5652403,0.021,0.115,-0.043,0.0,-0.4,0.0,784,893,0
R,,5652463,0.021,0.115,-0.043,0.0,-0.4,0.0,786,894,0
R,,5652523,0.021,0.115,-0.044,0.1,-0.4,0.0,786,892,0
R,,5652583,0.021,0.115,-0.043,0.0,-0.4,0.0,785,894,0
R,,5652643,0.021,0.115,-0.044,0.0,-0.4,0.0,787,896,0
R,,5652733,0.021,0.115,-0.043,0.0,-0.4,-0.1,786,891,0
R,,5652793,0.021,0.115,-0.043,0.3,-0.5,-0.3,785,894,0
R,,5652853,0.020,0.115,-0.045,-0.1,-0.4,-0.2,783,892,0
R,,5652914,0.020,0.106,-0.050,-1.0,-0.8,-0.6,781,891,0
R,,5652977,0.017,0.115,-0.031,1.2,-0.9,0.2,783,891,0
R,,5653033,0.022,0.114,-0.032,4.1,0.9,0.7,781,889,0
R,,5653093,0.017,0.109,-0.054,7.5,3.6,1.0,779,889,0
R,,5653153,0.036,0.117,-0.063,3.6,1.9,-1.0,776,891,0
R,,5653213,0.030,0.116,-0.066,-0.6,3.7,-2.9,776,890,0
R,,5653273,0.018,0.118,-0.073,-0.7,1.4,-2.8,774,890,0
R,,5653333,0.028,0.109,-0.054,-2.2,1.7,-2.2,772,889,0
R,,5653393,0.020,0.112,-0.051,-1.8,4.0,-3.1,764,886,0
R,,5653454,0.022,0.113,-0.061,-3.9,5.1,-3.7,749,872,0
R,,5653513,0.010,0.133,-0.068,-10.2,8.8,0.2,722,843,0
R,,5653573,0.057,0.132,-0.065,-14.9,0.8,-2.4,690,807,0
R,,5653633,0.083,0.123,-0.103,-7.5,4.2,-16.2,591,687,0
R,,5653697,0.007,0.143,-0.091,-7.4,30.2,-28.4,533,665,0
R,,5653783,0.010,0.095,-0.072,-0.3,12.0,-6.4,576,718,0
R,,5653843,0.038,0.098,-0.032,-3.0,16.6,2.0,583,730,0
R,,5653903,0.037,0.088,-0.055,4.1,28.0,2.5,586,737,0
R,,5653963,0.029,0.095,-0.082,3.5,30.3,9.7,578,746,0
R,,5654023,0.012,0.129,-0.088,2.2,20.7,15.9,562,747,0
R,,5654083,-0.009,0.155,-0.064,6.1,13.9,16.8,553,757,0
R,,5654143,-0.047,0.158,-0.060,-2.9,12.8,8.0,559,762,0
R,,5654204,-0.075,0.136,-0.091,4.4,2.2,-0.9,569,764,0
R,,5654263,0.198,0.230,-0.058,-7.4,-26.4,-4.8,687,790,0
R,,5654323,0.011,0.116,-0.115,-1.9,-7.6,-14.6,710,814,0
R,,5654383,0.008,0.123,-0.057,2.1,8.4,-9.9,730,843,0
R,,5654447,0.022,0.099,-0.063,-4.5,-5.0,-6.9,752,864,0
R,,5654503,0.026,0.119,-0.046,1.2,-2.4,-6.3,759,875,0
R,,5654563,0.009,0.100,-0.060,-0.1,-1.7,-6.6,764,882,0
R,,5654624,0.010,0.114,-0.046,-0.6,-5.9,-4.3,767,885,0
R,,5654683,0.003,0.115,-0.059,0.9,-2.1,-4.8,771,891,0
R,,5654744,-0.008,0.110,-0.059,-0.8,-2.5,-4.3,760,891,0
R,,5654833,-0.010,0.119,-0.057,-1.4,-2.6,-5.2,721,892,0
R,,5654893,-0.006,0.131,-0.067,-5.9,-4.0,-5.7,558,900,0
R,,5654954,-0.001,0.157,-0.053,-5.6,-6.2,-7.4,488,897,0
R,,5655013,0.031,0.179,-0.067,-8.6,-12.5,-10.1,468,892,0
R,,5655073,0.058,0.154,-0.068,-3.8,-12.5,-19.1,470,883,0
R,,5655137,-0.005,0.091,-0.161,6.9,-17.0,-18.0,494,729,0
R,,5655193,0.075,0.042,-0.014,11.4,-14.8,-1.3,522,704,0
R,,5655253,0.041,0.017,-0.003,0.4,13.2,13.1,561,729,0
R,,5655313,0.025,0.058,-0.026,8.4,16.6,26.1,581,750,0
R,,5655374,0.016,0.140,-0.041,2.6,14.1,33.2,574,757,0
R,,5655433,0.021,0.220,-0.082,6.2,19.6,38.3,560,768,0
R,,5655494,-0.033,0.220,-0.127,-0.5,19.2,27.3,561,777,0
R,,5655553,-0.156,0.140,-0.127,14.0,12.8,0.8,580,779,0
R,,5655613,-0.103,0.114,-0.121,-3.2,-9.0,-12.7,620,777,0
R,,5655673,0.078,0.262,0.031,-11.5,1.5,-8.0,716,821,0
R,,5655733,0.020,0.108,-0.011,1.3,-9.2,-6.2,729,840,0
R,,5655793,0.002,0.113,-0.105,6.3,3.4,-8.6,743,858,0
R,,5655857,0.028,0.118,-0.052,-5.7,-7.9,-3.5,759,874,0
R,,5655914,0.035,0.120,-0.067,-0.3,-1.0,-5.1,763,878,0
R,,5655973,0.007,0.103,-0.070,-1.4,-3.6,-5.5,767,885,0
R,,5656034,0.011,0.115,-0.051,-0.1,-3.7,-5.2,767,889,0
R,,5656093,0.002,0.112,-0.055,-0.2,-3.9,-7.3,758,892,0
R,,5656153,-0.006,0.119,-0.066,-3.3,-3.8,-6.1,730,892,0
R,,5656213,0.006,0.146,-0.058,-5.0,-5.8,-6.9,574,899,0
R,,5656273,0.004,0.157,-0.057,-8.7,-6.4,-11.0,504,897,0
R,,5656333,0.067,0.187,-0.065,-7.6,-14.9,-16.0,499,886,0
R,,5656393,-0.017,0.169,-0.095,-0.3,-2.5,-23.9,480,869,0
R,,5656454,0.029,0.041,0.017,-9.7,-5.4,-22.0,543,751,0
R,,5656513,0.046,0.026,0.023,11.7,-1.4,-3.6,575,738,0
R,,5656577,0.023,0.068,-0.017,-0.7,6.7,19.3,576,739,0
R,,5656633,-0.002,0.106,-0.052,4.0,18.2,29.8,573,745,0
R,,5656693,0.004,0.141,-0.053,3.3,7.7,35.7,577,763,0
R,,5656752,0.007,0.217,-0.063,8.4,17.6,35.7,569,771,0
R,,5656813,-0.056,0.226,-0.065,2.9,18.2,26.3,570,770,0
R,,5656874,-0.180,0.178,-0.121,9.0,3.9,-0.3,578,775,0
R,,5656933,0.355,0.225,-0.039,-6.9,-30.0,-8.9,702,808,0
R,,5656994,0.000,0.103,-0.096,2.0,-12.6,-16.6,722,830,0
R,,5657053,0.015,0.129,-0.111,8.7,16.0,-8.0,746,859,0
R,,5657113,0.024,0.096,-0.090,-5.5,-12.5,-2.8,755,871,0
R,,5657173,0.036,0.110,-0.064,5.7,-2.5,-4.8,762,878,0
R,,5657237,0.008,0.093,-0.076,-0.5,-5.1,-4.4,767,885,0
R,,5657293,0.014,0.106,-0.059,-3.2,-6.3,-4.2,766,889,0
R,,5657353,0.010,0.107,-0.059,-1.6,-2.5,-6.4,755,892,0
R,,5657414,-0.004,0.117,-0.063,-0.8,-3.8,-7.0,741,895,0
R,,5657473,-0.004,0.111,-0.064,-3.0,-3.1,-5.2,602,902,0
R,,5657534,-0.003,0.139,-0.056,-3.3,-7.2,-7.4,548,901,0
R,,5657593,0.009,0.155,-0.094,-8.7,-12.1,-8.4,501,897,0
R,,5657653,0.086,0.201,-0.032,-8.4,-19.8,-15.9,507,887,0
R,,5657713,0.016,0.166,-0.155,9.2,-7.8,-26.2,471,829,0
R,,5657773,0.051,0.000,-0.041,-2.9,-7.2,-9.6,496,692,0
R,,5657833,0.048,-0.001,0.063,-3.0,3.2,3.3,534,686,0
R,,5657893,0.033,0.048,-0.007,1.3,16.5,17.4,553,706,0
R,,5657958,0.021,0.122,-0.062,2.1,24.7,28.9,563,726,0
R,,5658013,0.010,0.147,-0.116,1.0,24.0,35.2,558,742,0
R,,5658074,-0.010,0.240,-0.105,9.7,25.0,27.3,552,763,0
R,,5658133,-0.087,0.203,-0.096,-0.5,20.7,19.0,552,766,0
R,,5658223,-0.045,0.138,-0.143,28.3,-33.4,4.4,679,790,0
R,,5658284,0.000,0.123,-0.134,8.5,-1.9,-8.6,717,824,0
R,,5658343,0.012,0.079,0.029,2.2,9.7,-7.6,735,848,0
R,,5658403,0.005,0.091,-0.074,1.9,-4.2,-8.8,752,867,0
R,,5658463,0.030,0.115,-0.055,-1.6,-6.7,-7.2,764,877,0
R,,5658523,0.006,0.108,-0.072,-0.8,-3.8,-5.9,768,885,0
R,,5658583,0.006,0.112,-0.055,0.2,-5.7,-3.7,762,892,0
R,,5658647,0.008,0.117,-0.058,0.2,-4.1,-3.5,747,895,0
R,,5658704,0.000,0.109,-0.066,-1.2,-3.1,-3.8,705,898,0
R,,5658763,-0.001,0.118,-0.052,-2.1,-4.1,-3.8,614,903,0
R,,5658824,-0.002,0.131,-0.059,-3.5,-4.4,-5.5,562,905,0
R,,5658883,-0.002,0.135,-0.071,-5.2,-6.9,-8.3,533,899,0
R,,5658943,0.042,0.184,-0.087,-3.2,-15.0,-11.0,511,895,0
R,,5659003,0.039,0.185,-0.013,-8.5,-7.9,-18.9,506,870,0
R,,5659063,0.023,0.089,-0.138,0.5,2.5,-22.8,481,645,0
R,,5659124,0.053,0.027,-0.026,6.8,-9.3,-4.0,503,644,0
R,,5659183,0.031,-0.017,-0.046,-3.1,13.9,14.7,516,643,0
R,,5659244,0.027,0.043,-0.036,-4.8,16.8,26.7,529,658,0
R,,5659303,0.013,0.127,-0.100,-0.9,24.0,32.6,541,692,0
R,,5659367,0.012,0.209,-0.123,-1.3,26.5,36.7,532,706,0
R,,5659423,-0.040,0.213,-0.145,-2.8,25.5,20.7,529,728,0
R,,5659483,-0.167,0.131,-0.234,6.0,9.0,-0.5,542,744,0
R,,5659543,0.020,0.153,-0.122,-1.2,8.3,-15.9,636,751,0
R,,5659603,-0.054,0.126,-0.058,24.2,6.8,-15.9,712,817,0
R,,5659664,0.014,0.087,0.000,3.2,2.6,-12.1,730,844,0
R,,5659723,0.025,0.116,-0.040,4.9,-5.2,-8.4,747,863,0
R,,5659784,0.019,0.118,-0.045,0.8,-3.1,-4.7,757,873,0
R,,5659843,0.016,0.113,-0.062,0.8,-2.9,-4.9,763,882,0
R,,5659904,0.009,0.114,-0.055,0.5,-2.6,-2.4,766,885,0
R,,5659963,0.009,0.109,-0.058,0.1,-3.1,-4.4,762,892,0
R,,5660023,0.009,0.109,-0.052,0.2,-2.3,-5.5,755,894,0
R,,5660087,-0.016,0.112,-0.049,0.2,-1.1,-6.1,749,895,0
R,,5660143,-0.009,0.122,-0.053,-1.0,-3.2,-4.6,715,900,0
R,,5660204,-0.008,0.128,-0.062,-4.2,-4.8,-3.8,579,904,0
R,,5660263,-0.004,0.143,-0.057,-7.8,-6.9,-4.7,512,903,0
R,,5660324,0.025,0.176,-0.063,-7.7,-9.4,-9.8,500,894,0
R,,5660383,0.062,0.193,-0.018,-8.4,-9.8,-18.3,517,880,0
R,,5660444,0.017,0.150,-0.122,-2.9,9.5,-25.8,462,740,0
R,,5660503,0.061,0.025,-0.058,0.3,-1.5,-5.2,507,672,0
R,,5660563,0.038,-0.015,-0.033,-4.2,12.3,5.4,524,657,0
R,,5660623,0.018,0.031,-0.072,-6.2,15.0,20.1,536,670,0
R,,5660683,0.017,0.107,-0.076,-4.2,19.3,27.6,541,680,0
R,,5660748,0.030,0.152,-0.117,1.6,36.3,28.8,546,696,0
R,,5660803,0.014,0.201,-0.113,4.4,31.6,23.0,544,705,0
R,,5660864,-0.063,0.190,-0.158,3.2,30.0,12.7,546,718,0
R,,5660923,-0.119,0.187,-0.088,9.6,12.7,-1.8,543,726,0
R,,5660983,-0.019,0.089,-0.115,19.8,-4.9,-2.8,654,760,0
R,,5661043,-0.026,0.200,-0.062,20.5,-2.4,-9.9,716,824,0
R,,5661103,0.017,0.084,0.013,1.0,-3.9,-6.2,734,844,0
R,,5661164,0.029,0.115,-0.081,3.1,-1.5,-7.3,744,858,0
R,,5661223,0.020,0.134,-0.044,2.5,-0.7,-4.4,756,867,0
R,,5661284,0.029,0.118,-0.047,0.3,0.0,-5.1,761,876,0
R,,5661343,0.015,0.114,-0.050,1.7,0.3,-5.0,767,882,0
R,,5661404,0.015,0.119,-0.049,1.7,-0.6,-5.3,768,887,0
R,,5661467,0.003,0.113,-0.051,1.4,-0.4,-5.1,765,892,0
R,,5661523,0.001,0.119,-0.046,1.5,-2.1,-3.9,754,893,0
R,,5661583,0.008,0.118,-0.051,-2.7,-3.7,-3.6,744,898,0
R,,5661643,-0.004,0.122,-0.055,-1.8,-3.0,-4.3,712,900,0
R,,5661704,-0.004,0.134,-0.057,-4.5,-2.6,-4.2,545,906,0
R,,5661763,0.004,0.141,-0.057,-6.3,-6.8,-5.3,510,903,0
R,,5661824,0.018,0.163,-0.052,-6.4,-6.3,-9.5,497,895,0
R,,5661883,0.065,0.186,-0.030,-10.3,-7.4,-16.1,517,888,0
R,,5661944,0.001,0.164,-0.107,-9.9,13.4,-26.0,478,768,0
R,,5662003,0.019,0.020,-0.036,-2.4,-0.3,-13.8,493,606,0
R,,5662063,0.005,0.037,-0.012,-1.3,12.0,3.1,514,622,0
R,,5662124,0.016,0.030,-0.043,-3.9,15.3,20.5,528,643,0
R,,5662187,0.010,0.101,-0.079,-6.8,13.1,32.1,533,651,0
R,,5662273,0.040,0.201,-0.087,6.2,39.2,25.7,535,673,0
R,,5662333,-0.001,0.196,-0.120,1.0,36.5,20.0,535,697,0
R,,5662393,-0.134,0.129,-0.219,11.4,33.3,-0.7,540,722,0
R,,5662454,-0.062,0.175,-0.008,6.0,-7.5,-10.3,546,730,0
R,,5662513,-0.004,0.155,0.142,-17.1,-6.7,-10.8,699,804,0
R,,5662574,0.021,0.113,-0.011,2.9,-20.0,-16.5,718,823,0
R,,5662633,0.001,0.138,-0.081,4.5,-0.7,-6.9,732,842,0
R,,5662694,0.031,0.106,-0.057,1.0,-0.2,-4.4,740,850,0
R,,5662753,0.031,0.123,-0.032,1.8,0.4,-5.3,747,859,0
R,,5662813,0.013,0.114,-0.047,1.4,1.8,-5.5,753,866,0
R,,5662877,0.021,0.123,-0.042,0.5,-0.2,-4.5,763,877,0
R,,5662933,-0.003,0.109,-0.050,1.3,3.1,-5.9,767,882,0
R,,5662994,-0.010,0.124,-0.038,1.2,-1.1,-4.9,767,887,0
R,,5663053,0.001,0.113,-0.045,-1.5,-1.8,-4.8,760,891,0
R,,5663114,0.000,0.131,-0.040,-3.2,-3.3,-7.3,708,895,0
R,,5663173,0.000,0.144,-0.055,-6.7,-0.3,-8.3,549,902,0
R,,5663234,0.014,0.169,-0.055,-8.7,-2.8,-10.0,474,894,0
R,,5663293,0.048,0.186,-0.046,-3.9,-9.7,-14.9,452,882,0
R,,5663353,-0.016,0.160,-0.067,4.2,1.0,-20.4,460,854,0
R,,5663414,0.002,0.092,0.026,1.8,-20.9,-19.6,558,715,0
R,,5663473,0.033,0.062,0.012,2.5,-9.2,-1.4,570,704,0
R,,5663534,0.021,0.068,-0.016,-2.8,13.8,11.5,584,714,0
R,,5663597,0.013,0.089,-0.052,5.8,25.6,22.0,596,733,0
R,,5663654,0.000,0.121,-0.084,2.4,22.3,26.3,598,747,0
R,,5663713,0.000,0.179,-0.119,5.9,22.0,33.6,588,759,0
R,,5663774,-0.035,0.186,-0.101,10.6,18.9,22.5,586,764,0
R,,5663833,-0.095,0.207,-0.047,5.8,8.6,14.2,596,769,0
R,,5663893,-0.121,0.160,-0.059,-2.5,-17.7,-1.4,608,778,0
R,,5663954,0.058,0.205,0.140,-42.4,-34.7,15.8,703,806,0
R,,5664012,0.013,0.059,-0.092,-3.8,-12.3,-13.8,715,821,0
R,,5664103,-0.002,0.084,-0.143,-1.2,-4.1,-8.3,741,856,0
R,,5664164,0.023,0.123,-0.064,-2.6,-1.4,-2.2,751,866,0
R,,5664223,0.023,0.099,-0.080,2.5,2.1,-3.8,754,867,0
R,,5664284,0.017,0.095,-0.063,-3.0,-6.0,-3.2,758,870,0
R,,5664347,0.021,0.113,-0.064,-3.9,-4.5,-3.8,764,880,0
R,,5664404,0.013,0.115,-0.065,-1.5,-4.8,-6.2,769,886,0
R,,5664493,-0.003,0.124,-0.065,-5.5,-6.1,-8.1,729,896,0
R,,5664553,0.000,0.150,-0.063,-7.0,-6.2,-8.4,575,903,0
R,,5664614,0.015,0.176,-0.075,-7.6,-6.9,-10.6,508,897,0
R,,5664673,0.084,0.185,-0.040,-6.7,-13.1,-18.5,515,883,0
R,,5664734,0.005,0.189,-0.128,5.0,-4.5,-24.9,485,793,0
R,,5664793,0.060,0.033,-0.061,-0.7,-12.5,-6.3,515,654,0
R,,5664853,0.041,0.016,0.034,2.6,2.3,6.0,529,635,0
R,,5664914,0.038,0.056,0.013,-0.3,16.4,15.8,544,653,0
R,,5664973,0.012,0.096,-0.079,5.7,28.2,23.0,558,688,0
R,,5665038,0.012,0.136,-0.120,2.8,31.6,29.2,552,700,0
R,,5665093,-0.013,0.193,-0.168,3.0,21.4,28.6,550,719,0
R,,5665154,-0.041,0.217,-0.094,2.7,14.4,19.6,552,739,0
R,,5665213,-0.115,0.189,-0.066,9.2,-4.0,-2.2,558,750,0
R,,5665274,0.076,0.220,-0.053,13.6,-21.2,-15.5,690,795,0
R,,5665333,0.021,0.106,-0.113,8.0,-1.2,-13.2,714,821,0
R,,5665393,0.014,0.064,-0.069,0.4,11.7,-10.0,735,844,0
R,,5665454,0.023,0.080,-0.079,0.2,-5.5,-8.1,753,867,0
R,,5665543,0.011,0.106,-0.053,1.7,0.3,-6.8,769,883,0
R,,5665604,0.009,0.111,-0.060,-1.3,-4.2,-3.6,772,886,0
R,,5665664,0.007,0.116,-0.055,0.0,-5.9,-0.4,770,889,0
R,,5665723,0.005,0.111,-0.061,-0.5,-5.2,-1.6,763,893,0
R,,5665788,0.003,0.117,-0.062,-1.9,-3.7,-3.0,746,899,0
R,,5665843,0.001,0.125,-0.053,-3.1,-4.4,-4.9,645,904,0
R,,5665904,0.002,0.143,-0.059,-3.6,-5.8,-7.4,544,906,0
R,,5665963,0.010,0.163,-0.089,-6.2,-3.8,-10.0,514,899,0
R,,5666024,0.093,0.205,-0.028,-4.0,-17.3,-18.6,525,884,0
R,,5666083,0.037,0.197,-0.116,4.2,-0.8,-27.8,501,777,0
R,,5666143,0.029,0.002,-0.082,-1.0,-6.0,-13.3,509,638,0
R,,5666204,0.029,0.008,0.047,1.8,3.3,6.0,510,615,0
R,,5666263,0.046,0.068,0.011,-2.3,10.2,25.2,530,650,0
R,,5666365,0.024,0.164,-0.052,2.7,21.3,37.5,544,696,0
R,,5666383,0.032,0.186,-0.082,0.7,23.8,38.6,543,699,0
R,,5666448,-0.029,0.261,-0.111,4.8,31.4,24.6,536,718,0
R,,5666503,-0.136,0.195,-0.153,6.6,22.1,6.7,546,746,0
R,,5666564,-0.091,0.153,-0.063,2.4,-7.6,-12.0,555,757,0
R,,5666624,-0.019,0.213,0.142,-16.7,-5.9,-8.6,700,802,0
R,,5666683,0.010,0.114,0.001,1.6,-14.3,-11.6,723,832,0
R,,5666744,0.013,0.114,-0.099,5.8,5.5,-7.2,740,849,0
R,,5666833,0.032,0.112,-0.027,3.9,-1.1,-7.2,764,879,0
R,,5666894,0.004,0.105,-0.051,0.5,-0.4,-9.1,763,885,0
R,,5666954,0.000,0.113,-0.056,0.1,-1.2,-7.4,761,887,0
R,,5667013,0.003,0.119,-0.056,-0.2,-1.2,-7.4,741,893,0
R,,5667073,-0.005,0.120,-0.055,-0.4,-1.1,-5.5,665,896,0
R,,5667133,-0.004,0.130,-0.050,-3.3,-3.1,-4.5,554,900,0
R,,5667198,0.000,0.132,-0.051,-7.0,-3.1,-8.9,503,896,0
R,,5667253,0.013,0.155,-0.070,-6.5,-7.4,-12.1,474,893,0
R,,5667314,0.091,0.209,-0.053,-6.4,-10.9,-17.2,487,880,0
R,,5667404,-0.020,0.062,-0.021,-3.1,-12.4,-18.1,543,724,0
R,,5667463,0.011,0.036,-0.034,3.5,-2.9,-3.7,563,700,0
R,,5667524,0.027,0.036,-0.009,-4.1,6.3,15.5,580,714,0
R,,5667583,0.012,0.086,-0.042,0.7,16.6,25.0,589,721,0
R,,5667644,-0.010,0.157,-0.075,1.9,21.4,28.4,587,734,0
R,,5667704,-0.027,0.183,-0.082,0.9,21.7,28.1,586,750,0
R,,5667763,-0.038,0.184,-0.076,2.4,22.8,14.0,583,750,0
R,,5667824,-0.063,0.162,-0.093,3.3,14.1,7.1,589,756,0
R,,5667883,-0.073,0.138,-0.094,-0.9,10.5,-2.5,587,757,0
R,,5667948,0.061,0.137,-0.098,12.2,-5.7,-12.7,683,790,0
R,,5668003,0.014,0.161,-0.070,7.4,2.1,-16.5,712,819,0
R,,5668064,0.013,0.097,-0.028,5.2,-2.6,-6.2,725,836,0
R,,5668124,0.025,0.102,-0.071,6.7,1.7,-5.5,743,856,0
R,,5668184,0.022,0.127,-0.055,4.5,-0.8,-3.6,749,863,0
R,,5668244,0.031,0.125,-0.042,0.8,-0.4,-4.1,755,869,0
R,,5668303,0.021,0.118,-0.058,1.0,-0.5,-4.9,763,877,0
R,,5668363,0.007,0.133,-0.048,1.0,-0.9,-3.2,767,886,0
R,,5668454,0.000,0.111,-0.050,-1.0,-1.3,-6.2,761,895,0
R,,5668513,-0.008,0.112,-0.051,-4.1,-3.5,-4.1,729,900,0
R,,5668574,0.002,0.125,-0.042,-3.8,-0.2,-3.5,631,903,0
R,,5668637,0.002,0.141,-0.048,-5.4,-4.0,-5.0,548,900,0
R,,5668694,0.005,0.144,-0.038,-6.5,-3.5,-8.2,494,894,0
R,,5668753,0.022,0.167,-0.048,-7.9,-4.4,-11.2,485,891,0
R,,5668814,0.046,0.173,-0.058,-9.5,-9.4,-16.2,514,886,0
R,,5668874,-0.015,0.151,-0.116,-2.5,-0.2,-20.4,480,800,0
R,,5668934,0.069,0.037,-0.025,-7.7,9.2,-8.7,547,733,0
R,,5668994,0.016,0.024,-0.027,-2.0,13.8,1.2,572,726,0
R,,5669053,0.015,0.078,-0.026,-4.7,15.5,13.8,587,738,0
R,,5669114,-0.013,0.108,-0.077,-3.4,26.7,18.7,589,735,0
R,,5669172,-0.016,0.140,-0.084,-2.9,25.9,18.4,593,740,0
R,,5669234,-0.009,0.143,-0.120,4.4,31.2,14.9,596,747,0
R,,5669293,-0.009,0.138,-0.113,5.5,25.3,10.7,591,753,0
R,,5669358,-0.043,0.154,-0.090,1.7,18.3,11.8,588,758,0
R,,5669414,-0.103,0.143,-0.112,3.9,11.1,4.0,588,767,0
R,,5669503,0.206,0.181,0.007,-8.0,-20.2,-10.3,703,802,0
R,,5669564,-0.004,0.137,-0.048,1.5,-11.5,-12.0,722,828,0
R,,5669624,0.010,0.127,-0.073,7.2,0.8,-4.8,745,857,0
R,,5669684,0.032,0.112,-0.063,2.1,-4.8,-3.4,760,873,0
R,,5669774,0.015,0.109,-0.069,4.3,-0.2,-6.3,771,886,0
R,,5669833,0.013,0.113,-0.055,0.5,-3.2,-3.1,773,890,0
R,,5669894,0.011,0.116,-0.059,-1.4,-4.7,-4.5,767,894,0
R,,5669954,0.001,0.115,-0.058,-1.2,-3.9,-5.8,744,901,0
R,,5670013,-0.007,0.108,-0.057,-2.6,-3.0,-2.8,630,903,0
R,,5670074,0.000,0.125,-0.048,-1.8,-3.1,-4.2,569,903,0
R,,5670137,-0.006,0.124,-0.061,-3.8,-4.6,-6.3,527,902,0
R,,5670194,0.004,0.144,-0.052,-5.0,-8.0,-7.6,510,898,0
R,,5670253,0.037,0.173,-0.067,-5.6,-7.7,-12.7,517,895,0
R,,5670314,0.015,0.183,-0.045,-4.0,-7.7,-21.9,505,865,0
R,,5670374,-0.042,0.067,-0.105,5.8,-10.6,-22.6,479,555,0
R,,5670434,0.066,0.049,-0.007,0.0,-0.1,-3.6,509,591,0
R,,5670494,0.042,0.023,-0.012,-2.8,20.6,13.6,552,667,0
R,,5670583,0.023,0.115,-0.048,-2.4,15.9,36.9,556,705,0
R,,5670644,0.013,0.192,-0.049,-3.8,24.9,36.5,554,717,0
R,,5670704,-0.052,0.276,-0.119,8.0,24.9,25.0,548,744,0
R,,5670764,-0.196,0.173,-0.173,10.3,10.8,5.7,561,756,0
R,,5670828,0.165,0.097,-0.201,17.5,-14.8,-15.3,691,801,0
R,,5670883,0.004,0.196,-0.112,1.8,4.7,-21.7,711,820,0
R,,5670943,-0.005,0.130,-0.014,2.6,3.5,-6.2,732,841,0
R,,5671003,0.018,0.105,-0.056,2.5,-0.2,-5.3,747,862,0
R,,5671064,0.012,0.093,-0.059,3.3,-4.9,-8.0,760,876,0
R,,5671124,0.017,0.106,-0.060,-0.6,-3.0,-5.2,764,881,0
R,,5671184,0.009,0.112,-0.058,-1.4,-2.4,-5.3,767,886,0
R,,5671244,0.002,0.111,-0.065,1.9,-2.8,-6.0,766,893,0
R,,5671303,0.001,0.117,-0.044,-2.3,-1.2,-8.6,743,895,0
R,,5671364,-0.015,0.136,-0.046,-0.4,-4.9,-2.2,668,898,0
R,,5671423,-0.005,0.143,-0.071,-5.0,-0.6,-3.1,562,903,0
R,,5671484,0.006,0.147,-0.046,-8.9,-2.9,-7.2,511,897,0
R,,5671547,0.034,0.170,-0.083,-9.7,-5.8,-11.7,495,894,0
R,,5671633,-0.028,0.178,-0.043,-0.4,3.8,-23.3,498,849,0
R,,5671694,0.052,0.059,0.011,-8.0,-10.3,-24.3,546,728,0
R,,5671752,0.030,0.024,0.012,2.4,6.0,-0.8,573,731,0
R,,5671814,0.025,0.050,0.015,4.6,7.4,15.2,579,743,0
R,,5671874,0.009,0.103,-0.041,7.2,13.0,28.6,571,755,0
R,,5671934,0.028,0.159,-0.040,6.6,12.6,37.0,567,759,0
R,,5671994,0.017,0.255,-0.040,7.7,20.5,35.7,559,767,0
R,,5672054,-0.110,0.226,-0.132,4.6,22.4,20.5,566,768,0
R,,5672114,-0.200,0.160,-0.146,1.7,2.0,-6.7,608,772,0
R,,5672173,-0.088,0.166,0.024,-28.9,-17.3,-6.5,720,828,0
R,,5672233,-0.011,0.124,-0.006,-1.7,-4.7,-11.6,740,851,0
R,,5672297,0.005,0.100,-0.076,1.8,0.0,-5.2,753,866,0
R,,5672354,0.022,0.099,-0.044,-0.4,-3.1,-6.9,760,873,0
R,,5672414,0.022,0.116,-0.047,-0.3,-2.1,-6.0,766,879,0
R,,5672474,0.007,0.107,-0.066,0.0,-2.9,-5.9,767,885,0
R,,5672534,0.012,0.120,-0.053,-1.0,-3.0,-6.9,761,892,0
R,,5672593,-0.001,0.112,-0.060,-1.1,-3.1,-7.0,724,898,0
R,,5672684,-0.002,0.134,-0.084,-4.9,-4.9,-5.4,593,899,0
R,,5672744,0.000,0.152,-0.050,-7.5,-6.8,-7.4,529,900,0
R,,5672804,0.048,0.200,-0.083,-8.9,-8.8,-13.5,507,888,0
R,,5672864,-0.023,0.199,-0.076,-9.4,-1.4,-22.8,496,851,0
R,,5672923,0.140,0.049,0.012,-7.6,1.2,-21.5,555,738,0
R,,5672988,0.033,-0.008,-0.023,7.6,4.6,0.0,572,756,0
R,,5673043,0.038,0.060,-0.007,-0.4,7.6,21.7,579,752,0
R,,5673104,0.007,0.111,-0.054,-0.7,14.0,31.7,581,756,0
R,,5673164,0.029,0.175,-0.049,3.6,13.8,36.2,572,751,0
R,,5673224,-0.017,0.243,-0.077,6.9,23.5,27.1,559,766,0
R,,5673284,-0.101,0.184,-0.115,1.2,20.2,13.7,568,776,0
R,,5673344,-0.132,0.143,-0.106,3.1,-2.0,-6.1,577,777,0
R,,5673404,0.103,0.141,0.008,-20.1,-34.8,6.2,708,812,0
R,,5673463,0.013,0.083,-0.048,0.0,-15.3,-8.0,731,842,0
R,,5673523,0.012,0.109,-0.068,3.2,2.8,-7.9,747,861,0
R,,5673583,0.019,0.102,-0.078,-0.6,-1.8,-6.8,761,876,0
R,,5673644,0.022,0.117,-0.050,0.1,-1.8,-4.5,767,882,0
R,,5673738,0.017,0.110,-0.056,0.7,-4.0,-4.8,764,890,0
R,,5673793,0.013,0.117,-0.060,0.1,-3.6,-5.5,760,894,0
R,,5673854,-0.012,0.101,-0.059,1.4,0.9,-9.1,750,897,0
R,,5673914,-0.009,0.119,-0.053,-0.7,-4.5,-5.7,684,897,0
R,,5673974,-0.003,0.136,-0.071,-3.5,-3.0,-5.4,582,901,0
R,,5674034,0.002,0.149,-0.062,-6.4,-6.0,-8.6,524,903,0
R,,5674094,0.040,0.185,-0.081,-10.1,-10.3,-11.9,512,891,0
R,,5674154,-0.003,0.188,0.016,-8.1,-3.9,-19.9,510,857,0
R,,5674213,0.020,0.071,-0.031,-1.4,-13.5,-22.7,529,691,0
R,,5674274,0.056,0.022,-0.002,7.1,-1.0,-1.9,578,716,0
R,,5674333,0.034,0.063,-0.004,0.7,5.9,21.0,572,711,0
R,,5674398,0.015,0.120,-0.032,1.4,12.1,33.5,569,721,0
R,,5674454,0.028,0.211,-0.004,8.7,12.4,36.9,556,722,0
R,,5674514,-0.004,0.279,-0.030,7.0,36.6,27.8,554,750,0
R,,5674574,-0.138,0.194,-0.172,-2.8,33.4,8.3,557,766,0
R,,5674634,-0.136,0.160,-0.094,7.5,-7.7,-13.9,565,759,0
R,,5674694,0.017,0.330,0.113,4.7,-27.5,15.8,711,816,0
R,,5674784,0.048,0.154,-0.047,3.6,6.5,-12.2,737,852,0
R,,5674844,0.033,0.106,-0.060,3.5,1.7,-10.6,749,868,0
R,,5674904,0.010,0.103,-0.010,-0.7,-0.3,-8.9,760,881,0
R,,5674963,-0.001,0.115,-0.043,0.2,-0.4,-9.8,749,887,0
R,,5675024,-0.015,0.118,-0.052,-0.1,-1.7,-4.9,730,889,0
R,,5675083,-0.005,0.121,-0.041,2.6,-2.3,-3.5,660,888,0
R,,5675148,-0.007,0.120,-0.053,-3.4,-1.5,-3.6,568,892,0
R,,5675204,-0.001,0.133,-0.032,-7.3,-0.3,-4.4,523,888,0
R,,5675264,0.000,0.146,-0.046,-5.8,-2.1,-7.7,471,887,0
R,,5675324,0.035,0.172,-0.071,-9.9,-5.4,-9.3,443,892,0
R,,5675384,0.047,0.152,-0.036,-6.8,-4.2,-20.5,467,877,0
R,,5675444,-0.022,0.098,-0.027,-5.7,-5.7,-21.2,532,713,0
R,,5675503,0.028,0.022,-0.090,-5.5,17.1,-9.5,577,759,0
R,,5675564,0.014,0.045,-0.058,2.7,16.8,9.0,589,766,0
R,,5675623,0.018,0.093,-0.017,-3.9,18.8,16.5,600,777,0
R,,5675684,0.012,0.102,-0.099,0.3,19.1,21.8,601,783,0
R,,5675744,0.025,0.162,-0.091,6.0,26.7,26.0,595,785,0
R,,5675833,-0.034,0.198,-0.129,5.1,38.8,15.3,564,784,0
R,,5675898,-0.178,0.164,-0.150,6.0,21.4,-2.8,558,794,0
R,,5675954,-0.045,0.063,-0.167,17.0,-15.9,-3.2,679,805,0
R,,5676014,-0.007,0.187,-0.027,21.6,8.0,-29.6,728,839,0
R,,5676074,0.020,0.116,0.012,3.7,-7.0,-14.3,745,858,0
R,,5676134,0.021,0.130,-0.077,2.2,-4.1,-10.0,757,872,0
R,,5676194,0.014,0.132,-0.017,2.0,-4.0,-4.7,765,882,0
R,,5676253,0.023,0.102,-0.051,1.3,-0.7,-7.4,766,885,0
R,,5676314,0.002,0.127,-0.052,-0.3,-4.0,-6.3,765,890,0
R,,5676374,-0.002,0.125,-0.059,-1.1,-1.6,-6.0,750,894,0
R,,5676434,-0.007,0.114,-0.039,-1.5,-0.3,-3.8,684,896,0
R,,5676494,-0.003,0.131,-0.046,-2.6,-4.5,-3.7,609,897,0
R,,5676558,0.010,0.147,-0.032,-9.5,-1.7,-6.8,517,899,0
R,,5676614,0.028,0.170,-0.102,-7.2,-3.8,-10.5,501,893,0
R,,5676674,0.059,0.159,-0.042,-5.8,-8.7,-17.7,514,878,0
R,,5676734,-0.006,0.078,-0.146,4.6,-9.9,-21.1,549,753,0
R,,5676793,0.068,0.031,-0.050,-2.7,-4.5,-1.5,581,712,0
R,,5676884,0.030,0.068,-0.005,5.2,16.3,12.3,597,730,0
R,,5676974,0.015,0.106,-0.085,0.8,24.8,25.4,607,755,0
R,,5677034,0.019,0.181,-0.092,2.8,26.0,31.7,594,754,0
R,,5677094,-0.075,0.242,-0.076,6.8,20.1,19.5,554,768,0
R,,5677154,-0.193,0.163,-0.147,10.3,23.8,-5.2,567,782,0
R,,5677214,-0.058,0.165,-0.111,28.2,-30.1,-5.7,691,803,0
R,,5677274,-0.005,0.133,-0.056,13.5,8.4,-16.9,717,823,0
R,,5677337,0.022,0.108,-0.005,4.3,5.1,-8.2,739,849,0
R,,5677393,0.001,0.096,-0.088,1.3,-3.5,-9.5,752,865,0
R,,5677454,0.020,0.119,-0.021,0.5,-3.4,-3.7,762,876,0
R,,5677514,0.018,0.102,-0.058,0.8,-2.2,-5.9,767,883,0
R,,5677574,0.010,0.111,-0.054,0.9,-3.8,-5.5,767,888,0
R,,5677634,0.004,0.118,-0.068,0.2,-5.7,-5.8,760,892,0
R,,5677694,-0.004,0.108,-0.074,-3.7,-2.9,-8.7,701,899,0
R,,5677753,-0.003,0.147,-0.062,-2.1,-6.9,-4.7,588,899,0
R,,5677814,0.000,0.154,-0.066,-6.2,-5.0,-8.7,513,896,0
R,,5677874,0.039,0.167,-0.076,-8.7,-7.1,-13.6,515,889,0
R,,5677934,0.036,0.164,-0.074,-2.6,-11.3,-20.6,515,875,0
R,,5677994,-0.050,0.063,-0.105,8.9,-13.3,-19.2,564,705,0
R,,5678058,0.062,0.043,0.005,3.8,-0.3,5.2,575,707,0
R,,5678114,0.041,0.043,-0.019,-1.5,10.4,23.7,577,725,0
R,,5678174,0.024,0.111,-0.053,1.7,20.3,30.2,578,739,0
R,,5678234,0.010,0.174,-0.054,3.2,15.7,35.7,575,749,0
R,,5678293,-0.033,0.214,-0.072,9.4,27.0,28.6,570,756,0
R,,5678354,-0.144,0.177,-0.143,-7.8,19.2,13.1,570,760,0
R,,5678414,-0.127,0.117,-0.186,17.2,-6.9,-6.6,652,766,0
R,,5678474,-0.026,0.198,0.001,-7.1,-5.0,-13.7,717,823,0
R,,5678534,0.015,0.106,-0.015,-4.2,-2.4,-10.5,734,844,0
R,,5678594,0.021,0.114,-0.067,2.1,-7.0,-11.7,757,871,0
R,,5678654,0.022,0.126,-0.040,1.7,-3.7,-6.0,773,889,0
R,,5678717,0.006,0.104,-0.065,1.4,-3.7,-8.0,764,889,0
R,,5678774,0.000,0.110,-0.066,0.6,-4.0,-6.9,749,893,0
R,,5678833,-0.005,0.111,-0.060,0.5,-3.2,-3.7,704,895,0
R,,5678894,-0.003,0.116,-0.056,-3.0,-1.6,-6.0,613,899,0
R,,5678954,-0.001,0.135,-0.051,-4.9,-4.2,-5.6,555,896,0
R,,5679014,0.001,0.145,-0.058,-7.4,-4.9,-9.0,513,893,0
R,,5679104,0.066,0.190,-0.090,-5.3,-13.2,-16.4,514,890,0
R,,5679194,-0.039,0.065,-0.125,7.3,-12.4,-20.5,536,703,0
R,,5679254,0.047,0.053,-0.026,1.3,-0.6,1.1,550,693,0
R,,5679314,0.041,0.022,-0.015,-2.5,14.6,19.7,573,721,0
R,,5679374,0.015,0.090,-0.034,5.3,14.7,28.1,574,742,0
R,,5679434,0.022,0.160,-0.054,6.9,15.0,34.3,571,748,0
R,,5679498,0.011,0.236,-0.045,9.4,21.4,30.5,567,764,0
R,,5679583,-0.119,0.167,-0.139,7.5,28.1,11.7,572,772,0
R,,5679644,-0.113,0.138,-0.067,-0.7,-11.7,-8.0,609,765,0
R,,5679704,-0.046,0.206,0.072,-13.2,-9.9,-6.7,715,819,0
R,,5679764,0.000,0.123,-0.050,1.5,-5.1,-9.3,735,848,0
R,,5679824,0.017,0.106,-0.086,1.8,0.2,-4.6,753,868,0
R,,5679884,0.021,0.101,-0.026,2.9,-5.9,-5.6,766,880,0
R,,5679944,0.016,0.110,-0.051,0.7,-3.3,-8.0,770,892,0
R,,5680004,0.005,0.113,-0.068,-1.0,-3.3,-6.8,760,894,0
R,,5680064,0.002,0.113,-0.048,-0.5,-2.6,-5.6,745,896,0
R,,5680124,-0.007,0.115,-0.045,-1.2,-1.0,-5.5,704,894,0
R,,5680184,-0.005,0.118,-0.059,-3.2,0.2,-2.1,609,900,0
R,,5680248,0.002,0.144,-0.038,-2.7,-2.0,-5.0,548,898,0
R,,5680333,0.005,0.137,-0.064,-7.6,-4.2,-8.3,495,894,0
R,,5680394,0.032,0.154,-0.060,-7.4,-11.8,-10.8,506,888,0
R,,5680454,0.015,0.166,-0.060,-5.3,-3.4,-19.3,509,877,0
R,,5680514,-0.022,0.098,-0.097,4.9,-9.1,-22.0,512,708,0
R,,5680574,0.051,0.049,-0.054,-2.0,3.1,-2.3,548,711,0
R,,5680634,0.047,0.025,-0.049,-3.9,19.2,11.7,565,724,0
R,,5680694,0.018,0.072,-0.073,0.7,21.4,23.3,572,727,0
R,,5680754,0.028,0.129,-0.082,1.6,24.2,29.5,578,740,0
R,,5680814,0.007,0.199,-0.128,7.0,27.5,28.2,564,751,0
R,,5680874,-0.043,0.218,-0.111,0.0,22.6,25.2,556,770,0
R,,5680938,-0.175,0.171,-0.163,8.1,3.5,3.2,572,780,0
R,,5680994,-0.069,0.141,-0.153,17.7,-19.6,-1.8,690,801,0
R,,5681054,0.015,0.110,-0.063,16.1,6.1,-20.8,722,829,0
R,,5681114,0.003,0.087,-0.003,1.2,8.5,-10.1,739,849,0
R,,5681174,0.018,0.085,-0.064,1.5,-3.0,-8.8,753,868,0
R,,5681234,0.026,0.103,-0.049,-0.2,-4.8,-6.5,768,880,0
R,,5681294,0.020,0.102,-0.062,-2.5,2.3,-9.0,767,882,0
R,,5681354,0.008,0.116,-0.043,-2.0,-4.2,-5.9,771,888,0
R,,5681414,0.004,0.114,-0.054,-1.0,-3.1,-6.4,767,892,0
R,,5681474,-0.002,0.114,-0.061,-1.5,-1.9,-4.9,757,893,0
R,,5681534,-0.002,0.122,-0.052,-4.0,-1.8,-5.6,717,897,0
R,,5681594,-0.001,0.140,-0.060,-6.5,-2.8,-6.1,585,900,0
R,,5681658,0.007,0.156,-0.042,-10.6,-6.4,-8.7,532,900,0
R,,5681714,0.047,0.187,-0.062,-9.8,-9.0,-12.3,515,890,0
R,,5681774,0.024,0.143,-0.048,-5.4,-3.6,-22.1,516,874,0
R,,5681834,-0.041,0.072,-0.052,-1.8,-11.7,-19.2,565,697,0
R,,5681894,0.063,0.018,-0.039,6.9,7.6,-4.7,578,709,0
R,,5681984,0.031,0.070,-0.034,-1.1,16.0,20.0,588,723,0
R,,5682044,0.023,0.112,-0.073,0.0,20.4,28.9,584,734,0
R,,5682104,0.024,0.163,-0.099,6.2,25.4,33.2,569,734,0
R,,5682164,-0.020,0.232,-0.107,7.7,25.3,28.4,561,745,0
R,,5682224,-0.148,0.144,-0.169,5.6,33.7,6.3,561,762,0
R,,5682284,-0.092,0.188,0.000,8.1,-14.9,-6.9,609,765,0
R,,5682348,-0.037,0.204,0.072,-4.8,0.9,-15.0,714,820,0
R,,5682404,0.032,0.103,0.017,-0.9,-16.0,-11.0,730,840,0
R,,5682464,0.003,0.113,-0.096,2.2,-1.8,-12.9,740,852,0
R,,5682524,0.027,0.114,-0.057,-0.6,-2.9,-4.3,755,871,0
R,,5682584,0.034,0.119,-0.060,0.1,1.5,-8.1,766,876,0
R,,5682644,0.011,0.109,-0.049,0.6,-5.7,-4.6,768,886,0
R,,5682704,0.009,0.115,-0.055,-1.4,-3.4,-4.4,765,892,0
R,,5682764,0.001,0.110,-0.050,-1.0,-2.5,-6.4,757,896,0
R,,5682824,-0.004,0.117,-0.052,-0.9,-3.5,-4.4,728,898,0
R,,5682884,-0.003,0.123,-0.054,-3.5,-2.5,-4.1,629,905,0
R,,5682944,0.003,0.150,-0.048,-5.7,-2.7,-8.1,558,904,0
R,,5683004,0.012,0.170,-0.052,-7.7,-6.6,-9.2,528,896,0
R,,5683068,0.073,0.187,-0.046,-12.0,-7.0,-16.2,526,889,0
R,,5683125,-0.009,0.201,-0.051,-5.3,6.4,-22.0,496,834,0
R,,5683184,0.033,0.007,0.021,-12.8,1.5,-16.2,519,703,0
R,,5683244,0.063,0.021,-0.012,-0.1,20.4,-0.1,557,715,0
R,,5683304,0.017,0.031,-0.081,-6.5,23.6,14.3,569,736,0
R,,5683363,0.028,0.084,-0.106,-7.1,29.3,24.3,573,747,0
R,,5683424,0.029,0.138,-0.125,-2.1,28.9,29.3,572,757,0
R,,5683484,-0.002,0.202,-0.169,3.1,27.5,28.3,546,769,0
R,,5683544,-0.075,0.198,-0.131,0.1,30.2,13.1,536,775,0
R,,5683604,-0.119,0.146,-0.083,3.9,-17.5,-3.6,558,791,0
R,,5683665,0.252,0.211,-0.022,-4.7,-32.8,-6.8,711,817,0
R,,5683724,-0.011,0.143,-0.104,7.2,-5.2,-11.9,731,841,0
R,,5683788,0.000,0.115,-0.078,2.3,3.0,-4.7,745,861,0
R,,5683843,0.023,0.098,-0.072,4.3,-3.2,-6.8,756,873,0
R,,5683904,0.024,0.115,-0.045,-0.5,-0.7,-5.4,764,880,0
R,,5683964,0.010,0.101,-0.059,-1.1,-2.3,-5.7,768,884,0
R,,5684024,0.012,0.114,-0.044,-1.0,-3.4,-4.0,765,889,0
R,,5684084,0.005,0.122,-0.051,-0.5,-3.5,-5.5,755,895,0
R,,5684144,0.000,0.117,-0.058,-1.9,-1.3,-3.9,731,901,0
R,,5684204,-0.001,0.127,-0.053,-4.2,-2.2,-3.1,646,901,0
R,,5684294,0.004,0.156,-0.062,-6.4,-4.0,-9.2,535,900,0
R,,5684354,0.054,0.189,-0.059,-8.3,-10.6,-13.5,507,895,0
R,,5684415,0.066,0.158,-0.059,-8.9,0.6,-25.4,506,871,0
R,,5684518,0.054,0.029,-0.019,2.0,3.4,-5.8,556,717,0
R,,5684534,0.042,0.037,-0.009,1.7,8.5,-5.9,564,715,0
R,,5684594,0.029,0.033,-0.026,0.7,15.1,10.6,584,740,0
R,,5684653,0.008,0.076,-0.069,-1.1,22.5,25.1,580,754,0
R,,5684714,0.005,0.125,-0.095,-1.5,19.6,31.8,575,761,0
R,,5684774,-0.001,0.217,-0.117,3.5,23.9,37.0,564,773,0
R,,5684834,-0.059,0.211,-0.082,6.0,18.9,18.9,555,780,0
R,,5684894,-0.148,0.142,-0.144,3.7,-9.6,2.2,567,784,0
R,,5684955,0.026,0.023,-0.284,19.2,-14.7,-6.2,671,791,0
R,,5685014,0.012,0.217,-0.051,35.0,14.6,-23.4,718,824,0
R,,5685074,0.028,0.115,-0.001,1.6,3.4,-10.1,731,839,0
R,,5685133,0.009,0.113,-0.084,0.4,-0.1,-10.8,751,862,0
R,,5685198,0.029,0.124,-0.041,-1.2,-4.4,-4.0,757,872,0
R,,5685254,0.027,0.105,-0.071,-0.5,2.1,-8.3,763,877,0
R,,5685314,0.002,0.104,-0.058,-0.9,-4.9,-5.2,767,882,0
R,,5685375,0.009,0.107,-0.055,-3.1,-2.1,-6.5,767,890,0
R,,5685434,-0.002,0.115,-0.054,-0.4,-3.2,-6.0,754,898,0
R,,5685494,-0.002,0.120,-0.052,-1.5,-4.5,-8.3,691,897,0
R,,5685584,0.012,0.157,-0.053,-8.2,-7.4,-9.1,538,900,0
R,,5685644,0.025,0.175,-0.111,-10.4,-9.9,-14.2,525,893,0
R,,5685705,0.070,0.168,-0.036,-8.1,-9.5,-21.5,517,869,0
R,,5685764,-0.019,0.073,-0.100,6.9,-16.1,-23.1,551,690,0
R,,5685824,0.032,0.028,0.004,14.8,-1.7,-8.0,567,706,0
R,,5685884,0.031,0.019,-0.032,2.1,10.8,20.5,576,716,0
R,,5685948,0.013,0.086,-0.034,4.6,12.2,34.4,582,741,0
R,,5686004,0.021,0.149,-0.053,4.4,12.0,39.8,570,747,0
R,,5686064,-0.007,0.238,-0.052,9.1,19.3,38.2,558,760,0
R,,5686125,-0.091,0.238,-0.091,10.3,22.0,19.1,561,762,0
R,,5686184,-0.191,0.184,-0.115,3.6,-0.5,-0.3,568,767,0
R,,5686245,0.338,0.173,-0.023,-23.3,-25.4,-5.8,706,808,0
R,,5686304,0.006,0.076,-0.089,-3.6,-12.0,-14.0,723,829,0
R,,5686364,-0.013,0.117,-0.112,2.5,5.8,-7.9,749,861,0
R,,5686423,0.029,0.096,-0.079,-4.2,-4.4,-5.3,758,872,0
R,,5686484,0.040,0.106,-0.036,2.0,-3.2,-6.1,768,880,0
R,,5686544,0.008,0.095,-0.073,-0.4,-4.9,-5.4,771,886,0
R,,5686608,0.007,0.106,-0.056,-2.1,-4.7,-3.4,771,897,0
R,,5686665,0.002,0.112,-0.064,-1.4,-2.9,-5.7,752,895,0
R,,5686724,-0.002,0.117,-0.066,-2.5,-3.2,-5.5,693,898,0
R,,5686814,-0.001,0.146,-0.068,-3.6,-7.0,-7.1,547,903,0
R,,5686875,0.025,0.161,-0.097,-10.2,-8.0,-10.1,523,899,0
R,,5686934,0.104,0.218,-0.034,-6.8,-19.0,-19.6,531,890,0
R,,5686995,-0.004,0.186,-0.086,2.2,-1.1,-25.7,498,801,0
R,,5687054,0.106,-0.025,-0.071,4.3,-4.8,-6.2,505,657,0
R,,5687114,0.045,0.011,0.046,-1.2,4.5,13.1,529,659,0
R,,5687205,0.024,0.099,-0.029,1.2,15.3,34.2,555,714,0
R,,5687305,-0.004,0.235,-0.038,4.4,25.4,35.7,543,746,0
R,,5687324,-0.007,0.280,-0.059,4.3,26.6,33.7,543,749,0
R,,5687388,-0.121,0.185,-0.134,5.2,24.0,11.6,554,756,0
R,,5687444,-0.117,0.143,-0.096,-0.3,-4.9,-5.0,566,767,0
R,,5687504,0.138,0.150,0.035,-4.9,-33.3,3.6,704,808,0
R,,5687564,0.013,0.093,-0.043,2.8,-19.6,-8.7,725,835,0
R,,5687625,0.014,0.104,-0.059,2.6,2.4,-7.4,743,855,0
R,,5687684,0.035,0.109,-0.055,1.5,-0.1,-9.4,751,866,0
R,,5687745,0.025,0.118,-0.027,3.2,-3.7,-6.4,760,875,0
R,,5687804,0.018,0.105,-0.053,1.2,0.0,-8.0,766,883,0
R,,5687864,0.005,0.126,-0.064,-0.3,-1.9,-4.9,769,888,0
R,,5687924,0.005,0.120,-0.046,-0.8,-1.6,-5.6,758,891,0
R,,5687984,-0.005,0.116,-0.049,-0.6,-2.4,-5.9,727,895,0
R,,5688074,0.004,0.138,-0.053,-5.2,-4.1,-3.7,565,900,0
R,,5688138,0.002,0.145,-0.052,-7.8,-2.3,-9.6,499,899,0
R,,5688194,0.021,0.168,-0.066,-8.4,-9.1,-10.9,491,894,0
R,,5688254,0.081,0.194,-0.058,-11.4,-9.0,-16.4,511,883,0
R,,5688314,0.009,0.137,-0.122,-3.6,-2.3,-23.0,480,773,0
R,,5688375,0.088,0.050,-0.032,-7.2,15.7,-1.5,539,717,0
R,,5688434,0.027,0.013,-0.026,-2.5,21.0,5.5,571,711,0
R,,5688524,0.011,0.085,-0.073,-1.0,26.5,24.1,576,717,0
R,,5688584,0.023,0.131,-0.126,2.2,27.3,28.9,562,724,0
R,,5688644,0.001,0.204,-0.144,5.7,27.3,27.8,555,733,0
R,,5688705,-0.032,0.217,-0.073,7.3,29.3,15.0,553,755,0
R,,5688764,-0.157,0.151,-0.201,4.6,16.0,-4.2,561,778,0
R,,5688828,-0.046,0.146,-0.168,10.6,-10.5,-5.6,687,794,0
R,,5688884,0.000,0.144,-0.075,12.7,4.9,-20.5,722,828,0
R,,5688944,0.020,0.104,-0.056,1.9,6.0,-7.7,744,858,0
R,,5689003,0.018,0.104,-0.056,2.5,-3.2,-7.5,764,877,0
R,,5689064,0.018,0.130,-0.035,0.0,-0.9,-5.1,773,885,0
R,,5689154,0.004,0.108,-0.069,0.6,-3.5,-4.5,767,894,0
R,,5689214,0.009,0.114,-0.047,-2.1,-1.1,-5.6,752,896,0
R,,5689274,0.003,0.116,-0.054,-1.8,-1.5,-5.4,716,898,0
R,,5689334,-0.007,0.111,-0.053,-3.3,-1.1,-5.5,618,902,0
R,,5689424,0.005,0.146,-0.051,-6.5,-1.4,-7.4,533,900,0
R,,5689484,0.021,0.157,-0.065,-7.9,-9.3,-10.7,515,894,0
R,,5689544,0.084,0.194,-0.058,-12.2,-5.2,-19.0,525,890,0
R,,5689608,-0.025,0.162,-0.126,1.9,4.1,-21.7,500,814,0
R,,5689709,0.044,0.016,-0.002,-2.0,5.3,1.6,543,690,0
R,,5689724,0.040,0.010,-0.007,-0.7,9.4,8.4,551,699,0
R,,5689785,0.028,0.082,-0.031,-1.3,15.1,21.4,554,702,0
R,,5689844,-0.003,0.134,-0.084,-1.7,27.0,24.6,563,719,0
R,,5689904,-0.011,0.159,-0.102,6.1,24.3,23.6,570,731,0
R,,5689964,-0.010,0.183,-0.109,5.2,22.7,19.4,572,746,0
R,,5690024,-0.055,0.178,-0.087,-1.0,15.5,15.6,568,753,0
R,,5690084,-0.140,0.137,-0.133,9.8,9.6,-1.0,578,764,0
R,,5690144,-0.060,0.181,-0.103,18.4,-21.7,-3.0,681,785,0
R,,5690205,-0.028,0.130,-0.101,13.0,4.4,-12.9,721,828,0
R,,5690268,0.016,0.098,-0.048,6.7,0.0,-3.0,741,851,0
R,,5690325,0.024,0.084,-0.097,3.1,-3.1,-6.5,755,866,0
R,,5690384,0.024,0.123,-0.031,1.9,-2.7,-5.7,768,883,0
R,,5690474,0.005,0.105,-0.058,1.3,-2.5,-7.5,771,891,0
R,,5690535,0.002,0.110,-0.054,-0.7,-2.6,-3.9,760,897,0
R,,5690594,0.000,0.112,-0.057,-1.7,-1.7,-4.1,739,899,0
R,,5690654,-0.012,0.114,-0.059,-2.2,-1.5,-4.4,648,901,0
R,,5690714,-0.003,0.121,-0.054,-2.0,-3.1,-3.4,597,899,0
R,,5690774,0.000,0.136,-0.053,-3.9,-2.4,-6.5,543,898,0
R,,5690834,-0.001,0.135,-0.053,-3.6,-5.8,-8.7,507,894,0
R,,5690894,0.024,0.159,-0.067,-6.6,-7.9,-12.1,513,892,0
R,,5690955,0.022,0.154,-0.073,-3.3,-9.1,-17.9,517,886,0
R,,5691018,-0.063,0.106,-0.100,4.9,-13.6,-18.3,515,759,0
R,,5691075,0.047,0.070,-0.065,-3.8,-6.1,0.9,543,726,0
R,,5691134,0.029,0.043,-0.018,0.0,9.5,12.2,566,739,0
R,,5691194,0.012,0.078,-0.024,4.3,18.0,19.3,580,755,0
R,,5691254,0.004,0.114,-0.069,4.4,17.9,29.8,583,762,0
R,,5691314,-0.006,0.186,-0.045,11.1,14.7,28.5,584,773,0
R,,5691375,-0.019,0.217,-0.068,8.3,24.0,21.3,567,779,0
R,,5691434,-0.100,0.170,-0.111,1.2,24.5,7.7,571,784,0
R,,5691524,0.034,0.149,-0.153,12.0,-17.9,-5.3,696,805,0
R,,5691583,0.021,0.148,-0.054,11.5,0.7,-18.0,719,825,0
R,,5691644,0.032,0.104,-0.005,0.0,-1.6,-7.6,730,840,0
R,,5691705,0.029,0.096,-0.058,1.6,-1.8,-7.9,739,850,0
R,,5691768,0.040,0.112,-0.042,-2.1,-4.1,-5.6,750,861,0
R,,5691825,0.023,0.113,-0.056,-1.3,-0.9,-6.5,756,870,0
R,,5691884,0.017,0.106,-0.057,1.1,-4.8,-6.1,767,881,0
R,,5691944,0.011,0.114,-0.053,-0.1,-3.3,-5.2,766,890,0
R,,5692004,0.002,0.108,-0.064,-1.0,-3.6,-6.2,761,893,0
R,,5692064,-0.001,0.115,-0.059,-2.5,-5.9,-4.7,722,899,0
R,,5692125,-0.005,0.119,-0.054,-4.6,-2.4,-3.5,614,904,0
R,,5692184,-0.003,0.132,-0.045,-2.6,-5.6,-5.1,548,900,0
R,,5692245,-0.003,0.140,-0.063,-4.9,-5.8,-6.9,518,898,0
R,,5692304,0.037,0.164,-0.056,-9.9,-5.9,-12.0,524,889,0
R,,5692365,0.016,0.161,-0.084,-3.5,-8.4,-20.2,516,869,0
R,,5692428,-0.017,0.145,-0.055,2.2,-19.6,-17.4,493,676,0
R,,5692514,0.039,0.005,0.035,1.6,6.2,-2.7,531,684,0
R,,5692604,0.015,0.091,-0.016,7.0,19.1,20.7,549,700,0
R,,5692665,-0.007,0.128,-0.067,3.4,21.6,25.8,555,698,0
R,,5692724,0.004,0.185,-0.091,2.6,21.5,31.4,551,709,0
R,,5692785,-0.043,0.210,-0.092,6.9,20.0,21.5,552,733,0
R,,5692844,-0.130,0.177,-0.132,-7.1,10.9,10.8,556,742,0
R,,5692905,-0.110,0.125,-0.185,18.4,-15.3,-2.3,632,737,0
R,,5692964,-0.014,0.181,-0.036,12.4,0.1,-10.4,712,817,0
R,,5693024,0.003,0.095,-0.016,0.6,1.1,-7.5,732,840,0
R,,5693084,0.022,0.091,-0.068,0.8,-3.1,-8.9,751,861,0
R,,5693144,0.025,0.103,-0.056,-2.6,-5.1,-5.4,763,878,0
R,,5693208,0.014,0.108,-0.067,-1.4,-1.3,-6.8,770,884,0
R,,5693264,0.011,0.109,-0.050,-0.5,-4.1,-6.6,770,891,0
R,,5693325,0.002,0.111,-0.051,-0.7,-2.2,-6.8,759,894,0
R,,5693384,-0.010,0.107,-0.059,1.7,-3.5,-4.4,741,895,0
R,,5693445,-0.008,0.124,-0.063,-2.3,-2.4,-4.3,649,901,0
R,,5693504,-0.003,0.141,-0.064,-4.3,-2.4,-4.1,547,899,0
R,,5693564,0.004,0.144,-0.054,-7.0,-3.5,-7.3,517,896,0
R,,5693655,0.041,0.168,-0.094,-5.6,-9.0,-13.0,513,884,0
R,,5693714,0.000,0.159,-0.049,-2.7,-2.9,-21.2,498,872,0
R,,5693774,-0.032,0.109,0.020,-7.3,-17.9,-20.7,548,711,0
R,,5693834,0.043,0.042,0.000,3.0,-3.4,-4.0,566,709,0
R,,5693894,0.022,0.048,-0.022,2.7,6.4,13.4,566,713,0
R,,5693988,-0.013,0.138,-0.034,6.4,16.5,23.1,570,732,0
R,,5694044,-0.012,0.144,-0.041,4.2,13.7,25.9,584,747,0
R,,5694104,-0.008,0.195,-0.021,4.3,16.0,29.0,577,752,0
R,,5694164,-0.065,0.211,-0.078,5.7,19.1,18.7,569,757,0
R,,5694224,-0.151,0.162,-0.132,3.3,6.3,5.7,574,759,0
R,,5694285,0.153,0.112,-0.167,25.1,-22.7,-11.8,690,797,0
R,,5694344,-0.003,0.171,-0.128,16.4,8.6,-17.8,714,822,0
R,,5694405,0.024,0.113,-0.027,4.7,8.0,-7.4,731,842,0
R,,5694464,0.027,0.080,-0.069,0.1,-5.8,-8.9,748,861,0
R,,5694524,0.029,0.122,-0.033,0.1,-4.7,-6.7,759,874,0
R,,5694584,0.011,0.097,-0.067,-0.4,0.0,-8.5,763,881,0
R,,5694648,0.003,0.096,-0.057,-2.2,-1.0,-7.2,765,887,0
R,,5694705,-0.002,0.110,-0.055,-0.4,-0.2,-5.5,759,888,0
R,,5694764,-0.003,0.108,-0.059,-0.4,-1.0,-5.3,750,892,0
R,,5694825,-0.003,0.113,-0.060,-2.9,-3.3,-3.5,699,890,0
R,,5694884,0.002,0.141,-0.062,-4.0,-3.2,-2.5,598,895,0
R,,5694974,0.006,0.145,-0.062,-7.3,-2.0,-6.8,510,892,0
R,,5695035,0.035,0.149,-0.058,-5.6,-11.2,-10.3,503,884,0
R,,5695094,0.013,0.130,-0.065,-1.1,-5.9,-19.6,513,873,0
R,,5695155,-0.044,0.109,-0.105,-0.6,-11.7,-13.1,525,744,0
R,,5695214,0.051,0.041,-0.050,0.5,1.6,-3.4,548,724,0
R,,5695275,0.024,0.052,-0.033,2.7,11.6,12.7,591,758,0
R,,5695334,0.007,0.074,-0.032,2.2,18.9,20.3,600,768,0
R,,5695398,0.005,0.126,-0.070,3.5,18.7,28.7,591,774,0
R,,5695454,0.014,0.195,-0.083,12.0,22.4,30.1,577,779,0
R,,5695514,-0.065,0.237,-0.056,9.5,21.7,16.7,571,780,0
R,,5695575,-0.181,0.153,-0.167,10.8,22.0,-4.1,559,781,0
R,,5695634,0.362,0.135,-0.104,2.6,-25.2,-9.9,715,823,0
R,,5695724,0.019,0.086,0.000,-0.3,-7.2,-10.6,740,850,0
R,,5695785,0.021,0.091,-0.062,1.5,-2.8,-7.4,751,863,0
R,,5695844,0.016,0.110,-0.069,-0.4,-2.8,-4.2,759,871,0
R,,5695905,0.022,0.109,-0.053,-0.8,0.2,-6.0,764,879,0
R,,5695964,0.019,0.109,-0.056,-0.6,-3.1,-5.6,773,887,0
R,,5696025,0.022,0.110,-0.048,-1.5,-3.9,-6.8,771,890,0
R,,5696084,-0.002,0.108,-0.058,-0.7,-3.7,-6.3,759,898,0
R,,5696148,-0.011,0.114,-0.056,-1.8,-2.8,-3.9,717,899,0
R,,5696205,-0.001,0.135,-0.045,-4.3,-2.9,-3.4,613,906,0
R,,5696264,0.006,0.144,-0.054,-6.4,-4.9,-6.0,542,903,0
R,,5696325,0.025,0.168,-0.067,-9.8,-5.4,-9.9,508,895,0
R,,5696384,0.068,0.183,-0.036,-8.4,-10.1,-18.1,520,880,0
R,,5696445,-0.018,0.162,-0.124,-1.2,4.1,-23.3,491,787,0
R,,5696504,0.070,0.030,-0.029,-5.7,2.9,-6.5,532,703,0
R,,5696565,0.024,0.026,-0.033,-0.8,11.5,4.0,547,704,0
R,,5696625,0.025,0.052,-0.034,-0.3,12.8,17.6,557,720,0
R,,5696684,0.018,0.099,-0.050,2.7,15.7,27.3,566,740,0
R,,5696775,0.016,0.222,-0.081,4.2,24.2,34.0,542,745,0
R,,5696838,-0.097,0.232,-0.113,13.1,32.7,13.1,544,757,0
R,,5696894,-0.191,0.120,-0.152,3.9,9.7,-3.5,552,763,0
R,,5696955,0.287,0.215,0.032,-25.4,-29.7,-9.6,715,821,0
R,,5697014,-0.006,0.127,-0.044,-2.0,-11.3,-12.7,730,838,0
R,,5697075,0.022,0.122,-0.046,3.9,3.9,-7.1,747,862,0
R,,5697165,0.030,0.112,-0.038,1.1,-0.4,-7.4,766,882,0
R,,5697224,0.005,0.116,-0.048,2.7,-0.7,-8.9,769,887,0
R,,5697285,0.002,0.104,-0.053,0.1,-1.7,-6.1,769,892,0
R,,5697344,-0.007,0.118,-0.049,-0.3,-1.6,-4.9,763,894,0
R,,5697405,-0.006,0.117,-0.051,-0.5,-1.1,-3.7,740,899,0
R,,5697464,-0.005,0.125,-0.050,-1.9,-1.0,-3.9,665,900,0
R,,5697525,0.003,0.142,-0.058,-5.0,-3.1,-5.0,577,901,0
R,,5697588,0.017,0.158,-0.080,-7.9,-3.6,-8.8,521,898,0
R,,5697644,0.057,0.191,-0.056,-8.2,-15.1,-12.1,523,888,0
R,,5697705,-0.002,0.137,-0.055,-4.3,0.0,-21.1,517,865,0
R,,5697764,0.034,0.037,-0.013,-7.6,-13.1,-17.9,532,714,0
R,,5697855,0.030,0.028,-0.023,0.8,12.9,7.9,563,710,0
R,,5697915,0.018,0.062,-0.041,4.4,18.9,20.0,574,732,0
R,,5697974,0.005,0.104,-0.073,2.0,16.4,28.4,580,757,0
R,,5698034,0.030,0.177,-0.071,5.9,16.9,34.6,574,762,0
R,,5698094,-0.001,0.258,-0.064,14.1,26.6,22.4,558,779,0
R,,5698155,-0.104,0.166,-0.150,5.6,35.3,2.8,560,775,0
R,,5698214,-0.123,0.128,-0.110,1.5,-6.8,-9.5,569,782,0
R,,5698279,0.058,0.177,0.144,-28.4,-25.7,4.0,711,817,0
R,,5698334,0.003,0.112,-0.081,0.0,-17.4,-7.4,734,843,0
R,,5698394,0.024,0.106,-0.083,2.8,3.6,-8.0,748,859,0
R,,5698455,0.027,0.104,-0.084,-1.7,-4.1,-8.4,757,871,0
R,,5698514,0.029,0.130,-0.022,-1.3,-0.5,-6.6,772,882,0
R,,5698575,0.011,0.095,-0.061,-0.4,-1.0,-5.7,773,888,0
R,,5698634,0.012,0.108,-0.045,-1.3,-2.7,-4.5,772,891,0
R,,5698695,0.004,0.112,-0.046,-0.5,-1.8,-5.7,767,894,0
R,,5698754,-0.007,0.113,-0.061,-0.4,-0.7,-4.8,757,897,0
R,,5698815,0.000,0.124,-0.049,-2.1,-3.4,-4.3,707,900,0
R,,5698875,0.001,0.137,-0.066,-6.7,-3.0,-5.3,589,906,0
R,,5698934,0.018,0.166,-0.061,-9.6,-6.4,-8.6,525,899,0
R,,5698999,0.071,0.196,-0.056,-10.7,-10.0,-17.5,526,888,0
R,,5699054,-0.008,0.168,-0.041,-1.4,3.9,-22.8,511,850,0
R,,5699115,0.052,0.041,-0.014,-8.8,-6.3,-20.6,520,687,0
R,,5699174,0.029,0.027,0.008,-3.1,7.5,0.7,547,685,0
R,,5699235,0.031,0.058,-0.037,-1.0,19.4,16.3,560,700,0
R,,5699294,0.016,0.101,-0.070,2.0,25.7,24.1,565,720,0
R,,5699355,0.028,0.142,-0.104,1.6,31.1,28.0,559,721,0
R,,5699415,-0.001,0.198,-0.176,7.6,33.1,25.5,557,743,0
R,,5699474,-0.094,0.217,-0.128,6.3,20.1,16.2,551,761,0
R,,5699535,-0.170,0.149,-0.165,-0.2,2.1,-0.4,561,778,0
R,,5699594,0.288,0.285,0.095,-26.7,-17.0,-12.7,708,812,0
R,,5699655,0.014,0.118,-0.085,3.8,-13.3,-12.7,730,838,0
R,,5699718,0.007,0.101,-0.073,3.3,0.1,-9.1,749,859,0
R,,5699775,0.036,0.105,-0.073,2.7,-2.8,-8.9,762,873,0
R,,5699834,0.020,0.115,-0.039,-0.2,-1.0,-7.2,770,884,0
R,,5699895,0.013,0.107,-0.055,-0.2,-3.3,-5.3,771,888,0
R,,5699955,0.005,0.109,-0.061,-1.2,-2.2,-4.8,762,893,0
R,,5700014,0.008,0.120,-0.050,-2.2,-1.3,-6.5,742,899,0
R,,5700075,-0.004,0.120,-0.054,-2.1,-2.2,-4.9,676,904,0
R,,5700134,0.000,0.131,-0.058,-3.1,-2.9,-4.1,581,901,0
R,,5700195,0.002,0.137,-0.059,-4.9,-1.8,-8.4,538,900,0
R,,5700254,0.024,0.165,-0.066,-7.6,-7.3,-9.7,521,893,0
R,,5700315,0.107,0.164,-0.063,-8.1,-7.2,-19.3,523,884,0
R,,5700378,-0.021,0.122,-0.146,-0.8,-10.6,-24.4,486,767,0
R,,5700435,0.062,0.034,-0.047,1.6,-4.9,-1.6,524,688,0
R,,5700495,0.040,0.030,0.005,1.7,7.7,9.6,549,693,0
R,,5700554,0.032,0.054,-0.024,2.3,14.8,19.7,568,721,0
R,,5700614,0.021,0.109,-0.073,10.2,17.5,29.5,568,739,0
R,,5700674,0.020,0.187,-0.048,8.9,13.5,36.0,565,748,0
R,,5700735,-0.032,0.269,-0.079,10.6,31.6,22.3,552,766,0
R,,5700794,-0.155,0.168,-0.177,4.4,24.5,6.6,560,772,0
R,,5700884,0.137,0.163,0.072,-23.6,-29.3,1.5,710,811,0
R,,5700945,0.009,0.114,-0.058,-1.5,-12.6,-10.4,729,835,0
R,,5701004,-0.004,0.123,-0.110,0.2,3.1,-6.5,742,853,0
R,,5701065,0.029,0.107,-0.068,-2.6,-3.5,-4.2,757,869,0
R,,5701128,0.026,0.121,-0.039,-0.4,-1.9,-6.1,770,884,0
R,,5701185,0.012,0.106,-0.063,0.5,-2.2,-6.3,775,890,0
R,,5701245,0.010,0.113,-0.050,-0.7,-3.7,-4.1,770,891,0
R,,5701304,0.009,0.114,-0.056,-0.7,-0.9,-6.4,765,895,0
R,,5701365,-0.005,0.114,-0.059,-1.0,-2.8,-4.3,732,899,0
R,,5701424,-0.004,0.125,-0.061,-3.1,-2.1,-5.9,613,905,0
R,,5701485,0.004,0.152,-0.055,-4.2,-6.0,-8.4,550,901,0
R,,5701544,0.016,0.166,-0.085,-5.8,-11.3,-9.7,519,894,0
R,,5701605,0.074,0.185,-0.053,-9.0,-13.1,-16.7,538,884,0
R,,5701665,0.021,0.189,-0.118,0.6,-11.0,-21.4,505,803,0
R,,5701754,0.043,0.057,0.060,3.3,-8.5,1.2,525,650,0
R,,5701815,0.019,0.042,-0.035,6.4,16.3,13.1,550,696,0
R,,5701878,0.016,0.092,-0.048,10.5,13.8,29.4,563,739,0
R,,5701935,0.031,0.125,-0.038,4.5,10.6,36.8,562,749,0
R,,5701995,0.017,0.247,-0.050,7.1,13.3,38.6,552,765,0
R,,5702054,-0.100,0.262,-0.106,-0.9,22.8,18.0,552,768,0
R,,5702145,0.017,0.209,-0.146,24.6,-29.2,-9.6,702,809,0
R,,5702205,0.028,0.139,-0.120,-0.3,-4.0,-12.1,724,830,0
R,,5702264,0.006,0.123,-0.086,6.4,6.9,-5.0,744,857,0
R,,5702325,0.015,0.104,-0.081,-2.4,-3.0,-5.6,759,872,0
R,,5702384,0.021,0.112,-0.051,-0.3,-5.4,-4.7,767,880,0
R,,5702445,0.012,0.105,-0.071,-0.2,-1.9,-5.7,771,887,0
R,,5702504,0.010,0.109,-0.051,-0.3,-5.4,-3.0,772,892,0
R,,5702569,0.006,0.111,-0.056,0.8,-4.0,-6.8,766,894,0
R,,5702625,-0.003,0.112,-0.065,0.2,-3.1,-5.0,754,898,0
R,,5702685,-0.001,0.120,-0.065,-1.8,-4.3,-5.6,677,899,0
R,,5702745,-0.004,0.141,-0.067,-4.4,-5.3,-7.1,558,906,0
R,,5702804,0.006,0.148,-0.081,-8.3,-8.7,-9.3,526,899,0
R,,5702865,0.058,0.192,-0.064,-5.0,-16.8,-13.7,518,891,0
R,,5702924,0.009,0.176,-0.059,-6.0,-9.5,-20.6,506,850,0
R,,5702985,0.025,-0.003,-0.033,-10.4,-14.1,-17.9,508,708,0
R,,5703044,0.062,0.033,0.052,10.9,-7.2,0.3,534,684,0
R,,5703105,0.040,0.053,-0.028,7.8,14.4,15.7,551,706,0
R,,5703165,0.020,0.087,-0.058,7.5,18.2,30.5,565,735,0
R,,5703225,0.028,0.151,-0.048,1.9,16.0,39.6,559,747,0
R,,5703289,0.002,0.287,-0.083,5.7,29.0,36.3,538,757,0
R,,5703344,-0.138,0.186,-0.101,0.2,26.8,13.7,544,762,0
R,,5703405,-0.196,0.126,-0.226,29.9,-11.7,-8.9,671,779,0
R,,5703464,0.012,0.107,-0.085,14.4,-6.7,-14.2,722,831,0
R,,5703525,0.029,0.101,-0.064,5.6,1.9,-3.7,743,853,0
R,,5703584,0.014,0.090,-0.077,1.8,-4.4,-5.4,757,869,0
R,,5703645,0.029,0.111,-0.054,-0.8,-2.7,-5.1,766,881,0
R,,5703705,0.022,0.107,-0.066,-0.7,-2.2,-5.8,775,888,0
R,,5703765,0.011,0.104,-0.067,-1.6,-3.6,-3.9,770,890,0
R,,5703825,0.012,0.111,-0.061,-1.3,-3.1,-4.4,764,894,0
R,,5703884,0.002,0.115,-0.060,0.2,-2.9,-3.9,750,897,0
R,,5703945,0.004,0.118,-0.058,-0.8,-3.8,-4.7,705,901,0
R,,5704008,-0.004,0.128,-0.062,-4.1,-4.1,-5.9,602,905,0
R,,5704065,-0.002,0.142,-0.060,-5.9,-6.2,-6.6,544,903,0
R,,5704125,0.019,0.162,-0.076,-4.7,-9.8,-9.8,520,899,0
R,,5704185,0.067,0.173,-0.044,-10.0,-9.1,-16.8,527,887,0
R,,5704245,-0.005,0.186,-0.109,-5.4,7.5,-23.4,494,793,0
R,,5704305,0.049,0.032,-0.038,0.0,0.0,-9.8,503,646,0
R,,5704365,0.032,0.022,0.019,-1.3,2.9,6.0,512,631,0
R,,5704424,0.021,0.055,-0.019,1.0,10.7,18.1,522,642,0
R,,5704484,0.014,0.101,-0.061,4.1,18.3,28.3,530,666,0
R,,5704544,0.030,0.161,-0.067,4.9,20.5,33.5,539,681,0
R,,5704605,0.025,0.246,-0.081,8.6,32.4,26.1,533,709,0
R,,5704668,-0.087,0.211,-0.130,-0.6,33.1,13.2,543,745,0
R,,5704725,-0.155,0.125,-0.187,5.1,-2.6,-8.0,556,761,0
R,,5704785,0.214,0.240,0.085,-32.6,-24.4,-7.6,706,806,0
R,,5704844,-0.012,0.141,-0.043,3.7,-15.8,-14.5,719,829,0
R,,5704905,0.024,0.106,-0.064,3.4,2.9,-8.3,742,854,0
R,,5704964,0.045,0.125,-0.057,0.2,-3.9,-5.1,756,868,0
R,,5705025,0.027,0.129,-0.032,0.8,-0.5,-5.5,766,879,0
R,,5705084,0.014,0.108,-0.058,0.4,0.0,-7.0,768,887,0
R,,5705145,0.010,0.116,-0.042,0.9,-4.9,-5.2,761,893,0
R,,5705205,0.002,0.112,-0.050,-1.6,-1.2,-5.4,750,896,0
R,,5705265,0.001,0.122,-0.045,-0.6,-2.9,-6.7,711,897,0
R,,5705325,-0.010,0.132,-0.052,-1.6,-2.5,-3.8,613,903,0
R,,5705388,0.000,0.141,-0.052,-5.3,-1.9,-6.2,529,900,0
R,,5705475,0.023,0.185,-0.062,-7.6,-7.4,-9.9,488,893,0
R,,5705535,0.081,0.185,-0.071,-11.4,-9.0,-16.8,513,887,0
R,,5705595,0.020,0.191,-0.083,1.1,-1.4,-25.9,481,838,0
R,,5705655,-0.013,-0.022,0.073,-12.7,0.8,-14.9,505,716,0
R,,5705714,0.011,0.031,-0.002,-5.4,15.0,1.1,529,707,0
R,,5705774,0.024,0.044,-0.056,-4.0,23.8,17.0,542,713,0
R,,5705834,0.022,0.092,-0.087,-2.8,29.2,24.6,553,724,0
R,,5705895,0.020,0.131,-0.120,-0.2,28.8,28.9,563,734,0
R,,5705985,-0.027,0.196,-0.148,7.7,30.1,19.5,550,752,0
R,,5706044,-0.142,0.146,-0.161,3.1,19.0,6.3,549,770,0
R,,5706109,-0.021,0.185,-0.100,5.6,-16.7,-5.3,637,762,0
R,,5706165,-0.013,0.077,-0.037,5.5,10.0,-27.2,717,825,0
R,,5706225,-0.003,0.111,0.064,2.0,-10.9,-14.2,740,847,0
R,,5706285,0.016,0.115,-0.099,6.6,-4.8,-8.6,762,870,0
R,,5706345,0.020,0.102,-0.061,1.3,-4.3,-6.9,767,879,0
R,,5706405,0.024,0.113,-0.061,0.0,-1.1,-4.7,771,887,0
R,,5706464,0.011,0.094,-0.073,0.0,-1.9,-4.6,773,888,0
R,,5706525,0.011,0.105,-0.065,3.0,-5.9,-2.8,769,894,0
R,,5706584,0.007,0.106,-0.058,-2.5,-1.3,-8.0,753,898,0
R,,5706645,-0.002,0.124,-0.052,-1.3,-3.5,-4.8,706,899,0
R,,5706705,-0.005,0.126,-0.051,-2.1,-2.1,-5.5,611,905,0
R,,5706765,0.000,0.140,-0.056,-4.2,-3.9,-6.8,549,905,0
R,,5706829,0.013,0.159,-0.073,-6.4,-8.5,-9.3,529,898,0
R,,5706885,0.076,0.198,-0.043,-8.0,-13.9,-15.0,532,892,0
R,,5706945,0.017,0.193,-0.036,-8.4,-2.3,-23.7,506,853,0
R,,5707004,-0.038,-0.009,-0.031,-6.3,-16.1,-25.1,499,658,0
R,,5707064,0.055,0.008,0.031,5.6,-2.0,2.8,526,675,0
R,,5707125,0.036,0.042,-0.063,4.5,16.3,25.2,530,671,0
R,,5707185,0.011,0.124,-0.089,-1.4,20.4,36.3,538,681,0
R,,5707275,0.000,0.208,-0.073,7.6,27.1,27.6,540,704,0
R,,5707334,-0.055,0.215,-0.067,1.8,32.6,11.1,538,720,0
R,,5707395,-0.169,0.158,-0.216,8.5,14.1,-2.2,561,757,0
R,,5707455,-0.041,0.200,-0.047,6.5,-14.8,-4.3,685,788,0
R,,5707515,0.000,0.128,-0.073,12.1,-8.6,-9.6,719,828,0
R,,5707579,0.017,0.132,-0.042,0.7,0.6,-6.7,741,853,0
R,,5707635,0.042,0.119,-0.046,1.9,-5.5,-6.3,756,870,0
R,,5707695,0.031,0.127,-0.027,2.3,-3.5,-5.6,767,885,0
R,,5707754,0.016,0.104,-0.060,1.1,-0.4,-7.8,771,892,0
R,,5707815,-0.004,0.110,-0.046,-0.5,-0.2,-6.6,761,895,0
R,,5707875,0.001,0.116,-0.039,-1.1,-2.0,-3.7,740,898,0
R,,5707935,-0.005,0.115,-0.046,-2.1,0.5,-5.9,679,900,0
R,,5707995,-0.001,0.125,-0.052,-2.4,-1.6,-3.5,571,905,0
R,,5708055,0.004,0.144,-0.036,-4.8,-1.8,-5.0,523,901,0
R,,5708115,0.002,0.148,-0.054,-6.3,-2.5,-8.8,493,900,0
R,,5708175,0.040,0.183,-0.074,-7.6,-13.1,-11.8,496,893,0
R,,5708239,0.039,0.161,-0.057,-6.9,-3.6,-21.7,496,878,0
R,,5708325,0.076,0.024,0.024,-6.5,-3.8,-14.0,523,723,0
R,,5708385,0.027,0.001,0.002,-1.9,7.9,1.5,544,706,0
R,,5708445,0.027,0.052,-0.023,0.4,17.1,16.1,557,713,0
R,,5708504,0.006,0.095,-0.075,-3.3,26.8,25.2,559,714,0
R,,5708595,0.005,0.169,-0.144,3.5,30.2,31.3,558,728,0
R,,5708655,-0.064,0.207,-0.145,16.8,23.5,20.3,561,756,0
R,,5708714,-0.141,0.160,-0.145,3.9,9.6,8.5,565,774,0
R,,5708775,-0.056,0.227,-0.074,29.1,-38.5,1.4,686,793,0
R,,5708834,-0.017,0.114,-0.138,21.2,3.5,-10.7,722,825,0
R,,5708895,0.015,0.069,-0.055,2.2,22.5,-11.3,742,852,0
R,,5708955,0.025,0.067,-0.081,1.0,-9.4,-9.1,756,871,0
R,,5709019,0.041,0.121,-0.040,-3.0,-3.2,-7.6,763,878,0
R,,5709075,0.021,0.119,-0.075,0.3,0.7,-5.5,768,879,0
R,,5709135,0.013,0.099,-0.063,-2.5,-5.5,-2.6,767,879,0
R,,5709195,0.019,0.120,-0.047,-2.0,0.0,-5.5,775,888,0
R,,5709254,0.006,0.119,-0.059,1.4,-2.0,-7.5,771,891,0
R,,5709315,0.000,0.121,-0.064,-2.9,-4.5,-7.0,749,897,0
R,,5709375,0.000,0.142,-0.056,-8.3,-4.9,-6.5,587,902,0
R,,5709435,0.024,0.178,-0.053,-8.3,-8.1,-13.6,526,898,0
R,,5709495,0.062,0.202,-0.071,-6.7,-16.1,-14.5,512,887,0
R,,5709555,0.000,0.158,-0.066,-5.9,1.5,-22.4,497,854,0
R,,5709615,0.046,0.013,0.002,-6.5,-14.3,-19.9,524,696,0
R,,5709675,0.043,0.008,0.033,4.7,-0.4,1.3,565,691,0
R,,5709739,0.035,0.040,-0.010,-1.0,12.0,21.6,580,724,0
R,,5709794,0.025,0.109,-0.045,5.9,16.3,32.2,578,740,0
R,,5709855,0.018,0.167,-0.064,7.6,17.2,37.4,564,751,0
R,,5709915,-0.018,0.285,-0.075,9.6,17.2,32.1,545,760,0
R,,5709975,-0.111,0.237,-0.084,-1.3,11.8,18.8,563,766,0
R,,5710035,-0.140,0.147,-0.115,0.7,-5.1,-7.3,575,777,0
R,,5710095,0.002,0.191,0.080,-27.0,-14.2,1.2,708,812,0
R,,5710155,0.035,0.091,-0.005,-4.1,-14.1,-13.5,735,841,0
R,,5710215,0.003,0.124,-0.092,1.5,-1.6,-11.2,756,869,0
R,,5710275,0.030,0.113,-0.054,2.3,-10.0,-6.3,767,883,0
R,,5710334,0.011,0.110,-0.080,-0.1,-3.9,-6.7,777,889,0
R,,5710428,0.004,0.104,-0.061,-1.9,-5.9,-3.1,759,895,0
R,,5710485,0.007,0.116,-0.054,-1.3,-5.2,-3.8,723,900,0
R,,5710544,-0.006,0.109,-0.058,-0.2,-3.9,-5.1,633,903,0
R,,5710605,-0.001,0.122,-0.061,-1.6,-3.6,-5.0,595,906,0
R,,5710665,0.002,0.140,-0.069,-3.7,-4.0,-7.1,534,903,0
R,,5710725,0.009,0.146,-0.079,-6.0,-12.2,-8.1,524,899,0
R,,5710785,0.072,0.194,-0.058,-7.0,-14.3,-14.1,527,891,0
R,,5710845,0.016,0.201,-0.081,-3.4,-2.8,-23.5,495,832,0
R,,5710905,-0.004,0.007,-0.006,0.4,-14.0,-18.0,490,638,0
R,,5710965,0.025,0.027,0.041,3.5,4.9,6.8,500,610,0
R,,5711025,0.015,0.041,-0.017,5.5,7.1,24.2,516,639,0
R,,5711084,0.024,0.108,-0.035,2.8,7.3,35.1,536,683,0
R,,5711149,0.029,0.201,-0.033,5.2,9.9,38.3,528,702,0
R,,5711205,-0.002,0.288,-0.044,6.7,27.7,30.7,531,724,0
R,,5711265,-0.137,0.187,-0.149,3.8,22.7,14.5,538,744,0
R,,5711325,-0.127,0.180,-0.071,0.0,-9.9,-7.4,542,746,0
R,,5711385,-0.052,0.191,0.073,-13.3,-9.2,-0.3,706,809,0
R,,5711475,0.025,0.134,-0.068,1.5,8.0,-5.1,742,851,0
R,,5711535,0.029,0.122,-0.075,-0.8,-1.6,-8.0,754,866,0
R,,5711595,0.038,0.117,-0.026,2.3,-7.3,-6.5,765,879,0
R,,5711655,0.012,0.092,-0.068,-0.6,-2.4,-10.1,767,887,0
R,,5711715,0.000,0.112,-0.054,-1.4,-2.5,-7.4,765,892,0
R,,5711775,-0.005,0.119,-0.055,-0.8,-1.5,-6.6,750,897,0
R,,5711834,-0.012,0.116,-0.056,-3.2,-1.9,-3.9,700,898,0
R,,5711899,-0.007,0.136,-0.059,-3.5,-1.5,-2.9,580,904,0
R,,5711955,0.001,0.142,-0.054,-5.5,-2.3,-7.4,522,900,0
R,,5712015,0.004,0.142,-0.076,-8.0,-7.6,-10.5,498,893,0
R,,5712075,0.057,0.175,-0.060,-8.9,-12.2,-12.2,519,888,0
R,,5712135,0.005,0.170,-0.080,-1.2,2.0,-24.5,492,846,0
R,,5712195,0.038,0.013,0.008,-2.1,-10.3,-24.3,512,699,0
R,,5712255,0.035,0.043,0.025,1.8,1.9,1.5,542,693,0
R,,5712315,0.026,0.061,-0.018,-1.3,13.9,20.3,554,722,0
R,,5712375,0.008,0.100,-0.060,3.0,17.8,31.7,562,737,0
R,,5712435,0.020,0.164,-0.050,5.0,13.9,36.0,560,738,0
R,,5712525,-0.055,0.257,-0.062,6.7,34.0,15.3,552,749,0
R,,5712588,-0.216,0.166,-0.217,14.6,20.7,-1.3,557,757,0
R,,5712645,0.034,0.108,-0.089,10.5,-11.3,-6.6,687,795,0
R,,5712705,0.002,0.176,-0.087,10.0,4.0,-26.4,719,825,0
R,,5712795,0.035,0.075,-0.035,4.5,3.0,-10.3,745,857,0
R,,5712855,0.039,0.118,-0.052,2.2,-4.7,-8.7,752,864,0
R,,5712915,0.044,0.110,-0.029,1.9,-4.0,-7.9,761,876,0
R,,5712975,0.021,0.112,-0.050,2.2,-4.1,-8.1,766,879,0
R,,5713035,-0.013,0.111,-0.059,1.4,-2.6,-5.8,764,891,0
R,,5713095,0.003,0.111,-0.045,-1.8,-3.3,-6.9,753,897,0
R,,5713155,-0.001,0.119,-0.057,-2.2,-2.6,-4.8,707,900,0
R,,5713215,0.002,0.134,-0.051,-4.9,-1.4,-5.2,601,901,0
R,,5713275,0.007,0.150,-0.055,-6.6,-4.1,-8.4,533,902,0
R,,5713338,0.046,0.197,-0.069,-8.6,-9.2,-11.4,507,893,0
R,,5713395,0.074,0.172,-0.064,-11.6,-8.4,-21.2,522,876,0
R,,5713455,0.022,0.113,-0.147,7.9,-9.0,-20.3,466,721,0
R,,5713545,0.036,0.022,0.016,1.8,8.7,0.8,537,659,0
R,,5713605,0.024,0.043,-0.025,-0.4,21.0,17.7,547,697,0
R,,5713665,0.012,0.104,-0.094,-1.3,25.9,25.6,554,717,0
R,,5713725,0.028,0.154,-0.096,0.7,29.7,30.3,555,716,0
R,,5713785,-0.025,0.213,-0.158,11.4,33.7,24.5,547,732,0
R,,5713845,-0.101,0.226,-0.082,-2.9,20.6,10.0,551,756,0
R,,5713905,-0.062,0.162,-0.177,11.4,-19.0,-2.0,620,737,0
R,,5713965,-0.067,0.034,-0.061,8.8,9.6,-26.5,719,824,0
R,,5714029,0.035,0.094,-0.012,1.7,3.6,-11.5,741,851,0
R,,5714085,0.014,0.121,-0.070,2.5,-4.9,-7.5,755,870,0
R,,5714145,0.026,0.130,-0.030,3.4,-5.9,-6.5,772,883,0
R,,5714205,0.011,0.108,-0.072,0.2,-1.8,-9.1,773,889,0
R,,5714265,-0.002,0.104,-0.059,1.1,-2.8,-5.3,767,895,0
R,,5714325,0.005,0.110,-0.042,-0.1,-2.1,-4.5,759,896,0
R,,5714385,-0.013,0.115,-0.053,-0.8,-2.2,-5.0,737,900,0
R,,5714445,-0.001,0.122,-0.057,-2.9,-0.2,-4.6,657,900,0
R,,5714505,-0.003,0.137,-0.056,-3.9,-4.3,-5.0,556,903,0
R,,5714595,0.022,0.178,-0.077,-7.6,-8.0,-10.2,508,895,0
R,,5714655,0.089,0.194,-0.071,-10.2,-10.1,-18.4,528,884,0
R,,5714715,0.041,0.143,-0.104,9.5,-2.2,-26.1,479,793,0
R,,5714779,0.079,-0.022,-0.079,5.3,-5.0,0.2,524,678,0
R,,5714835,0.049,0.023,0.007,-2.6,12.8,11.3,552,682,0
R,,5714895,0.023,0.051,-0.039,1.5,22.1,21.4,553,705,0
R,,5714955,0.022,0.122,-0.099,2.2,19.8,34.5,551,734,0
R,,5715015,0.009,0.198,-0.077,4.9,21.6,32.7,555,749,0
R,,5715075,-0.025,0.231,-0.125,2.3,30.6,23.6,548,761,0
R,,5715135,-0.174,0.141,-0.202,11.1,25.3,0.5,554,771,0
R,,5715195,-0.069,0.137,-0.088,16.0,-14.6,-4.7,688,794,0
R,,5715255,0.011,0.130,-0.103,12.4,-0.6,-18.8,724,832,0
R,,5715315,0.031,0.138,-0.045,2.3,3.5,-6.5,748,857,0
R,,5715375,0.031,0.106,-0.067,0.3,-1.3,-5.4,755,867,0
R,,5715435,0.028,0.108,-0.051,-0.3,-4.6,-4.8,767,881,0
R,,5715499,0.021,0.102,-0.068,-0.3,-1.5,-8.5,774,887,0
R,,5715555,0.017,0.109,-0.043,0.4,-1.7,-6.4,769,890,0
R,,5715645,0.000,0.118,-0.046,-1.8,-1.0,-5.9,749,900,0
R,,5715705,0.002,0.119,-0.051,-1.8,-2.5,-4.2,680,901,0
R,,5715765,0.001,0.138,-0.060,-4.9,-2.6,-4.9,573,903,0
R,,5715825,0.010,0.155,-0.051,-9.5,-2.5,-9.0,518,901,0
R,,5715885,0.038,0.180,-0.075,-8.3,-7.6,-13.1,498,895,0
R,,5715945,0.077,0.175,-0.053,-10.5,-7.8,-22.0,519,881,0
R,,5716005,-0.017,0.109,-0.133,-1.5,-5.0,-19.3,461,706,0
R,,5716065,0.058,0.023,-0.043,-0.6,4.4,-1.2,523,689,0
R,,5716125,0.024,0.017,-0.010,-6.0,16.2,11.5,539,706,0
R,,5716189,0.013,0.058,-0.053,0.0,19.5,23.7,557,724,0
R,,5716245,0.012,0.125,-0.090,1.6,27.3,25.1,555,718,0
R,,5716305,0.021,0.169,-0.159,5.6,36.3,26.2,557,736,0
R,,5716365,0.006,0.205,-0.119,8.6,27.7,21.6,553,754,0
R,,5716425,-0.121,0.138,-0.185,10.1,24.5,5.1,555,767,0
R,,5716485,-0.095,0.143,-0.064,1.6,-5.1,-5.4,571,776,0
R,,5716545,0.136,0.205,0.067,-20.1,-12.5,-25.0,711,813,0
R,,5716605,-0.027,0.147,-0.046,-0.7,-6.8,-14.8,741,849,0
R,,5716666,0.019,0.095,-0.059,3.0,4.2,-4.7,755,867,0
R,,5716725,0.026,0.109,-0.050,1.0,-7.2,-5.5,765,880,0
R,,5716785,0.025,0.123,-0.046,1.4,-1.2,-6.9,770,885,0
R,,5716845,0.011,0.112,-0.058,0.4,-3.0,-5.0,770,892,0
R,,5716909,0.005,0.115,-0.050,-1.2,-2.3,-5.9,762,895,0
R,,5716965,-0.004,0.112,-0.053,-1.2,-1.5,-5.7,728,899,0
R,,5717025,-0.001,0.118,-0.045,-3.5,-2.1,-3.2,625,903,0
R,,5717085,0.000,0.136,-0.052,-3.7,-3.5,-5.8,555,902,0
R,,5717145,0.006,0.144,-0.056,-6.5,-2.7,-10.6,516,900,0
R,,5717206,0.043,0.179,-0.087,-7.7,-10.6,-14.3,509,893,0
R,,5717265,0.063,0.177,-0.053,-6.6,-7.4,-23.2,514,878,0
R,,5717325,0.001,0.102,-0.135,3.4,-11.1,-16.6,495,689,0
R,,5717385,0.058,0.029,-0.020,2.6,-2.5,2.5,525,686,0
R,,5717445,0.032,0.016,-0.026,-2.2,10.6,15.7,548,696,0
R,,5717505,0.025,0.071,-0.026,3.3,19.9,27.6,562,719,0
R,,5717565,0.013,0.139,-0.080,4.0,18.4,34.1,555,737,0
R,,5717629,0.023,0.249,-0.092,5.2,26.5,39.6,548,743,0
R,,5717685,-0.068,0.230,-0.103,7.7,26.7,18.4,554,764,0
R,,5717775,-0.134,0.121,-0.140,7.5,-13.0,-10.3,627,763,0
R,,5717835,-0.019,0.128,-0.044,6.8,-1.0,-22.6,717,820,0
R,,5717895,0.012,0.114,0.034,3.7,-3.8,-11.4,746,852,0
R,,5717956,0.015,0.074,-0.083,2.8,-3.6,-7.8,758,871,0
R,,5718015,0.015,0.094,-0.075,-2.1,-7.1,-8.3,766,878,0
R,,5718075,0.026,0.120,-0.048,-2.5,1.8,-8.4,773,886,0
R,,5718135,0.014,0.111,-0.054,-0.5,-3.0,-4.7,773,889,0
R,,5718225,0.005,0.123,-0.056,-2.2,-0.5,-6.1,772,898,0
R,,5718285,-0.006,0.113,-0.061,0.0,-1.9,-4.4,752,898,0
R,,5718349,0.000,0.125,-0.061,-3.7,-3.0,-5.8,637,904,0
R,,5718405,0.002,0.146,-0.050,-4.2,-4.8,-7.4,559,901,0
R,,5718465,0.015,0.170,-0.092,-9.4,-5.0,-9.5,520,896,0
R,,5718525,0.072,0.194,-0.057,-9.6,-12.8,-16.0,520,885,0
R,,5718585,-0.001,0.190,-0.068,0.3,-2.2,-21.5,506,835,0
R,,5718645,0.079,0.036,0.012,-6.7,-1.5,-16.3,531,714,0
R,,5718706,0.036,0.014,0.019,1.4,13.2,0.0,564,719,0
R,,5718795,0.024,0.052,-0.036,6.6,14.7,24.7,565,742,0
R,,5718855,0.029,0.128,-0.052,5.8,12.8,35.3,570,754,0
R,,5718916,0.027,0.215,-0.068,7.5,16.0,43.2,546,768,0
R,,5718975,-0.067,0.272,-0.107,-1.2,18.4,20.0,542,777,0
R,,5719036,-0.213,0.186,-0.151,15.3,0.6,-1.3,568,785,0
R,,5719099,0.344,0.190,-0.049,-29.5,-31.7,-0.3,710,813,0
R,,5719155,0.004,0.104,-0.113,-2.4,-9.5,-15.7,729,835,0
R,,5719246,0.006,0.099,-0.087,0.4,0.6,-9.7,758,870,0
R,,5719305,0.025,0.106,-0.053,-1.2,-5.7,-5.1,762,878,0
R,,5719365,0.033,0.106,-0.041,-0.2,-0.1,-6.1,769,880,0
R,,5719425,0.013,0.096,-0.070,-2.0,-3.1,-5.8,771,886,0
R,,5719485,0.017,0.114,-0.060,-2.6,-4.2,-3.7,772,893,0
R,,5719545,0.010,0.108,-0.061,-1.1,-3.0,-6.0,767,895,0
R,,5719605,0.004,0.119,-0.060,-1.9,-6.0,-7.2,717,900,0
R,,5719666,0.001,0.147,-0.069,-4.4,-6.9,-6.7,588,906,0
R,,5719725,0.020,0.163,-0.084,-8.4,-8.3,-9.2,540,903,0
R,,5719786,0.087,0.199,-0.060,-5.0,-23.3,-14.7,524,892,0
R,,5719849,0.032,0.191,-0.100,-4.5,-5.3,-24.1,504,823,0
R,,5719905,0.015,-0.012,-0.005,-5.5,-9.8,-17.7,492,663,0
R,,5719965,0.011,0.020,0.040,14.7,4.3,1.5,514,631,0
R,,5720025,0.029,0.051,-0.026,-6.5,11.2,26.6,529,655,0
R,,5720085,0.028,0.096,-0.060,2.7,19.0,34.6,538,680,0
R,,5720145,0.040,0.176,-0.074,4.5,21.4,38.5,540,705,0
R,,5720206,-0.001,0.281,-0.098,14.6,29.8,28.0,532,731,0
R,,5720265,-0.156,0.197,-0.176,2.7,25.8,3.5,537,758,0
R,,5720326,-0.125,0.144,-0.172,26.1,-30.1,-3.8,681,787,0
R,,5720385,-0.002,0.121,-0.093,12.9,-5.1,-12.4,723,831,0
R,,5720445,0.019,0.125,-0.023,-0.5,-1.7,-5.3,746,856,0
R,,5720509,0.023,0.107,-0.092,-0.5,-4.2,-6.3,762,875,0
R,,5720565,0.029,0.105,-0.039,-1.2,-5.6,-5.7,767,881,0
R,,5720625,0.010,0.110,-0.063,-0.8,-2.5,-6.5,771,887,0
R,,5720685,0.010,0.114,-0.051,-1.5,-4.0,-3.4,766,893,0
R,,5720746,0.007,0.114,-0.050,-0.9,-3.9,-3.7,749,895,0
R,,5720805,0.003,0.117,-0.055,-2.6,-2.6,-4.6,698,899,0
R,,5720865,0.006,0.128,-0.055,-5.5,-2.1,-7.5,592,905,0
R,,5720925,0.003,0.154,-0.045,-6.0,-6.4,-8.2,532,905,0
R,,5720985,0.039,0.193,-0.082,-3.9,-9.9,-12.1,516,899,0
R,,5721045,0.099,0.199,-0.042,-11.2,-6.1,-21.9,531,881,0
R,,5721105,0.015,0.126,-0.156,-1.6,4.8,-25.3,475,710,0
R,,5721166,0.063,0.009,-0.061,-2.3,0.8,-5.0,498,624,0
R,,5721229,0.021,0.006,0.000,-3.2,12.6,8.6,502,613,0
R,,5721286,0.037,0.035,-0.053,6.0,16.2,21.6,507,620,0
R,,5721345,0.028,0.100,-0.084,-5.7,25.0,29.3,522,652,0
R,,5721405,0.038,0.169,-0.150,4.5,39.3,30.2,520,674,0
R,,5721465,-0.025,0.188,-0.191,8.3,33.6,21.5,530,714,0
R,,5721525,-0.130,0.168,-0.132,9.7,25.3,4.7,529,751,0
R,,5721585,-0.111,0.151,-0.050,6.4,-18.2,-7.6,578,712,0
R,,5721645,-0.097,0.040,-0.056,8.8,23.6,-35.6,716,821,0
R,,5721706,0.030,0.114,-0.012,1.0,-10.0,-18.7,740,852,0
R,,5721765,-0.005,0.143,-0.127,6.0,-4.1,-5.8,760,873,0
R,,5721826,0.037,0.132,-0.008,2.2,-5.2,-3.5,768,883,0
R,,5721889,0.005,0.106,-0.044,0.8,-1.2,-9.7,763,891,0
R,,5721945,0.000,0.106,-0.050,0.0,-2.4,-8.4,746,895,0
R,,5722005,-0.005,0.121,-0.036,-1.0,-3.1,-5.3,696,897,0
R,,5722065,-0.016,0.107,-0.057,-2.2,-0.4,-6.5,608,903,0
R,,5722125,-0.006,0.122,-0.046,-2.5,-0.5,-5.5,559,899,0
R,,5722185,0.003,0.144,-0.049,-8.1,-2.6,-6.7,508,896,0
R,,5722246,0.003,0.153,-0.074,-9.6,-6.4,-9.5,460,897,0
R,,5722305,0.076,0.210,-0.052,-10.8,-11.1,-14.5,491,892,0
R,,5722366,-0.051,0.198,-0.062,2.7,3.6,-20.5,482,846,0
R,,5722425,0.062,0.020,0.040,-10.1,-4.8,-11.2,515,695,0
R,,5722485,0.025,0.000,0.004,2.5,8.5,1.0,564,706,0
R,,5722545,0.022,0.024,-0.025,0.0,16.7,15.7,578,716,0
R,,5722609,0.014,0.103,-0.074,3.0,21.2,29.1,565,713,0
R,,5722666,0.035,0.158,-0.071,3.7,22.2,36.5,550,713,0
R,,5722725,0.017,0.254,-0.120,10.2,34.1,25.9,537,732,0
R,,5722786,-0.071,0.249,-0.082,1.8,31.7,10.6,545,760,0
R,,5722845,-0.157,0.121,-0.202,3.8,-8.7,-8.2,562,778,0
R,,5722906,0.110,0.150,0.105,-22.9,-15.7,-16.9,706,812,0
R,,5722965,-0.018,0.126,-0.027,-2.2,-21.1,-14.9,733,845,0
R,,5723025,0.026,0.118,-0.055,3.5,4.4,-7.2,753,866,0
R,,5723085,0.039,0.121,-0.078,2.2,-1.9,-6.2,760,873,0
R,,5723145,0.031,0.130,-0.020,3.4,-6.2,-2.8,768,882,0
R,,5723206,0.016,0.102,-0.062,0.4,-0.6,-5.5,772,886,0
R,,5723265,0.010,0.109,-0.050,-1.8,-4.0,-3.8,768,892,0
R,,5723330,0.020,0.109,-0.051,-2.1,-2.9,-6.4,755,896,0
R,,5723385,-0.016,0.118,-0.055,-0.6,-1.8,-3.4,732,901,0
R,,5723445,0.000,0.124,-0.053,-3.7,-1.0,-4.8,654,901,0
R,,5723505,0.003,0.138,-0.056,-5.2,-2.4,-6.6,560,904,0
R,,5723595,0.030,0.181,-0.076,-7.2,-9.3,-11.8,511,901,0
R,,5723656,0.088,0.173,-0.037,-13.7,-11.7,-19.3,521,885,0
R,,5723715,0.004,0.142,-0.190,-1.5,-1.8,-19.6,473,752,0
R,,5723775,0.066,0.005,-0.050,4.9,6.7,-7.4,524,694,0
R,,5723835,0.025,0.044,-0.010,-4.2,14.2,9.1,534,684,0
R,,5723895,0.020,0.081,-0.038,-5.6,22.7,18.9,539,689,0
R,,5723956,0.018,0.098,-0.104,-5.3,31.0,21.2,549,701,0
R,,5724019,0.029,0.147,-0.145,3.3,33.1,26.2,553,714,0
R,,5724076,0.010,0.187,-0.147,4.8,27.9,24.1,555,736,0
R,,5724135,-0.061,0.192,-0.117,5.3,22.5,16.6,559,759,0
R,,5724196,-0.128,0.144,-0.102,6.4,6.2,2.0,575,778,0
R,,5724255,-0.051,0.186,-0.114,13.1,-23.9,0.1,684,790,0
R,,5724315,-0.004,0.150,-0.084,13.3,1.6,-12.6,720,830,0
R,,5724375,0.025,0.101,-0.015,5.1,7.8,-5.0,742,854,0
R,,5724435,0.027,0.091,-0.051,3.3,-3.7,-6.2,757,871,0
R,,5724496,0.020,0.107,-0.047,1.7,-6.5,-3.9,767,880,0
R,,5724555,0.025,0.111,-0.054,2.2,-2.3,-6.0,772,886,0
R,,5724616,0.009,0.108,-0.057,0.6,-4.1,-5.0,772,891,0
R,,5724675,0.012,0.109,-0.055,0.0,-2.4,-5.2,768,898,0
R,,5724739,-0.003,0.110,-0.054,-1.0,-2.8,-4.9,755,896,0
R,,5724795,-0.004,0.109,-0.058,-1.0,-0.6,-5.9,721,899,0
R,,5724855,-0.003,0.126,-0.056,-2.7,-3.6,-4.8,622,902,0
R,,5724916,-0.001,0.142,-0.059,-3.7,-4.8,-7.1,544,901,0
R,,5724975,0.000,0.155,-0.065,-7.1,-5.1,-7.6,511,897,0
R,,5725036,0.040,0.182,-0.053,-6.3,-14.0,-10.1,513,893,0
R,,5725095,0.017,0.152,-0.061,-3.9,-6.0,-19.6,504,871,0
R,,5725156,-0.026,0.085,-0.120,-1.1,-14.9,-13.3,496,677,0
R,,5725215,0.037,0.038,-0.025,2.5,-8.9,-0.8,522,693,0
R,,5725275,0.018,0.026,-0.025,1.8,9.5,14.0,548,704,0
R,,5725335,0.021,0.073,-0.030,5.8,15.8,24.5,548,718,0
R,,5725395,0.005,0.120,-0.077,4.0,16.3,28.6,560,740,0
R,,5725459,0.025,0.192,-0.055,8.6,20.5,33.9,561,755,0
R,,5725515,-0.014,0.237,-0.078,11.7,24.7,20.5,556,767,0
R,,5725576,-0.117,0.185,-0.079,4.8,14.5,8.4,567,768,0
R,,5725635,-0.134,0.154,-0.096,3.3,-11.0,-7.8,579,782,0
R,,5725696,-0.027,0.139,0.125,-40.2,-16.2,5.4,708,811,0
R,,5725755,0.020,0.080,-0.030,0.1,-18.2,-9.6,725,831,0
R,,5725815,0.003,0.100,-0.079,2.6,-1.7,-15.0,746,855,0
R,,5725875,0.029,0.105,-0.083,-2.7,-6.1,-4.0,753,864,0
R,,5725935,0.036,0.114,-0.056,0.2,-2.3,-4.6,763,874,0
R,,5725996,0.019,0.110,-0.065,-0.9,-5.2,-3.2,767,880,0
R,,5726055,0.019,0.108,-0.060,-2.9,-5.1,-2.0,768,886,0
R,,5726120,0.010,0.117,-0.052,0.2,-4.3,-2.7,763,889,0
R,,5726175,0.014,0.106,-0.057,-0.1,-4.9,-4.6,758,895,0
R,,5726236,0.004,0.118,-0.076,-0.8,-2.8,-4.0,742,897,0
R,,5726295,0.001,0.127,-0.063,-2.2,-2.4,-6.0,670,899,0
R,,5726355,-0.006,0.128,-0.071,-3.9,-6.2,-6.3,560,907,0
R,,5726416,0.004,0.148,-0.062,-5.5,-9.5,-7.6,535,903,0
R,,5726475,0.061,0.195,-0.067,-2.7,-17.7,-11.4,528,894,0
R,,5726536,0.021,0.160,-0.035,-6.2,-4.7,-18.3,520,867,0
R,,5726595,0.000,0.145,-0.118,-1.4,-0.6,-22.8,471,627,0
R,,5726656,0.055,0.073,-0.030,0.8,-15.4,0.7,500,631,0
R,,5726715,0.035,0.020,0.000,1.0,5.0,15.4,495,589,0
R,,5726805,0.017,0.087,-0.056,-1.4,14.3,30.1,510,613,0
R,,5726870,0.028,0.136,-0.108,1.0,23.9,35.4,509,613,0
R,,5726925,0.002,0.235,-0.091,8.0,22.8,34.0,517,672,0
R,,5726986,-0.074,0.211,-0.116,4.2,23.6,24.0,530,708,0
R,,5727045,-0.174,0.158,-0.131,8.4,0.8,-2.5,548,732,0
R,,5727105,0.308,0.289,0.071,-29.8,-35.8,-3.5,683,785,0
R,,5727166,-0.011,0.122,-0.121,2.4,-11.3,-16.4,712,816,0
R,,5727225,0.004,0.139,-0.149,3.9,18.3,-5.7,736,846,0
R,,5727286,0.043,0.095,-0.063,-1.1,-7.1,-1.6,754,868,0
R,,5727345,0.029,0.108,-0.056,0.4,-1.5,-5.4,768,880,0
R,,5727406,0.013,0.098,-0.070,0.5,-4.6,-5.0,769,887,0
R,,5727465,0.016,0.108,-0.056,-0.2,-4.2,-3.3,764,896,0
R,,5727526,0.011,0.107,-0.064,-1.7,-3.3,-3.6,748,896,0
R,,5727589,0.003,0.106,-0.058,-0.9,-4.3,-4.0,705,901,0
R,,5727645,0.000,0.120,-0.056,-2.3,-1.5,-5.4,652,901,0
R,,5727706,-0.002,0.129,-0.059,-2.7,-3.0,-5.1,569,907,0
R,,5727765,-0.003,0.136,-0.060,-4.6,-4.4,-6.8,522,904,0
R,,5727826,0.010,0.162,-0.075,-6.6,-8.1,-8.4,510,901,0
R,,5727885,0.063,0.186,-0.037,-6.7,-11.6,-14.3,530,892,0
R,,5727946,0.018,0.190,-0.060,-7.9,0.6,-23.3,493,845,0
R,,5728005,-0.054,0.017,-0.046,-3.8,-13.3,-22.9,486,652,0
R,,5728066,0.018,0.036,0.021,5.3,-1.6,-1.4,505,651,0
R,,5728125,0.027,0.024,-0.024,1.4,7.5,18.5,521,655,0
R,,5728185,0.015,0.062,-0.033,4.6,11.8,28.7,535,675,0
R,,5728250,0.030,0.148,-0.067,4.0,16.2,37.0,537,689,0
R,,5728305,0.018,0.223,-0.059,6.7,28.7,33.9,524,707,0
R,,5728366,-0.078,0.232,-0.107,4.9,29.6,14.9,532,726,0
R,,5728425,-0.186,0.160,-0.186,5.4,0.7,-5.3,549,746,0
R,,5728486,0.238,0.192,0.055,-19.7,-21.8,-9.7,701,803,0
R,,5728545,0.000,0.124,-0.055,1.4,-13.5,-15.5,726,834,0
R,,5728605,0.002,0.094,-0.104,2.9,5.6,-9.8,748,860,0
R,,5728666,0.028,0.106,-0.069,1.2,-2.7,-4.6,761,874,0
R,,5728725,0.024,0.122,-0.041,0.1,-0.4,-7.0,767,886,0
R,,5728786,0.001,0.113,-0.058,1.5,0.3,-6.6,762,891,0
R,,5728875,0.000,0.111,-0.056,-1.3,-2.1,-5.2,735,897,0
R,,5728935,-0.003,0.116,-0.052,-2.2,-1.5,-4.9,675,899,0
R,,5729000,-0.003,0.121,-0.053,-3.6,-1.8,-4.6,565,906,0
R,,5729055,-0.003,0.127,-0.034,-2.9,-2.3,-4.6,528,901,0
R,,5729116,-0.010,0.132,-0.056,-2.9,-1.5,-7.6,489,900,0
R,,5729175,0.006,0.155,-0.065,-6.8,-6.5,-8.1,480,898,0
R,,5729236,0.063,0.199,-0.062,-8.4,-10.1,-12.6,495,888,0
R,,5729295,-0.017,0.173,-0.061,-1.9,3.4,-22.4,483,857,0
R,,5729356,0.025,0.056,0.027,-10.3,-11.1,-22.9,499,688,0
R,,5729416,0.016,0.036,0.008,2.2,5.6,-3.0,529,687,0
R,,5729475,0.015,0.038,-0.031,-3.8,15.7,17.2,545,692,0
R,,5729536,0.000,0.088,-0.064,-2.4,24.9,27.7,547,706,0
R,,5729595,0.016,0.145,-0.090,1.0,25.5,32.0,544,719,0
R,,5729660,0.013,0.210,-0.099,4.2,26.3,28.9,538,735,0
R,,5729715,-0.032,0.193,-0.123,3.1,28.0,17.0,541,746,0
R,,5729776,-0.138,0.157,-0.174,5.3,11.5,3.5,549,756,0
R,,5729835,-0.047,0.155,-0.100,1.2,-4.6,-8.9,602,742,0
R,,5729895,-0.012,0.106,-0.017,5.2,11.4,-17.1,712,813,0
R,,5729956,0.013,0.115,0.064,1.8,-10.6,-15.2,733,841,0
R,,5730015,0.007,0.105,-0.102,6.1,-4.6,-8.9,752,861,0
R,,5730076,0.035,0.101,-0.042,4.0,-7.8,-5.3,762,874,0
R,,5730135,0.030,0.121,-0.053,0.6,0.1,-9.4,771,884,0
R,,5730196,0.006,0.115,-0.058,1.8,-1.9,-5.8,771,887,0
R,,5730255,0.007,0.110,-0.048,-0.3,-2.3,-4.1,770,892,0
R,,5730316,0.004,0.113,-0.053,-0.3,-1.1,-5.2,761,891,0
R,,5730379,0.000,0.106,-0.050,-1.2,-2.5,-5.0,748,895,0
R,,5730435,-0.009,0.116,-0.047,-1.2,-3.2,-5.2,700,895,0
R,,5730496,-0.005,0.135,-0.059,-5.1,-2.3,-4.7,587,902,0
R,,5730555,-0.004,0.140,-0.057,-7.0,-2.9,-7.6,533,900,0
R,,5730616,0.019,0.160,-0.068,-8.1,-7.7,-9.7,495,894,0
R,,5730675,0.060,0.169,-0.051,-9.5,-10.9,-15.7,516,879,0
R,,5730736,-0.012,0.182,-0.093,-0.8,2.4,-21.5,478,814,0
R,,5730795,0.052,0.030,-0.025,-4.5,-0.9,-17.5,529,717,0
R,,5730856,0.032,0.025,0.015,0.2,5.4,2.3,552,705,0
R,,5730916,0.021,0.050,-0.018,5.3,14.5,17.6,562,712,0
R,,5730975,0.004,0.115,-0.072,-0.2,22.9,24.4,556,723,0
R,,5731036,0.000,0.145,-0.102,3.9,25.7,28.9,560,743,0
R,,5731099,-0.016,0.190,-0.116,5.7,23.7,23.8,561,763,0
R,,5731156,-0.014,0.196,-0.084,3.5,21.3,19.9,562,768,0
R,,5731215,-0.094,0.157,-0.139,2.0,9.3,10.1,572,776,0
R,,5731276,-0.078,0.151,-0.048,5.2,1.0,-4.1,581,781,0
R,,5731366,0.017,0.186,-0.077,21.9,5.9,-7.2,716,822,0
R,,5731425,0.043,0.096,0.007,4.0,-4.0,-6.0,733,838,0
R,,5731486,0.017,0.084,-0.082,4.0,-2.5,-9.5,748,853,0
R,,5731545,0.029,0.113,-0.050,-0.5,-1.3,-4.3,756,869,0
R,,5731606,0.030,0.110,-0.071,0.1,0.4,-5.6,767,879,0
R,,5731666,0.026,0.107,-0.065,-1.1,-4.5,-4.2,772,887,0
R,,5731725,0.021,0.114,-0.053,-0.5,-3.6,-5.4,767,892,0
R,,5731790,0.008,0.116,-0.050,-1.0,-5.1,-4.6,751,898,0
R,,5731845,0.006,0.105,-0.050,-0.5,-3.7,-5.5,723,900,0
R,,5731936,-0.005,0.103,-0.054,-1.9,-1.2,-5.3,615,904,0
R,,5731996,-0.005,0.115,-0.060,-1.6,-2.3,-4.1,596,902,0
R,,5732055,-0.017,0.112,-0.051,-3.7,-2.2,-4.9,542,902,0
R,,5732115,-0.010,0.121,-0.059,-5.6,-2.7,-5.8,520,899,0
R,,5732175,-0.007,0.131,-0.040,-6.7,-6.4,-6.0,508,894,0
R,,5732236,0.012,0.145,-0.073,-7.3,-5.4,-7.4,509,889,0
R,,5732295,0.020,0.153,-0.057,-4.8,-7.4,-13.1,524,881,0
R,,5732356,0.016,0.164,-0.094,-3.5,-3.8,-18.2,491,842,0
R,,5732416,-0.030,0.047,-0.023,-10.9,-9.9,-23.5,497,714,0
R,,5732475,0.032,0.073,-0.021,0.7,2.5,-5.3,530,715,0
R,,5732540,0.020,0.052,-0.061,-1.8,11.5,12.7,543,715,0
R,,5732595,0.023,0.070,-0.062,0.0,17.1,22.5,551,711,0
R,,5732656,0.023,0.116,-0.077,7.8,21.6,26.8,562,719,0
R,,5732715,0.024,0.182,-0.112,6.5,26.0,31.2,556,728,0
R,,5732776,-0.008,0.220,-0.086,6.3,26.4,22.8,550,751,0
R,,5732835,-0.128,0.166,-0.160,3.5,25.1,6.1,557,758,0
R,,5732896,-0.108,0.167,-0.054,5.0,3.6,-11.0,567,768,0
R,,5732956,0.043,0.167,0.171,-20.0,-32.1,4.0,698,806,0
R,,5733015,0.000,0.119,-0.074,1.4,-20.7,-9.3,725,832,0
R,,5733076,0.013,0.128,-0.076,0.6,0.9,-11.2,745,857,0
R,,5733135,0.026,0.113,-0.082,-0.6,-1.7,-8.5,758,871,0
R,,5733196,0.028,0.133,-0.024,0.1,-1.9,-5.7,766,880,0
R,,5733259,0.015,0.108,-0.059,1.8,-1.0,-6.1,767,888,0
R,,5733316,0.005,0.104,-0.059,-0.7,-1.3,-4.6,767,890,0
R,,5733375,0.010,0.113,-0.044,-1.1,-2.4,-7.0,755,899,0
R,,5733477,-0.003,0.120,-0.053,-4.3,-2.5,-4.6,641,900,0
R,,5733496,0.000,0.126,-0.053,-4.7,-2.3,-4.1,597,901,0
R,,5733555,0.005,0.148,-0.040,-6.0,-0.1,-8.8,523,899,0
R,,5733616,0.015,0.173,-0.074,-8.7,-8.4,-11.0,484,895,0
R,,5733675,0.095,0.211,-0.049,-12.6,-14.1,-14.2,507,884,0
R,,5733736,-0.011,0.193,-0.084,8.9,6.0,-24.7,483,823,0
R,,5733795,0.096,0.002,0.004,-3.6,-3.8,-8.8,514,705,0
R,,5733856,0.028,0.002,0.005,6.3,11.1,2.4,552,695,0
R,,5733950,0.023,0.078,-0.051,2.1,19.9,29.9,553,722,0
R,,5734005,0.009,0.138,-0.073,6.0,19.7,31.0,561,738,0
R,,5734066,0.012,0.219,-0.071,10.2,24.1,33.9,549,753,0
R,,5734125,-0.069,0.250,-0.095,-3.5,21.3,16.0,545,764,0
R,,5734186,-0.198,0.182,-0.188,10.9,9.0,-0.6,563,766,0
R,,5734246,0.140,0.149,-0.151,18.8,-24.2,-9.9,697,806,0
R,,5734305,0.000,0.129,-0.104,9.2,3.3,-16.1,719,823,0
R,,5734366,0.020,0.119,-0.050,0.9,14.3,-4.4,743,852,0
R,,5734425,0.021,0.087,-0.073,2.0,-1.0,-8.2,755,870,0
R,,5734516,0.045,0.130,-0.036,-1.4,-1.8,-5.8,768,879,0
R,,5734576,0.008,0.086,-0.072,-0.3,-4.4,-7.5,772,888,0
R,,5734635,0.006,0.115,-0.042,-2.1,-2.7,-4.9,769,886,0
R,,5734700,-0.005,0.114,-0.057,-0.9,-1.4,-6.3,764,892,0
R,,5734755,-0.003,0.111,-0.059,-1.6,-2.0,-5.4,749,894,0
R,,5734816,-0.002,0.122,-0.056,-3.7,-4.2,-5.7,630,899,0
R,,5734875,-0.002,0.153,-0.061,-7.1,-6.5,-9.0,521,900,0
R,,5734936,0.021,0.182,-0.086,-9.9,-5.8,-12.1,505,891,0
R,,5734996,0.083,0.170,-0.066,-10.0,-12.6,-19.6,518,878,0
R,,5735055,0.018,0.161,-0.147,6.3,-6.6,-22.5,460,724,0
R,,5735116,0.070,0.022,-0.046,3.8,-5.6,-6.0,535,691,0
R,,5735175,0.024,0.009,-0.006,1.3,14.0,7.2,556,693,0
R,,5735236,0.025,0.054,-0.014,8.8,14.3,19.3,564,730,0
R,,5735295,0.016,0.114,-0.059,3.9,11.9,34.5,564,746,0
R,,5735356,0.029,0.211,-0.057,2.4,10.1,41.8,547,751,0
R,,5735419,-0.033,0.309,-0.051,9.2,21.2,26.7,551,764,0
R,,5735476,-0.158,0.199,-0.152,11.2,24.4,7.0,563,770,0
R,,5735566,-0.050,0.163,0.039,-30.5,-19.7,-2.6,713,819,0
R,,5735625,0.018,0.054,-0.027,-3.0,-12.5,-13.5,731,841,0
R,,5735686,0.012,0.084,-0.103,2.7,2.7,-13.5,753,869,0
R,,5735746,0.029,0.109,-0.042,1.0,-7.2,-5.7,770,883,0
R,,5735835,0.011,0.101,-0.075,-0.4,-2.5,-5.9,771,887,0
R,,5735896,0.012,0.112,-0.058,-1.6,-4.6,-3.4,773,889,0
R,,5735956,0.009,0.111,-0.060,-0.9,-3.7,-4.0,769,899,0
R,,5736016,0.002,0.112,-0.063,-0.6,-3.5,-5.9,752,896,0
R,,5736076,0.000,0.118,-0.066,-1.6,-3.5,-4.9,681,899,0
R,,5736139,0.009,0.141,-0.058,-3.5,-5.9,-6.3,561,903,0
R,,5736196,-0.005,0.141,-0.073,-7.2,-6.0,-8.9,516,899,0
R,,5736255,0.053,0.189,-0.089,-4.3,-17.8,-13.1,503,889,0
R,,5736316,0.010,0.148,-0.077,-1.1,-6.3,-22.1,498,855,0
R,,5736375,-0.025,0.055,-0.044,-5.5,-17.3,-20.1,493,666,0
R,,5736436,0.036,0.022,0.013,5.7,-9.0,1.3,510,651,0
R,,5736496,0.028,0.035,0.004,0.7,8.0,17.9,529,667,0
R,,5736556,0.011,0.083,-0.037,8.1,18.5,25.7,542,701,0
R,,5736646,0.017,0.198,-0.033,7.9,13.7,37.3,543,730,0
R,,5736706,-0.003,0.281,-0.035,11.6,22.7,31.1,534,745,0
R,,5736766,-0.112,0.217,-0.076,4.5,20.6,14.8,547,750,0
R,,5736826,-0.143,0.144,-0.116,0.1,-6.8,-6.3,560,759,0
R,,5736889,-0.010,0.155,0.080,-16.9,-7.9,-3.9,711,813,0
R,,5736946,0.029,0.090,-0.033,-3.6,-18.2,-12.6,725,831,0
R,,5737005,0.000,0.119,-0.116,-0.5,0.0,-9.6,749,860,0
R,,5737066,0.025,0.089,-0.077,-1.5,-4.3,-7.9,764,875,0
R,,5737125,0.021,0.114,-0.053,-0.5,-2.9,-7.6,772,886,0
R,,5737186,0.006,0.097,-0.067,0.1,-5.9,-3.0,771,892,0
R,,5737246,0.013,0.106,-0.065,-1.2,-5.6,-1.6,765,899,0
R,,5737306,0.005,0.108,-0.064,-1.9,-3.3,-3.7,739,900,0
R,,5737366,-0.003,0.111,-0.057,-1.3,-3.3,-4.4,686,899,0
R,,5737425,-0.009,0.116,-0.055,-2.1,-3.2,-2.8,612,903,0
R,,5737486,-0.008,0.124,-0.061,-3.3,-2.5,-4.4,591,904,0
R,,5737549,-0.009,0.128,-0.062,-4.4,-4.4,-5.0,535,902,0
R,,5737606,-0.001,0.147,-0.056,-5.4,-7.3,-6.5,519,901,0
R,,5737696,0.049,0.187,-0.054,-5.1,-6.1,-16.0,528,891,0
R,,5737755,-0.004,0.165,-0.004,-1.0,-0.3,-21.4,498,854,0
R,,5737816,-0.081,0.056,-0.036,-2.7,-14.3,-20.6,479,620,0
R,,5737875,-0.012,0.087,-0.009,-3.3,-5.1,-2.3,489,630,0
R,,5737936,0.000,0.042,-0.012,-4.9,7.8,10.8,514,660,0
R,,5737996,-0.024,0.081,-0.016,-3.2,15.0,15.0,516,654,0
R,,5738056,-0.048,0.116,-0.057,-5.0,17.2,17.0,523,660,0
R,,5738116,-0.060,0.162,-0.088,-4.9,25.1,14.3,527,665,0
R,,5738175,-0.035,0.122,-0.083,0.8,24.7,5.9,538,681,0
R,,5738236,-0.015,0.108,-0.106,-0.5,17.2,9.2,545,692,0
R,,5738299,-0.002,0.114,-0.106,2.3,14.1,9.4,543,701,0
R,,5738356,0.000,0.117,-0.079,4.2,6.4,11.9,545,717,0
R,,5738416,0.015,0.143,-0.025,-0.3,6.4,10.8,547,729,0
R,,5738476,0.017,0.128,-0.018,4.8,8.8,3.7,554,737,0
R,,5738565,0.006,0.115,-0.031,4.4,13.7,-4.5,563,744,0
R,,5738625,0.011,0.119,-0.037,3.9,6.5,-6.4,541,716,0
R,,5738715,0.044,0.147,-0.049,7.4,-3.4,-6.2,705,808,0
R,,5738776,0.038,0.126,-0.010,0.5,-6.7,-5.0,721,832,0
R,,5738835,0.025,0.120,-0.037,2.6,-3.3,-5.7,739,852,0
R,,5738896,0.021,0.116,-0.062,9.3,-1.0,-6.0,759,876,0
R,,5738956,0.018,0.110,-0.061,3.4,-1.9,-4.9,767,886,0
R,,5739016,0.012,0.100,-0.060,1.6,-1.0,-4.0,769,891,0
R,,5739080,0.015,0.106,-0.055,1.6,-1.0,-2.0,765,894,0
R,,5739136,0.009,0.109,-0.065,1.4,0.7,-2.3,763,894,0
R,,5739196,0.010,0.101,-0.065,1.7,0.9,-2.5,761,896,0
R,,5739255,0.010,0.107,-0.063,0.8,1.0,-2.6,760,894,0
R,,5739316,0.005,0.109,-0.064,0.4,0.3,-2.7,762,893,0
R,,5739375,0.000,0.103,-0.065,0.5,-0.1,-2.5,760,889,0
R,,5739436,-0.005,0.099,-0.062,-0.1,-0.8,-0.9,766,889,0
R,,5739496,0.003,0.105,-0.065,0.3,0.4,-0.9,768,889,0
R,,5739556,0.000,0.104,-0.068,0.6,0.6,-0.8,770,889,0
R,,5739616,0.000,0.104,-0.073,-0.7,0.0,-0.8,774,895,0
R,,5739676,0.000,0.105,-0.067,-1.0,0.0,-0.9,770,891,0
R,,5739770,0.000,0.106,-0.064,-1.3,0.2,-1.0,769,889,0
R,,5739826,-0.003,0.108,-0.063,-1.5,0.0,-2.6,766,890,0
R,,5739886,-0.002,0.105,-0.057,-1.3,-0.3,-1.7,759,886,0
R,,5739946,-0.005,0.106,-0.059,-1.7,-1.0,-1.6,754,886,0
R,,5740005,-0.006,0.112,-0.061,-1.6,-0.5,-1.6,743,885,0
R,,5740066,-0.009,0.116,-0.062,-3.0,-1.5,-2.4,724,886,0
R,,5740166,-0.011,0.118,-0.050,-5.0,-0.9,-2.1,590,892,0
R,,5740186,-0.008,0.119,-0.059,-5.2,-0.3,-1.4,591,892,0
R,,5740246,-0.004,0.128,-0.055,-7.9,-0.6,-2.5,552,886,0
R,,5740335,0.000,0.136,-0.034,-5.7,-3.2,-4.0,427,880,0
R,,5740396,-0.006,0.126,-0.031,-4.5,-7.1,-4.9,446,875,0
R,,5740486,-0.021,0.129,-0.018,-2.1,-4.4,-7.0,463,860,0
R,,5740549,-0.062,0.110,-0.041,-1.8,-2.4,-8.9,447,770,0
R,,5740606,-0.032,0.091,-0.025,-5.6,0.0,-5.3,495,710,0
R,,5740666,-0.041,0.096,0.034,-3.4,-7.4,1.1,523,733,0
R,,5740726,-0.040,0.096,0.029,-1.5,-1.1,3.3,551,751,0
R,,5740816,-0.050,0.106,0.004,-2.1,9.9,1.2,552,734,0
R,,5740875,-0.057,0.112,0.000,-2.0,6.2,2.2,553,730,0
R,,5740936,-0.057,0.112,-0.009,-1.9,8.1,0.9,552,723,0
R,,5740996,-0.055,0.112,-0.008,-1.0,6.3,0.6,557,726,0
R,,5741056,-0.042,0.110,-0.018,-0.4,5.3,0.6,561,726,0
R,,5741116,-0.026,0.109,-0.004,-0.2,5.6,1.5,564,727,0
R,,5741176,-0.023,0.113,-0.014,1.8,4.7,5.0,567,730,0
R,,5741236,0.000,0.121,0.007,1.1,5.2,8.2,569,728,0
R,,5741299,0.008,0.123,-0.005,2.0,4.2,11.2,576,741,0
R,,5741356,0.020,0.139,-0.004,0.3,4.6,13.6,580,745,0
R,,5741446,0.019,0.145,-0.007,-3.0,-0.1,15.8,568,754,0
R,,5741505,0.006,0.148,-0.022,-0.5,-1.4,10.5,528,748,0
R,,5741566,-0.010,0.128,-0.037,0.2,-5.2,8.5,503,763,0
R,,5741625,-0.015,0.139,-0.032,1.5,-0.4,0.3,468,780,0
R,,5741686,-0.008,0.131,-0.034,2.6,-2.5,-5.6,456,796,0
R,,5741746,0.015,0.054,-0.126,6.9,4.8,-10.9,505,842,0
R,,5741806,0.030,0.117,-0.099,5.4,-3.5,-0.3,611,879,0
R,,5741866,0.037,0.103,-0.009,6.7,-0.8,-3.3,643,891,0
R,,5741926,0.017,0.099,-0.047,7.8,-2.6,-1.2,724,897,0
R,,5741990,0.028,0.115,-0.025,7.2,-1.7,-1.5,750,897,0
R,,5742045,0.014,0.112,-0.036,4.5,-0.4,-4.7,756,895,0
R,,5742106,0.016,0.115,-0.043,3.1,-1.5,-3.6,760,890,0
R,,5742166,0.014,0.109,-0.031,2.4,-1.2,-1.1,762,893,0
R,,5742256,0.013,0.118,-0.059,2.1,-0.6,-1.8,765,893,0
R,,5742316,0.006,0.108,-0.056,1.1,-0.4,-2.1,767,894,0
R,,5742375,0.009,0.112,-0.056,0.5,-0.5,-1.4,769,895,0
R,,5742435,0.003,0.110,-0.059,0.1,0.0,-2.1,768,893,0
R,,5742496,0.004,0.110,-0.057,-0.4,0.0,-1.8,767,896,0
R,,5742556,0.007,0.113,-0.056,-0.3,-0.5,-1.9,770,895,0
R,,5742616,0.002,0.113,-0.061,-1.1,-0.5,-2.2,770,894,0
R,,5742676,0.004,0.113,-0.055,-1.7,-1.0,-2.9,766,893,0
R,,5742740,-0.007,0.111,-0.060,-2.6,-1.5,-3.9,756,895,0
R,,5742795,-0.016,0.112,-0.055,-2.4,1.0,-3.8,729,895,0
R,,5742856,-0.007,0.127,-0.055,-3.7,-1.2,-1.6,659,898,0
R,,5742916,-0.003,0.131,-0.054,-5.4,-1.1,-0.8,585,895,0
R,,5742976,-0.001,0.133,-0.051,-8.4,-2.1,-1.9,519,889,0
R,,5743036,-0.008,0.124,-0.024,-7.5,-5.1,-1.7,459,882,0
R,,5743096,0.009,0.131,-0.033,-8.8,-1.6,-1.0,456,876,0
R,,5743156,-0.002,0.122,-0.023,-7.0,-5.4,-3.1,457,862,0
R,,5743216,-0.028,0.124,-0.029,-3.8,-3.8,-2.4,433,827,0
R,,5743276,-0.049,0.060,-0.046,4.5,-6.5,-1.4,432,606,0
R,,5743366,0.000,0.118,0.047,-2.3,1.4,4.7,493,603,0
R,,5743426,-0.016,0.112,0.044,-1.5,3.9,0.0,519,641,0
R,,5743490,-0.025,0.125,0.037,-1.2,9.3,-1.6,527,645,0
R,,5743546,-0.041,0.109,-0.004,-0.9,8.1,-1.0,534,652,0
R,,5743606,-0.048,0.117,0.003,-1.0,3.4,0.8,539,656,0
R,,5743666,-0.038,0.122,0.014,-0.6,2.5,0.7,545,666,0
R,,5743725,-0.033,0.113,0.006,-0.7,3.2,0.2,551,674,0
R,,5743786,-0.025,0.115,0.000,0.4,0.9,1.0,557,680,0
R,,5743846,-0.015,0.104,-0.008,1.2,4.0,0.6,553,674,0
R,,5743906,0.010,0.102,-0.001,2.3,2.9,4.9,557,683,0
R,,5743966,0.018,0.113,-0.007,1.8,3.1,9.1,551,687,0
R,,5744026,0.023,0.123,-0.016,3.1,5.6,10.8,549,699,0
R,,5744085,0.018,0.140,-0.001,3.7,2.0,10.5,545,715,0
R,,5744150,0.009,0.145,0.007,3.1,0.0,8.9,532,738,0
R,,5744206,0.015,0.147,0.005,2.7,-1.7,8.2,517,755,0
R,,5744266,0.007,0.149,0.010,-0.7,2.9,3.9,524,762,0
R,,5744326,0.001,0.142,0.001,0.6,-1.3,-0.4,534,769,0
R,,5744386,0.028,0.135,-0.043,1.1,4.5,-6.0,520,772,0
R,,5744446,0.011,0.130,-0.011,4.6,-7.9,-9.1,471,789,0
R,,5744536,0.036,0.084,-0.123,6.0,0.9,-10.5,552,893,0
R,,5744596,0.025,0.157,0.012,6.8,-8.8,-0.6,636,899,0
R,,5744656,0.044,0.133,-0.035,9.3,2.0,-3.4,670,903,0
R,,5744716,-0.004,0.138,-0.033,6.6,-1.2,-4.7,726,899,0
R,,5744776,0.002,0.118,-0.052,3.8,0.0,-4.0,740,904,0
R,,5744836,-0.015,0.113,-0.053,5.9,1.9,-4.1,734,901,0
R,,5744900,0.000,0.107,-0.060,2.7,-1.8,0.2,736,904,0
R,,5744956,-0.003,0.107,-0.062,1.5,-1.3,-0.2,740,902,0
R,,5745015,0.002,0.114,-0.067,1.8,0.1,0.1,746,904,0
R,,5745076,0.002,0.106,-0.064,0.1,-0.9,0.1,744,904,0
R,,5745136,0.003,0.105,-0.065,0.0,-1.9,0.4,732,906,0
R,,5745196,0.001,0.104,-0.061,0.8,-1.3,0.5,739,905,0
R,,5745256,0.003,0.116,-0.057,0.4,-1.8,0.4,755,905,0
R,,5745316,0.002,0.108,-0.060,0.2,-1.1,-0.8,766,907,0
R,,5745375,0.000,0.109,-0.062,-0.4,-1.0,-0.6,765,905,0
R,,5745436,0.000,0.108,-0.060,-0.5,-0.7,-0.6,769,905,0
R,,5745496,0.000,0.112,-0.061,-0.6,-0.9,-1.4,770,907,0
R,,5745560,-0.002,0.112,-0.064,-1.3,-1.1,-2.2,768,907,0
R,,5745616,0.003,0.126,-0.057,-1.6,-1.2,-3.7,752,906,0
R,,5745676,-0.010,0.114,-0.061,-1.9,-1.0,-4.3,710,909,0
R,,5745736,-0.018,0.112,-0.057,-3.0,-2.5,-3.9,652,910,0
R,,5745796,-0.015,0.116,-0.051,-2.1,-2.8,-4.0,621,906,0
R,,5745856,-0.023,0.116,-0.055,-2.5,-4.2,-3.2,608,905,0
R,,5745916,-0.024,0.116,-0.049,-2.7,-1.8,-1.6,561,901,0
R,,5745976,-0.029,0.124,-0.041,-4.1,-1.4,-1.4,516,901,0
R,,5746036,-0.022,0.128,-0.048,-6.3,-0.9,-0.5,483,891,0
R,,5746096,0.001,0.142,-0.049,-7.5,-2.4,-2.9,479,887,0
R,,5746156,-0.017,0.131,-0.034,-5.6,-7.3,-5.6,465,878,0
R,,5746216,-0.042,0.134,-0.052,-3.8,-3.2,-7.1,435,837,0
R,,5746280,-0.015,0.108,0.007,-3.0,-7.4,-3.5,496,636,0
R,,5746336,-0.029,0.091,0.015,0.8,-11.8,4.8,526,642,0
R,,5746396,-0.027,0.092,0.031,0.4,-3.2,1.8,554,678,0
R,,5746456,-0.036,0.124,0.038,-1.2,5.1,2.6,560,686,0
R,,5746516,-0.055,0.123,0.013,-2.0,8.1,2.0,571,696,0
R,,5746576,-0.058,0.119,0.001,-2.7,4.6,0.9,569,695,0
R,,5746636,-0.061,0.110,-0.012,-1.3,5.2,0.2,571,694,0
R,,5746696,-0.058,0.116,-0.005,-1.2,2.6,0.5,573,698,0
R,,5746756,-0.050,0.111,-0.003,-1.1,1.3,0.3,571,691,0
R,,5746816,-0.045,0.111,-0.001,-0.9,2.5,0.0,572,694,0
R,,5746876,-0.021,0.101,-0.003,-0.4,2.4,0.6,573,699,0
R,,5746936,0.001,0.107,-0.020,0.5,3.9,3.0,564,686,0
R,,5747000,0.033,0.083,-0.020,1.5,7.8,6.1,568,691,0
R,,5747056,0.038,0.112,-0.041,4.8,6.9,16.0,570,696,0
R,,5747116,0.037,0.146,-0.035,3.4,7.9,16.6,572,715,0
R,,5747176,0.030,0.145,-0.024,5.3,6.3,15.6,569,722,0
R,,5747236,0.009,0.120,-0.016,5.1,8.9,8.5,570,736,0
R,,5747296,0.019,0.139,-0.019,0.0,-1.7,9.8,572,756,0
R,,5747356,0.033,0.145,0.008,2.8,2.5,3.3,584,766,0
R,,5747416,0.031,0.128,-0.025,2.5,6.0,2.2,588,768,0
R,,5747476,0.019,0.127,-0.034,2.1,6.7,0.2,584,762,0
R,,5747536,0.012,0.123,-0.026,1.5,6.5,-4.9,585,761,0
R,,5747595,0.033,0.139,-0.045,-1.5,6.3,-8.7,609,737,0
R,,5747660,0.032,0.192,0.009,3.8,-12.5,6.9,689,797,0
R,,5747716,0.044,0.109,-0.023,4.5,-11.1,-4.6,703,818,0
R,,5747776,0.006,0.118,-0.072,8.9,0.8,-10.1,718,837,0
R,,5747836,0.014,0.113,-0.041,3.2,-4.6,-4.4,743,869,0
R,,5747926,0.002,0.108,-0.060,3.4,-4.3,-1.0,755,883,0
R,,5747986,0.021,0.111,-0.062,1.8,-2.9,-0.1,751,889,0
R,,5748046,0.013,0.112,-0.054,0.9,-2.3,-1.2,748,891,0
R,,5748106,0.015,0.111,-0.062,0.7,-1.2,-1.0,757,898,0
R,,5748166,0.015,0.107,-0.056,1.5,-0.5,-2.0,758,894,0
R,,5748226,0.008,0.110,-0.057,1.5,0.1,-1.3,762,893,0
R,,5748286,0.009,0.111,-0.060,1.1,0.0,-1.8,764,892,0
R,,5748346,0.004,0.107,-0.063,0.8,0.4,-2.0,763,892,0
R,,5748410,0.000,0.103,-0.067,0.6,-0.5,-1.4,762,891,0
R,,5748466,0.004,0.104,-0.063,0.3,-0.5,-0.9,764,892,0
R,,5748526,0.004,0.105,-0.066,0.1,0.0,-1.3,767,891,0
R,,5748586,0.001,0.105,-0.067,0.2,-0.2,-0.8,768,892,0
R,,5748646,0.000,0.104,-0.066,0.0,-0.2,-0.8,770,890,0
R,,5748707,0.003,0.106,-0.065,-0.1,-0.1,-0.6,768,890,0
R,,5748766,0.001,0.106,-0.063,-0.2,-0.2,-0.8,771,886,0
R,,5748826,0.001,0.106,-0.064,-0.4,-0.6,-1.0,771,891,0
R,,5748885,0.000,0.109,-0.065,-0.6,-0.4,-0.9,769,892,0
R,,5748946,-0.001,0.107,-0.064,-0.6,-0.4,-1.3,770,894,0
R,,5749036,-0.001,0.110,-0.061,-1.5,-0.9,-1.7,769,892,0
R,,5749096,-0.002,0.110,-0.059,-2.3,-1.5,-2.7,764,892,0
R,,5749160,-0.006,0.110,-0.061,-3.0,-1.6,-3.9,747,891,0
R,,5749216,-0.016,0.113,-0.045,-1.9,-2.5,-2.3,726,894,0
R,,5749276,-0.018,0.114,-0.048,-2.3,-2.4,-1.3,671,895,0
R,,5749366,-0.018,0.121,-0.056,-2.8,-2.4,-2.5,600,891,0
R,,5749426,-0.007,0.132,-0.038,-4.1,-2.7,-2.3,571,892,0
R,,5749486,-0.027,0.120,-0.061,-5.9,-0.5,-4.2,512,885,0
R,,5749546,-0.006,0.136,-0.042,-6.8,-4.4,-3.2,469,881,0
R,,5749606,0.004,0.145,-0.032,-5.9,-6.4,-4.8,468,880,0
R,,5749666,-0.045,0.113,-0.025,-2.8,-3.0,-5.4,460,852,0
R,,5749726,-0.087,0.066,-0.031,-2.9,-5.5,-5.3,457,648,0
R,,5749786,-0.022,0.082,-0.051,-4.7,-6.0,-5.0,488,584,0
R,,5749850,-0.016,0.110,0.014,-3.6,1.1,-2.2,526,644,0
R,,5749906,-0.026,0.101,0.023,2.4,-1.8,3.7,544,667,0
R,,5749966,-0.037,0.119,0.012,-0.5,8.5,1.9,551,674,0
R,,5750026,-0.044,0.107,-0.011,-0.2,7.4,1.7,565,697,0
R,,5750086,-0.037,0.100,-0.009,-0.2,8.7,1.0,570,699,0
R,,5750146,-0.028,0.109,-0.018,2.1,5.5,3.7,579,708,0
R,,5750207,-0.012,0.115,-0.024,2.1,7.9,4.7,581,712,0
R,,5750266,0.000,0.127,-0.031,1.1,7.7,6.1,584,714,0
R,,5750326,0.011,0.121,-0.042,2.1,8.3,6.4,588,720,0
R,,5750386,0.021,0.118,-0.055,4.4,7.4,10.5,592,734,0
R,,5750446,0.032,0.134,-0.043,3.0,8.6,12.3,593,740,0
R,,5750506,0.033,0.146,-0.031,0.7,8.4,13.6,595,750,0
R,,5750570,0.017,0.140,-0.017,2.2,9.6,11.9,594,760,0
R,,5750656,0.008,0.136,-0.038,2.3,10.4,5.3,597,765,0
R,,5750716,-0.006,0.122,-0.044,1.1,3.7,2.5,600,767,0
R,,5750776,-0.015,0.107,-0.066,-0.2,-3.9,-2.0,601,767,0
R,,5750836,0.160,0.019,-0.167,11.7,-8.3,-4.1,668,769,0
R,,5750896,0.025,0.144,-0.073,0.6,-4.4,-13.9,698,807,0
R,,5750957,0.039,0.121,-0.039,5.5,-3.6,-4.9,713,825,0
R,,5751016,0.019,0.104,-0.105,5.7,4.0,-6.3,731,847,0
R,,5751106,0.031,0.119,-0.056,3.6,-1.7,-2.8,749,868,0
R,,5751196,0.031,0.093,-0.063,0.7,-0.9,-4.3,752,870,0
R,,5751287,0.025,0.121,-0.056,1.3,-1.2,-5.3,759,874,0
R,,5751376,0.007,0.107,-0.054,-0.5,-3.2,-2.8,759,880,0
R,,5751440,0.008,0.098,-0.056,0.3,-1.8,-3.0,759,885,0
R,,5751497,0.010,0.108,-0.056,0.7,-2.9,-3.1,757,886,0
R,,5751556,0.004,0.106,-0.056,0.7,-1.5,-2.6,756,890,0
R,,5751616,0.004,0.111,-0.057,0.4,-1.7,-2.2,754,895,0
R,,5751676,-0.001,0.105,-0.065,0.5,-1.4,-1.0,750,895,0
R,,5751736,0.001,0.108,-0.060,0.4,-1.5,-1.1,750,894,0
R,,5751796,-0.003,0.106,-0.062,-0.2,-1.0,-1.9,739,895,0
R,,5751856,-0.005,0.104,-0.063,-0.4,-1.4,-1.9,725,895,0
R,,5751916,-0.005,0.113,-0.065,-0.4,-1.5,-1.7,705,899,0
R,,5751976,-0.004,0.110,-0.058,-0.9,-1.1,-2.1,677,901,0
R,,5752037,-0.009,0.105,-0.056,-1.1,0.2,-1.9,660,899,0
R,,5752100,-0.011,0.104,-0.064,-0.3,-1.4,-2.8,652,900,0
R,,5752156,-0.012,0.114,-0.065,-0.6,-1.3,-2.8,644,900,0
R,,5752216,-0.021,0.105,-0.064,-0.9,-1.4,-2.2,628,900,0
R,,5752276,-0.017,0.104,-0.064,-2.5,-1.3,-0.6,607,898,0
R,,5752366,-0.014,0.122,-0.060,-2.7,-2.2,-2.4,572,896,0
R,,5752426,-0.011,0.124,-0.047,-3.7,-1.8,-3.4,506,894,0
R,,5752486,-0.022,0.122,-0.046,-2.9,-4.4,-3.3,477,891,0
R,,5752546,-0.023,0.122,-0.036,-4.7,-4.6,-5.4,468,884,0
R,,5752606,-0.012,0.139,-0.078,-7.5,-2.9,-6.1,475,882,0
R,,5752666,-0.018,0.122,-0.023,-3.7,-5.0,-8.3,482,879,0
R,,5752726,-0.066,0.076,-0.101,2.9,-3.8,-8.6,448,776,0
R,,5752787,-0.023,0.060,-0.071,-2.3,-9.1,-1.3,491,620,0
R,,5752850,-0.014,0.099,0.035,-3.9,-10.3,2.8,517,630,0
R,,5752906,-0.020,0.081,0.027,1.8,1.7,2.8,532,652,0
R,,5752966,-0.031,0.109,0.007,2.4,4.6,5.8,553,689,0
R,,5753026,-0.038,0.117,-0.014,0.5,3.1,6.4,563,705,0
R,,5753086,-0.025,0.115,-0.010,2.8,4.7,6.0,572,715,0
R,,5753146,-0.020,0.124,-0.027,1.9,8.2,5.4,575,720,0
R,,5753207,-0.007,0.129,-0.023,1.7,8.7,6.4,578,729,0
R,,5753266,-0.003,0.133,-0.030,1.4,11.4,5.2,571,727,0
R,,5753327,0.001,0.123,-0.043,1.1,11.0,3.0,574,731,0
R,,5753416,0.022,0.122,-0.057,0.9,2.9,12.1,572,740,0
R,,5753476,0.033,0.121,-0.040,-1.1,1.8,13.1,574,744,0
R,,5753540,0.049,0.135,-0.026,2.3,1.5,11.9,579,749,0
R,,5753596,0.009,0.120,-0.057,2.8,3.2,11.3,583,749,0
R,,5753656,0.003,0.127,-0.033,4.5,3.9,6.2,582,755,0
R,,5753716,0.000,0.128,-0.023,-0.7,4.3,-4.3,585,753,0
R,,5753776,0.135,0.144,-0.108,4.8,-11.7,-9.1,697,801,0
R,,5753836,0.020,0.093,-0.075,-0.4,-9.0,-10.5,715,824,0
R,,5753896,0.011,0.086,-0.012,1.5,7.1,-10.1,725,838,0
R,,5753957,0.014,0.103,-0.027,0.1,-10.9,-7.5,753,873,0
R,,5754016,0.023,0.133,-0.073,2.8,-0.1,-6.6,762,887,0
R,,5754077,0.004,0.094,-0.058,2.2,3.9,-4.6,755,893,0
R,,5754136,0.001,0.108,-0.061,1.8,0.2,0.0,762,896,0
R,,5754196,0.015,0.107,-0.062,0.9,1.3,1.1,772,892,0
R,,5754260,0.021,0.107,-0.062,0.9,-1.9,0.7,767,884,0
R,,5754316,0.023,0.109,-0.071,0.2,-2.3,-2.8,771,886,0
R,,5754376,0.007,0.104,-0.070,-1.1,-3.2,-2.9,775,891,0
R,,5754466,0.006,0.106,-0.058,0.0,-3.7,-1.9,774,895,0
R,,5754526,0.004,0.109,-0.070,-1.7,-4.4,-2.3,768,898,0
R,,5754586,0.008,0.116,-0.069,-1.6,-5.4,-4.8,743,900,0
R,,5754646,0.000,0.125,-0.072,-4.5,-5.0,-5.0,622,906,0
R,,5754707,-0.007,0.143,-0.062,-1.5,-12.0,-4.9,525,907,0
R,,5754766,0.015,0.161,-0.077,-4.8,-9.1,-8.9,512,900,0
R,,5754827,0.056,0.174,-0.040,-3.5,-19.4,-15.9,517,886,0
R,,5754886,0.039,0.194,-0.091,-3.8,-3.2,-20.1,483,806,0
R,,5754946,0.000,0.000,-0.050,-3.1,-5.9,-20.4,482,636,0
R,,5755010,0.027,0.026,0.022,11.2,1.1,-1.3,499,609,0
R,,5755066,0.031,0.071,-0.002,-3.2,7.2,29.9,515,650,0
R,,5755126,0.045,0.101,-0.030,2.3,11.3,40.5,526,677,0
R,,5755186,0.048,0.223,-0.019,4.4,16.1,41.6,515,682,0
R,,5755247,-0.021,0.279,-0.101,4.0,36.1,27.1,511,695,0
R,,5755306,-0.165,0.182,-0.188,1.4,23.9,1.7,536,709,0
R,,5755367,-0.117,0.158,-0.089,8.4,-6.9,-14.7,525,711,0
R,,5755426,-0.023,0.222,0.087,-1.0,7.5,-6.1,694,800,0
R,,5755516,0.040,0.132,-0.065,1.7,7.4,-5.8,727,841,0
R,,5755606,0.024,0.102,-0.057,1.7,-4.8,-8.3,759,873,0
R,,5755666,0.027,0.129,-0.050,2.5,0.7,-8.6,764,886,0
R,,5755730,-0.007,0.114,-0.055,0.6,-1.2,-8.0,750,897,0
R,,5755787,0.003,0.115,-0.041,-3.0,-2.6,-5.3,681,895,0
R,,5755846,0.000,0.125,-0.057,-1.9,0.3,-6.6,587,895,0
R,,5755907,0.003,0.133,-0.035,-5.2,-3.6,-5.3,542,895,0
R,,5755966,0.008,0.148,-0.048,-7.6,-3.2,-8.6,465,894,0
R,,5756026,0.037,0.178,-0.060,-8.5,-7.8,-12.9,445,889,0
R,,5756086,0.096,0.196,-0.056,-12.2,-9.6,-22.0,474,883,0
R,,5756146,-0.012,0.125,-0.127,-0.4,-0.3,-18.6,446,679,0
R,,5756207,0.029,0.040,-0.052,-1.9,10.0,-5.2,498,672,0
