side,stage,device_ms,ax,ay,az,gx,gy,gz,toe,heel,phase,L_toe,L_heel,R_toe,R_heel
R,,273239.0,0.094,0.265,-0.023,-11.2,-11.2,-23.6,177,895,0,,,,
R,,273249.0,0.117,0.268,-0.029,-12.5,-13.9,-25.2,189,900,0,,,,
R,,273259.0,0.142,0.258,-0.052,-12.7,-15.8,-26.1,188,900,0,,,,
R,,273269.0,0.154,0.232,-0.056,-12.4,-17.2,-26.7,185,898,0,,,,
R,,273279.0,0.115,0.187,-0.04,-12.7,-16.7,-25.5,183,895,0,,,,
R,,273289.0,0.057,0.173,-0.007,-12.8,-8.3,-27.1,162,891,0,,,,
R,,273299.0,0.011,0.178,-0.01,-12.7,2.2,-27.6,160,886,0,,,,
R,,273309.0,0.004,0.152,-0.036,-12.5,10.7,-26.6,150,871,0,,,,
R,,273319.0,0.01,0.147,-0.062,-10.7,11.4,-24.6,157,854,0,,,,
R,,273329.0,-0.007,0.148,-0.049,-10.7,11.0,-22.7,140,826,0,,,,
R,,273339.0,-0.015,0.124,-0.058,-9.2,16.7,-21.2,145,785,0,,,,
R,,273349.0,-0.051,0.126,-0.069,-4.9,14.9,-22.2,98,708,0,,,,
R,,273359.0,0.014,0.037,-0.002,-5.6,14.0,-19.7,172,654,0,,,,
R,,273369.0,0.036,-0.001,0.001,-9.4,12.6,-10.7,235,683,0,,,,
R,,273379.0,-0.063,0.033,-0.006,-4.9,10.6,-6.1,234,699,0,,,,
R,,273389.0,-0.032,0.073,-0.03,-5.6,10.9,-3.0,227,694,0,,,,
R,,273399.0,0.004,0.056,-0.015,-8.1,6.6,2.9,209,680,0,,,,
R,,273409.0,0.009,0.022,-0.051,-8.4,4.9,6.6,208,670,0,,,,
R,,273419.0,0.036,0.004,-0.066,-6.4,4.2,10.2,226,670,0,,,,
R,,273429.0,0.056,0.017,-0.047,-5.2,5.3,11.7,213,665,0,,,,
R,,273439.0,0.06,0.034,-0.026,-5.5,6.9,13.4,221,661,0,,,,
R,,273449.0,0.042,0.027,-0.028,-6.4,10.2,16.4,227,656,0,,,,
R,,273459.0,0.009,0.039,-0.025,-6.3,12.1,18.8,232,633,0,,,,
R,,273469.0,0.003,0.047,-0.031,-7.2,12.6,21.2,231,636,0,,,,
R,,273479.0,0.003,0.055,-0.036,-7.7,13.4,23.2,249,630,0,,,,
R,,273489.0,0.01,0.062,-0.04,-8.4,14.6,25.0,248,627,0,,,,
R,,273499.0,0.021,0.059,-0.042,-8.9,16.3,26.4,256,634,0,,,,
R,,273509.0,0.016,0.071,-0.051,-8.1,17.9,28.2,249,599,0,,,,
R,,273519.0,0.014,0.078,-0.058,-7.8,19.3,29.6,270,617,0,,,,
R,,273529.0,0.004,0.083,-0.068,-7.2,19.8,31.1,264,616,0,,,,
R,,273539.0,-0.001,0.093,-0.076,-6.4,19.7,32.3,277,617,0,,,,
R,,273549.0,0.003,0.1,-0.087,-5.4,19.3,33.7,285,605,0,,,,
R,,273559.0,-0.015,0.11,-0.095,-4.2,18.4,35.0,294,595,0,,,,
R,,273569.0,-0.005,0.117,-0.108,-3.0,16.6,36.9,298,601,0,,,,
R,,273579.0,-0.012,0.123,-0.118,-1.6,13.7,38.7,285,604,0,,,,
R,,273589.0,-0.015,0.136,-0.118,-0.4,10.6,40.3,283,614,0,,,,
R,,273599.0,-0.01,0.15,-0.11,1.4,7.1,41.2,272,607,0,,,,
R,,273609.0,-0.01,0.167,-0.103,3.4,5.4,41.8,265,607,0,,,,
R,,273619.0,-0.012,0.176,-0.106,5.4,5.3,42.0,260,618,0,,,,
R,,273629.0,-0.029,0.191,-0.107,8.3,4.8,41.7,249,606,0,,,,
R,,273639.0,-0.028,0.208,-0.101,9.0,5.0,41.6,244,601,0,,,,
R,,273649.0,-0.029,0.224,-0.102,10.4,6.3,38.3,253,603,0,,,,
R,,273659.0,-0.039,0.239,-0.1,11.9,8.0,38.6,260,605,0,,,,
R,,273669.0,-0.068,0.262,-0.056,11.0,6.7,37.3,245,603,0,,,,
R,,273679.0,-0.069,0.259,-0.042,9.8,6.5,35.1,238,620,0,,,,
R,,273689.0,-0.065,0.249,-0.034,9.8,6.4,33.2,232,627,0,,,,
R,,273699.0,-0.073,0.248,-0.018,10.7,6.6,31.0,221,623,0,,,,
R,,273709.0,-0.099,0.256,-0.009,10.9,8.5,27.9,222,625,0,,,,
R,,273719.0,-0.121,0.244,-0.033,10.1,10.0,23.5,218,630,0,,,,
R,,273729.0,-0.12,0.192,-0.062,10.3,10.3,17.8,213,635,0,,,,
R,,273739.0,-0.176,0.211,-0.046,10.6,12.1,11.7,199,643,0,,,,
R,,273749.0,-0.178,0.2,-0.041,8.2,13.5,6.4,212,656,0,,,,
R,,273759.0,-0.169,0.179,-0.016,8.0,16.0,1.0,224,651,0,,,,
R,,273769.0,-0.183,0.206,0.0,8.6,15.0,-5.8,223,656,0,,,,
R,,273779.0,-0.123,0.258,-0.009,6.6,12.7,-11.3,444,595,0,,,,
R,,273789.0,-0.185,0.239,0.02,1.3,9.4,-16.0,557,679,0,,,,
R,,273799.0,0.148,0.106,0.026,-3.3,14.0,-19.8,606,723,0,,,,
R,,273809.0,0.277,0.097,0.037,0.9,5.2,-12.0,631,745,0,,,,
R,,273819.0,0.067,0.121,-0.018,0.9,3.2,-10.4,641,756,0,,,,
R,,273829.0,0.004,0.204,0.017,4.1,3.7,-18.7,659,772,0,,,,
R,,273839.0,0.035,0.221,0.053,2.1,4.2,-17.9,667,779,0,,,,
R,,273849.0,-0.004,0.193,0.003,4.4,2.7,-18.3,673,787,0,,,,
R,,273859.0,-0.014,0.144,0.009,3.5,1.1,-18.2,679,792,0,,,,
R,,273869.0,0.024,0.127,0.018,5.1,1.3,-17.7,681,794,0,,,,
R,,273879.0,0.057,0.102,-0.002,7.1,1.9,-16.5,684,795,0,,,,
R,,273889.0,0.035,0.075,-0.038,8.5,1.9,-14.4,685,801,0,,,,
R,,273899.0,-0.052,0.109,-0.08,9.1,1.7,-13.8,689,808,0,,,,
R,,273909.0,-0.077,0.17,-0.099,7.4,2.0,-13.8,698,815,0,,,,
R,,273919.0,0.018,0.173,-0.006,2.6,-3.0,-12.1,700,821,0,,,,
R,,273929.0,0.016,0.099,-0.059,2.8,-3.9,-10.3,708,827,0,,,,
R,,273939.0,0.005,0.126,-0.034,1.4,-3.6,-10.2,709,830,0,,,,
R,,273949.0,0.025,0.115,-0.026,0.0,-3.4,-9.3,712,833,0,,,,
R,,273959.0,0.019,0.118,-0.03,1.0,-4.4,-8.8,713,834,0,,,,
R,,273969.0,0.034,0.129,-0.019,0.9,-3.6,-8.7,719,838,0,,,,
R,,273979.0,0.038,0.122,-0.02,1.6,-1.8,-8.5,712,832,0,,,,
R,,273989.0,0.029,0.124,-0.02,2.1,-0.4,-8.1,718,838,0,,,,
R,,273999.0,0.029,0.118,-0.02,2.0,1.1,-7.6,715,834,0,,,,
R,,274009.0,0.022,0.115,-0.025,2.1,1.6,-6.8,716,835,0,,,,
R,,274019.0,0.012,0.125,-0.027,1.5,1.9,-6.0,717,838,0,,,,
R,,274029.0,0.007,0.124,-0.025,1.3,0.8,-5.5,720,837,0,,,,
R,,274039.0,0.0,0.126,-0.019,1.0,-0.1,-4.8,721,841,0,,,,
R,,274049.0,0.009,0.125,-0.023,1.0,-1.9,-4.1,733,855,0,,,,
R,,274059.0,0.015,0.123,-0.019,0.8,-2.8,-3.7,735,856,0,,,,
R,,274069.0,0.016,0.122,-0.019,0.9,-3.2,-3.4,724,843,0,,,,
R,,274079.0,0.016,0.123,-0.018,1.1,-2.9,-3.3,730,850,0,,,,
R,,274089.0,0.015,0.122,-0.02,1.0,-3.0,-3.1,731,854,0,,,,
R,,274099.0,0.016,0.123,-0.022,0.9,-2.8,-2.9,726,846,0,,,,
R,,274109.0,0.019,0.122,-0.016,0.9,-2.5,-2.9,735,858,0,,,,
R,,274119.0,0.015,0.123,-0.026,0.6,-2.6,-3.2,725,847,0,,,,
R,,274129.0,0.009,0.12,-0.025,0.4,-3.0,-3.2,726,850,0,,,,
R,,274139.0,0.01,0.123,-0.027,0.3,-3.5,-3.4,734,860,0,,,,
R,,274149.0,0.017,0.119,-0.032,0.3,-3.8,-3.7,736,862,0,,,,
R,,274159.0,0.046,0.12,-0.033,0.4,-3.6,-4.0,740,869,0,,,,
R,,274169.0,0.027,0.121,-0.021,0.5,-2.9,-4.4,739,872,0,,,,
R,,274179.0,0.022,0.122,-0.028,0.4,-2.1,-5.0,738,871,0,,,,
R,,274189.0,0.017,0.12,-0.028,0.6,-1.8,-5.4,738,873,0,,,,
R,,274199.0,0.011,0.123,-0.025,0.6,-1.8,-5.6,736,876,0,,,,
R,,274209.0,0.006,0.124,-0.021,0.7,-1.7,-5.8,733,879,0,,,,
R,,274219.0,0.006,0.124,-0.021,0.7,-2.0,-5.8,735,880,0,,,,
R,,274229.0,0.009,0.123,-0.025,0.8,-2.2,-6.0,729,882,0,,,,
R,,274239.0,0.009,0.124,-0.023,1.0,-2.4,-5.9,726,882,0,,,,
R,,274249.0,0.008,0.128,-0.023,0.8,-2.1,-6.1,719,886,0,,,,
R,,274259.0,0.01,0.128,-0.027,0.7,-1.8,-6.4,711,885,0,,,,
R,,274269.0,0.008,0.128,-0.031,0.6,-1.7,-6.5,701,888,0,,,,
R,,274279.0,0.004,0.128,-0.029,0.5,-1.6,-6.6,687,887,0,,,,
R,,274289.0,0.0,0.128,-0.03,0.1,-1.6,-6.7,663,892,0,,,,
R,,274299.0,0.004,0.128,-0.031,0.0,-1.8,-7.0,622,892,0,,,,
R,,274309.0,0.006,0.132,-0.031,-0.2,-1.7,-7.3,571,894,0,,,,
R,,274319.0,0.009,0.13,-0.035,-0.3,-1.5,-8.0,459,900,0,,,,
R,,274329.0,0.0,0.134,-0.028,-0.5,-1.9,-8.6,402,899,0,,,,
R,,274339.0,0.001,0.144,-0.022,-1.0,-2.4,-9.6,301,901,0,,,,
R,,274349.0,0.003,0.144,-0.022,-1.5,-3.0,-10.1,270,905,0,,,,
R,,274359.0,0.005,0.148,-0.021,-1.6,-3.6,-10.7,250,905,0,,,,
R,,274369.0,0.004,0.151,-0.024,-2.3,-3.7,-11.5,221,906,0,,,,
R,,274379.0,-0.004,0.157,-0.025,-2.9,-4.4,-11.6,216,905,0,,,,
R,,274389.0,-0.009,0.161,-0.033,-3.4,-5.6,-12.0,211,903,0,,,,
R,,274399.0,-0.007,0.165,-0.034,-4.0,-6.9,-12.2,226,903,0,,,,
R,,274409.0,-0.006,0.173,-0.028,-5.2,-8.2,-12.6,209,904,0,,,,
R,,274419.0,0.004,0.182,-0.036,-6.2,-9.3,-13.6,178,900,0,,,,
R,,274429.0,0.022,0.189,-0.035,-6.4,-10.3,-14.5,180,901,0,,,,
R,,274439.0,0.039,0.197,-0.026,-7.6,-10.2,-16.3,186,901,0,,,,
R,,274449.0,0.053,0.205,-0.016,-8.0,-9.9,-18.2,180,900,0,,,,
R,,274459.0,0.062,0.213,-0.011,-8.7,-9.7,-19.7,196,900,0,,,,
R,,274469.0,0.077,0.227,-0.019,-9.0,-10.1,-21.2,172,900,0,,,,
R,,274479.0,0.093,0.238,-0.031,-9.1,-11.4,-22.4,181,900,0,,,,
R,,274489.0,0.102,0.245,-0.052,-9.3,-13.4,-23.9,184,900,0,,,,
R,,274499.0,0.122,0.246,-0.072,-9.1,-16.0,-24.9,194,902,0,,,,
R,,274509.0,0.116,0.215,-0.068,-10.0,-18.0,-26.6,167,898,0,,,,
R,,274519.0,0.078,0.191,-0.048,-10.5,-17.0,-26.7,171,895,0,,,,
R,,274529.0,0.029,0.194,-0.008,-11.6,-11.2,-27.0,159,890,0,,,,
R,,274539.0,0.023,0.192,-0.032,-11.1,-1.7,-27.9,178,879,0,,,,
R,,274549.0,0.039,0.163,-0.071,-10.2,3.9,-26.7,178,869,0,,,,
R,,274559.0,0.008,0.157,-0.083,-9.1,5.5,-24.5,190,847,0,,,,
R,,274569.0,-0.013,0.157,-0.031,-7.3,6.7,-22.3,173,813,0,,,,
R,,274616.0,-0.037,0.007,-0.014,-2.7,-0.9,-6.3,255,679,0,,,,
R,,274676.0,0.036,0.009,-0.005,-2.6,-0.2,14.5,294,618,0,,,,
R,,274736.0,0.032,0.059,-0.019,0.3,17.7,23.8,269,641,0,,,,
R,,274796.0,0.005,0.095,-0.039,0.3,19.8,32.9,302,642,0,,,,
R,,274886.0,0.003,0.237,-0.096,4.5,16.7,42.6,292,636,0,,,,
R,,274946.0,-0.133,0.261,-0.101,5.0,3.2,34.9,210,611,0,,,,
R,,275007.0,-0.144,0.201,-0.015,3.8,4.6,-3.9,164,633,0,,,,
R,,275066.0,0.054,0.19,0.063,5.7,2.9,-22.0,645,756,0,,,,
R,,275126.0,0.031,0.118,-0.041,6.5,0.8,-15.4,681,792,0,,,,
R,,275216.0,0.018,0.137,-0.018,0.0,-4.2,-8.8,705,825,0,,,,
R,,275276.0,0.022,0.124,-0.024,0.8,0.1,-6.5,731,855,0,,,,
R,,275336.0,0.009,0.122,-0.02,0.0,-1.4,-3.9,728,848,0,,,,
R,,275396.0,0.009,0.121,-0.028,0.1,-1.4,-2.3,742,866,0,,,,
R,,275457.0,0.009,0.125,-0.018,0.0,-1.6,-2.1,744,872,0,,,,
R,,275516.0,0.029,0.12,-0.036,-0.2,-1.5,-4.2,744,878,0,,,,
R,,275577.0,0.018,0.14,-0.017,-2.2,-4.0,-9.8,689,892,0,,,,
R,,275636.0,-0.002,0.161,-0.01,-5.2,-7.2,-12.4,269,905,0,,,,
R,,275696.0,0.065,0.225,-0.014,-10.0,-7.9,-20.3,202,900,0,,,,
R,,275757.0,0.129,0.202,-0.061,-14.2,-13.7,-29.6,177,895,0,,,,
R,,275816.0,0.022,0.136,-0.028,-9.5,16.0,-23.8,158,716,0,,,,
R,,275876.0,-0.083,0.056,-0.013,-7.2,8.9,-4.4,223,678,0,,,,
R,,275936.0,0.0,0.007,-0.056,-9.7,14.3,19.0,254,664,0,,,,
R,,275997.0,0.009,0.059,-0.045,-8.8,10.3,27.2,262,674,0,,,,
R,,276056.0,0.018,0.089,-0.051,-1.9,9.1,38.7,295,667,0,,,,
R,,276117.0,0.019,0.213,-0.067,8.8,9.3,46.9,263,632,0,,,,
R,,276176.0,-0.136,0.337,-0.076,13.5,29.2,35.2,186,631,0,,,,
R,,276236.0,-0.188,0.233,0.0,5.0,4.2,-1.9,224,595,0,,,,
R,,276296.0,-0.003,0.228,0.063,5.2,11.9,-25.3,653,767,0,,,,
R,,276356.0,-0.052,0.155,-0.053,8.8,7.0,-14.8,688,807,0,,,,
R,,276417.0,0.028,0.127,-0.031,3.2,-2.8,-7.4,721,842,0,,,,
R,,276476.0,0.02,0.124,-0.017,1.2,-0.9,-4.8,738,861,0,,,,
R,,276566.0,0.019,0.121,-0.013,0.1,-1.4,-3.7,740,874,0,,,,
R,,276626.0,0.015,0.121,-0.019,0.2,-1.1,-5.0,735,880,0,,,,
R,,276686.0,0.014,0.126,-0.017,-0.1,-0.6,-5.4,729,886,0,,,,
R,,276747.0,0.005,0.131,-0.022,-1.2,-1.3,-6.3,686,894,0,,,,
R,,276806.0,0.007,0.146,-0.006,-2.8,-2.3,-9.0,302,910,0,,,,
R,,276867.0,0.015,0.17,-0.016,-5.8,-4.1,-12.2,217,906,0,,,,
R,,276926.0,0.069,0.226,-0.027,-9.9,-1.9,-21.4,191,901,0,,,,
R,,276986.0,0.077,0.172,-0.033,-13.4,-6.4,-27.5,168,888,0,,,,
R,,277046.0,0.0,0.096,-0.001,-9.1,12.3,-20.9,140,609,0,,,,
R,,277106.0,0.0,0.031,-0.026,-6.8,11.6,3.6,239,671,0,,,,
R,,277167.0,0.024,0.022,-0.041,-8.4,16.8,17.5,239,665,0,,,,
R,,277226.0,-0.016,0.066,-0.057,-6.9,18.0,29.5,233,655,0,,,,
R,,277287.0,0.003,0.126,-0.081,-1.9,13.2,40.2,260,643,0,,,,
R,,277346.0,-0.003,0.221,-0.091,9.1,9.3,45.5,240,610,0,,,,
R,,277407.0,-0.122,0.312,-0.038,15.9,22.7,30.2,243,588,0,,,,
R,,277466.0,-0.225,0.221,-0.073,7.0,21.2,-9.4,218,638,0,,,,
R,,277526.0,0.038,0.165,0.035,6.7,7.4,-19.5,653,765,0,,,,
R,,277586.0,0.012,0.096,-0.028,7.0,0.1,-11.5,678,794,0,,,,
R,,277676.0,0.018,0.135,-0.01,1.7,-2.6,-7.4,713,834,0,,,,
R,,277737.0,0.02,0.122,-0.022,2.3,0.1,-5.5,718,838,0,,,,
R,,277796.0,0.015,0.122,-0.016,1.9,-3.2,-3.2,732,851,0,,,,
R,,277856.0,0.009,0.121,-0.022,1.5,-2.1,-2.8,742,866,0,,,,
R,,277917.0,0.015,0.123,-0.022,1.2,-1.9,-3.1,747,869,0,,,,
R,,277976.0,0.014,0.125,-0.025,1.0,-1.7,-4.5,748,876,0,,,,
R,,278037.0,0.014,0.137,-0.03,0.0,-3.4,-9.2,700,887,0,,,,
R,,278096.0,0.0,0.159,-0.024,-1.7,-4.6,-13.0,242,904,0,,,,
R,,278157.0,0.042,0.202,-0.02,-6.5,-9.6,-18.3,174,900,0,,,,
R,,278216.0,0.174,0.275,-0.074,-9.8,-17.5,-27.2,171,904,0,,,,
R,,278277.0,0.018,0.155,-0.092,-8.8,4.8,-25.9,165,842,0,,,,
R,,278336.0,-0.132,0.052,0.0,1.6,-3.0,-3.6,253,685,0,,,,
R,,278396.0,0.039,-0.001,-0.001,0.5,-4.6,20.4,261,611,0,,,,
R,,278457.0,0.049,0.056,-0.002,4.0,11.0,28.9,259,604,0,,,,
R,,278516.0,0.03,0.116,-0.023,5.5,17.0,37.1,312,603,0,,,,
R,,278578.0,0.02,0.235,-0.056,5.1,14.9,46.7,259,578,0,,,,
R,,278636.0,-0.115,0.282,-0.135,3.8,3.2,40.8,236,548,0,,,,
R,,278697.0,-0.234,0.228,0.001,0.0,1.2,-3.3,169,587,0,,,,
R,,278756.0,0.081,0.17,0.091,4.5,-0.5,-16.8,635,749,0,,,,
R,,278846.0,-0.038,0.143,-0.087,5.5,2.4,-16.1,689,807,0,,,,
R,,278907.0,0.03,0.131,0.009,1.1,-1.9,-10.6,733,861,0,,,,
R,,278966.0,0.005,0.122,-0.036,1.2,1.5,-7.2,745,880,0,,,,
R,,279027.0,0.007,0.121,-0.018,0.8,-0.9,-4.2,740,888,0,,,,
R,,279086.0,0.011,0.123,-0.025,1.0,-2.2,-4.2,722,890,0,,,,
R,,279146.0,0.006,0.122,-0.029,1.0,-0.9,-4.9,710,895,0,,,,
R,,279207.0,0.003,0.124,-0.027,1.2,-0.9,-5.6,661,899,0,,,,
R,,279266.0,0.0,0.126,-0.026,1.2,-1.1,-6.8,374,907,0,,,,
R,,279328.0,-0.006,0.147,-0.047,-0.7,-1.8,-9.6,214,908,0,,,,
R,,279386.0,0.001,0.163,-0.04,-3.9,-5.1,-12.9,163,903,0,,,,
R,,279447.0,0.041,0.199,-0.04,-6.3,-5.9,-20.2,159,898,0,,,,
R,,279506.0,0.076,0.216,-0.02,-12.7,-35.6,-21.6,134,894,0,,,,
R,,279567.0,0.031,0.145,-0.016,-5.9,1.3,-23.8,165,692,0,,,,
R,,279626.0,-0.06,0.049,0.014,-0.4,-3.3,-1.2,198,640,0,,,,
R,,279716.0,0.042,0.051,-0.008,0.7,12.6,22.2,228,665,0,,,,
R,,279777.0,-0.004,0.091,-0.036,0.0,17.4,33.3,244,655,0,,,,
R,,279836.0,0.002,0.158,-0.06,-0.9,16.6,39.3,262,646,0,,,,
R,,279896.0,-0.042,0.237,-0.121,5.0,10.2,42.5,243,609,0,,,,
R,,279957.0,-0.116,0.274,0.008,12.3,10.6,29.4,228,617,0,,,,
R,,280016.0,-0.22,0.208,-0.008,8.6,22.9,-10.0,300,569,0,,,,
R,,280078.0,0.008,0.234,0.057,0.0,1.0,-19.5,674,786,0,,,,
R,,280136.0,0.024,0.085,-0.019,7.3,-2.6,-14.4,687,805,0,,,,
R,,280197.0,0.023,0.141,-0.011,1.0,-2.7,-11.1,713,834,0,,,,
R,,280256.0,0.016,0.12,-0.025,1.8,2.3,-8.1,720,839,0,,,,
R,,280317.0,0.0,0.121,-0.024,0.4,-0.8,-6.3,738,866,0,,,,
R,,280376.0,0.018,0.127,-0.018,1.1,0.1,-6.3,739,881,0,,,,
R,,280436.0,0.005,0.123,-0.022,0.1,-1.4,-5.6,705,892,0,,,,
R,,280497.0,-0.002,0.13,-0.024,-0.2,-1.3,-5.8,535,901,0,,,,
R,,280556.0,0.0,0.136,-0.018,-0.3,-3.5,-5.3,231,906,0,,,,
R,,280617.0,0.004,0.144,-0.024,-1.8,-2.9,-9.3,223,906,0,,,,
R,,280676.0,0.0,0.171,-0.027,-4.9,-4.1,-13.4,204,904,0,,,,
R,,280738.0,0.089,0.21,-0.027,-10.6,-13.5,-19.6,151,901,0,,,,
R,,280796.0,0.013,0.209,-0.045,-9.0,0.0,-26.2,173,879,0,,,,
R,,280857.0,0.0,0.013,-0.029,-5.8,1.8,-14.5,125,531,0,,,,
R,,280916.0,0.009,0.043,-0.02,-4.6,-3.3,4.6,192,635,0,,,,
R,,280976.0,0.031,0.03,-0.019,0.3,8.6,18.7,221,617,0,,,,
R,,281037.0,0.017,0.083,-0.002,1.8,18.4,30.9,227,616,0,,,,
R,,281096.0,0.017,0.146,-0.036,2.0,21.4,40.0,274,609,0,,,,
R,,281157.0,-0.021,0.26,-0.094,2.0,10.1,46.7,258,586,0,,,,
R,,281216.0,-0.18,0.265,-0.086,11.2,12.0,31.2,229,541,0,,,,
R,,281277.0,-0.236,0.196,-0.088,4.6,13.1,-7.8,277,558,0,,,,
R,,281336.0,-0.03,0.223,0.056,3.7,14.5,-20.7,671,787,0,,,,
R,,281426.0,-0.016,0.169,-0.051,6.0,-1.5,-9.2,695,811,0,,,,
R,,281488.0,0.035,0.132,-0.015,2.3,-1.9,-8.5,703,822,0,,,,
R,,281546.0,0.006,0.133,-0.012,1.2,0.8,-7.1,738,859,0,,,,
R,,281607.0,0.017,0.123,-0.017,1.3,-0.6,-5.1,748,875,0,,,,
R,,281666.0,0.013,0.123,-0.02,1.5,-1.9,-4.2,746,885,0,,,,
R,,281726.0,-0.001,0.124,-0.03,0.6,-1.4,-4.7,732,890,0,,,,
R,,281817.0,-0.005,0.134,-0.02,-0.1,-2.0,-5.9,587,900,0,,,,
R,,281876.0,-0.008,0.147,-0.034,-1.0,-2.7,-8.5,283,911,0,,,,
R,,281966.0,0.009,0.178,-0.02,-6.4,-7.0,-14.0,236,903,0,,,,
R,,282027.0,0.091,0.249,-0.014,-11.3,-11.2,-22.8,220,904,0,,,,
R,,282086.0,0.025,0.182,-0.025,-10.7,5.4,-26.9,216,885,0,,,,
R,,282147.0,0.01,0.024,-0.021,-5.9,10.6,-14.0,154,631,0,,,,
R,,282208.0,-0.017,0.024,-0.031,-6.0,3.1,8.0,226,659,0,,,,
R,,282266.0,0.009,0.038,-0.024,-5.3,12.6,20.7,253,636,0,,,,
R,,282327.0,-0.01,0.088,-0.046,-4.6,15.6,30.4,246,632,0,,,,
R,,282386.0,0.015,0.138,-0.071,-0.8,13.6,37.9,261,614,0,,,,
R,,282447.0,-0.023,0.223,-0.093,5.1,10.0,41.1,234,607,0,,,,
R,,282506.0,-0.129,0.27,-0.066,10.1,12.9,31.3,238,604,0,,,,
R,,282567.0,-0.183,0.182,-0.06,7.2,14.9,2.0,220,637,0,,,,
R,,282626.0,0.008,0.143,-0.053,6.9,9.0,-19.1,647,762,0,,,,
R,,282687.0,0.059,0.078,0.046,5.8,-0.6,-14.6,675,790,0,,,,
R,,282747.0,0.038,0.137,-0.015,5.2,-0.3,-8.6,705,829,0,,,,
R,,282806.0,0.023,0.129,-0.017,2.6,-1.4,-7.7,712,832,0,,,,
R,,282867.0,0.008,0.122,-0.022,1.4,-1.0,-5.1,733,853,0,,,,
R,,282928.0,0.015,0.123,-0.015,1.3,-1.2,-2.4,744,864,0,,,,
R,,282987.0,0.013,0.121,-0.025,1.1,-1.7,-1.5,748,869,0,,,,
R,,283046.0,0.017,0.121,-0.022,1.0,-0.6,-3.2,752,872,0,,,,
R,,283107.0,0.006,0.127,-0.025,0.8,-0.4,-4.2,751,873,0,,,,
R,,283166.0,0.01,0.129,-0.026,0.3,-0.2,-7.2,751,888,0,,,,
R,,283227.0,-0.001,0.147,-0.031,-2.4,-2.9,-11.2,515,899,0,,,,
R,,283287.0,0.025,0.201,-0.034,-6.4,-10.1,-14.3,205,903,0,,,,
R,,283346.0,0.121,0.279,-0.043,-8.9,-9.7,-27.4,176,903,0,,,,
R,,283407.0,0.006,0.16,0.001,-9.7,2.1,-25.9,162,883,0,,,,
R,,283497.0,-0.06,0.044,-0.019,-5.9,3.5,2.8,311,673,0,,,,
R,,283556.0,0.024,0.011,-0.015,-3.0,10.0,20.1,265,623,0,,,,
R,,283617.0,0.026,0.075,-0.036,-3.4,18.8,29.3,269,621,0,,,,
R,,283678.0,0.018,0.13,-0.078,1.0,19.8,36.9,283,608,0,,,,
R,,283737.0,0.002,0.218,-0.101,7.7,9.9,43.3,247,600,0,,,,
R,,283796.0,-0.127,0.271,-0.016,9.5,-2.0,34.6,214,598,0,,,,
R,,283857.0,-0.206,0.169,0.011,7.0,16.7,-7.5,215,614,0,,,,
R,,283916.0,0.033,0.242,0.062,1.0,6.8,-21.2,661,773,0,,,,
R,,283977.0,-0.02,0.09,-0.06,6.9,2.1,-13.2,687,803,0,,,,
R,,284037.0,0.021,0.111,-0.018,1.3,-4.7,-7.7,713,833,0,,,,
R,,284096.0,0.019,0.119,-0.027,1.9,0.4,-7.1,737,857,0,,,,
R,,284157.0,0.024,0.121,-0.024,0.7,-1.4,-4.7,739,859,0,,,,
R,,284216.0,0.015,0.12,-0.033,0.5,-2.4,-5.0,736,871,0,,,,
R,,284277.0,0.02,0.123,-0.027,0.5,-2.0,-6.2,723,880,0,,,,
R,,284338.0,0.006,0.123,-0.023,1.0,-2.0,-5.8,680,890,0,,,,
R,,284397.0,-0.002,0.126,-0.022,0.9,-2.4,-6.4,426,901,0,,,,
R,,284457.0,0.003,0.154,-0.027,-1.0,-4.1,-10.7,260,910,0,,,,
R,,284517.0,0.006,0.178,-0.038,-5.2,-9.6,-14.4,206,898,0,,,,
R,,284577.0,0.104,0.261,-0.034,-9.4,-12.7,-24.0,181,903,0,,,,
R,,284636.0,0.029,0.196,-0.051,-9.8,0.7,-28.6,189,879,0,,,,
R,,284697.0,-0.068,0.042,-0.105,4.3,3.0,-14.9,248,660,0,,,,
R,,284755.0,0.004,0.026,-0.004,-3.2,-3.0,9.3,255,660,0,,,,
R,,284817.0,0.03,0.035,0.001,-1.2,8.0,23.3,253,636,0,904.0,284.0,687.0,241.0
R,,284876.0,0.016,0.086,-0.016,0.5,16.1,33.5,285,615,0,,,,
R,,284937.0,0.035,0.157,-0.043,3.0,16.5,42.6,291,622,0,,,,
R,,284997.0,-0.053,0.31,-0.096,3.9,14.7,43.5,221,598,0,,,,
R,,285058.0,-0.259,0.208,-0.121,8.6,5.6,17.9,233,608,0,,,,
R,,285117.0,0.415,0.144,0.048,-2.3,4.0,-14.2,639,749,0,,,,
R,,285176.0,0.031,0.079,0.036,4.0,2.1,-18.4,676,787,0,,,,
R,,285237.0,0.034,0.155,0.018,2.8,-4.6,-8.9,723,844,0,,,,
R,,285296.0,0.027,0.121,-0.014,2.9,-1.5,-7.8,741,861,0,,,,
R,,285357.0,0.011,0.123,-0.023,2.1,-1.7,-4.6,749,869,0,,,,
R,,285416.0,0.014,0.125,-0.022,1.2,-2.5,-2.8,754,875,0,,,,
R,,285506.0,0.016,0.122,-0.028,0.7,-2.1,-3.5,749,879,0,,,,
R,,285567.0,0.017,0.117,-0.025,1.0,-0.9,-6.0,737,883,0,,,,
R,,285626.0,-0.005,0.133,-0.024,1.0,-1.6,-6.0,691,894,0,,,,
R,,285687.0,0.009,0.145,-0.036,-0.2,-2.9,-10.0,255,909,0,,,,
R,,285747.0,-0.001,0.175,-0.039,-3.7,-9.1,-11.7,260,906,0,,,,
R,,285808.0,0.077,0.234,-0.01,-8.5,-10.8,-21.0,229,899,0,,,,
R,,285867.0,0.037,0.209,-0.02,-10.2,-7.6,-29.3,188,894,0,,,,
R,,285926.0,0.014,0.116,-0.058,-3.3,12.4,-25.2,178,688,0,,,,
R,,285987.0,-0.001,0.026,-0.005,-5.5,-2.3,5.5,227,672,0,,,,
R,,286046.0,0.045,0.036,-0.017,-6.6,9.2,19.7,260,664,0,,,,
R,,286107.0,0.002,0.084,-0.045,-5.4,18.6,31.1,288,642,0,,,,
R,,286166.0,0.019,0.132,-0.09,-0.3,19.6,39.0,312,659,0,,,,
R,,286227.0,0.002,0.248,-0.096,6.8,19.7,42.1,292,640,0,,,,
R,,286287.0,-0.16,0.283,-0.087,8.3,6.1,34.5,204,659,0,,,,
R,,286347.0,-0.133,0.166,-0.052,3.6,0.8,-2.5,289,616,0,,,,
R,,286407.0,0.037,0.228,0.031,2.6,6.9,-24.4,669,785,0,,,,
R,,286468.0,-0.022,0.073,-0.054,10.1,5.6,-15.7,704,823,0,,,,
R,,286527.0,0.02,0.118,-0.027,4.2,-5.5,-10.1,738,861,0,,,,
R,,286586.0,0.032,0.123,-0.024,2.7,1.1,-7.9,747,872,0,,,,
R,,286647.0,0.004,0.122,-0.017,0.7,-1.3,-5.1,749,883,0,,,,
R,,286707.0,0.009,0.12,-0.03,1.3,-1.6,-3.9,739,890,0,,,,
R,,286767.0,0.018,0.122,-0.031,0.8,-1.5,-4.3,717,893,0,,,,
R,,286827.0,0.005,0.125,-0.02,1.1,-1.7,-5.6,686,899,0,,,,
R,,286887.0,-0.003,0.127,-0.03,0.9,-0.7,-6.0,503,901,0,,,,
R,,286947.0,-0.001,0.137,-0.022,0.8,-1.7,-7.0,245,908,0,,,,
R,,287006.0,-0.007,0.149,-0.044,-2.4,-5.1,-9.1,281,906,0,,,,
R,,287067.0,0.024,0.191,-0.008,-6.1,-6.9,-14.6,221,903,0,,,,
R,,287126.0,0.102,0.218,-0.02,-9.6,-18.7,-22.0,228,899,0,,,,
R,,287188.0,-0.006,0.169,-0.089,-7.4,6.8,-26.7,225,856,0,,,,
R,,287247.0,-0.028,0.0,-0.038,-3.6,4.9,-10.7,221,643,0,,,,
R,,287307.0,0.041,0.021,-0.007,-4.4,-2.6,12.9,229,651,0,,,,
R,,287408.0,0.018,0.085,-0.011,-1.7,15.2,31.6,242,661,0,,,,
R,,287427.0,0.02,0.084,-0.03,-2.1,13.9,35.4,259,656,0,,,,
R,,287487.0,0.03,0.17,-0.053,1.9,11.6,44.3,263,645,0,,,,
R,,287546.0,-0.059,0.295,-0.112,8.3,7.1,45.2,214,587,0,,,,
R,,287606.0,-0.212,0.271,0.068,8.9,-0.1,22.0,168,632,0,,,,
R,,287666.0,0.514,0.046,0.132,-4.5,0.4,-9.4,634,753,0,,,,
R,,287727.0,0.022,0.105,0.055,2.3,-2.0,-20.3,681,795,0,,,,
R,,287787.0,-0.013,0.15,-0.014,1.2,0.4,-10.0,711,832,0,,,,
R,,287847.0,0.04,0.129,-0.005,1.9,-4.9,-7.2,739,863,0,,,,
R,,287909.0,0.017,0.122,-0.032,1.5,-0.3,-6.0,744,869,0,,,,
R,,287966.0,0.023,0.124,-0.007,-0.1,-0.6,-5.0,747,873,0,,,,
R,,288027.0,0.011,0.123,-0.029,-0.3,-1.7,-4.7,742,879,0,,,,
R,,288086.0,0.006,0.128,-0.02,-0.6,-0.6,-6.0,740,889,0,,,,
R,,288147.0,0.0,0.126,-0.018,-0.8,-1.3,-5.5,711,894,0,,,,
R,,288207.0,0.013,0.132,-0.014,-1.6,-3.1,-6.2,535,900,0,,,,
R,,288267.0,0.004,0.146,-0.012,-3.3,-3.7,-9.9,317,906,0,,,,
R,,288357.0,0.069,0.225,-0.007,-10.7,-6.2,-22.0,243,901,0,,,,
R,,288416.0,0.074,0.2,-0.015,-13.8,-8.3,-28.1,225,893,0,,,,
R,,288477.0,-0.013,0.11,-0.093,-8.7,16.0,-21.4,190,631,0,,,,
R,,288537.0,-0.077,0.039,-0.011,-10.9,11.4,-0.3,266,693,0,,,,
R,,288598.0,0.006,0.029,-0.048,-12.3,15.7,16.3,237,648,0,,,,
R,,288657.0,-0.008,0.058,-0.078,-12.2,17.4,27.3,294,612,0,,,,
R,,288717.0,0.003,0.104,-0.104,-3.4,13.7,36.7,250,605,0,,,,
R,,288777.0,-0.012,0.195,-0.097,7.5,-0.7,44.1,205,591,0,,,,
R,,288836.0,-0.054,0.264,-0.011,17.1,8.7,34.4,167,593,0,,,,
R,,288897.0,-0.211,0.247,-0.064,10.9,23.8,9.1,181,623,0,,,,
R,,288957.0,0.337,0.111,0.122,1.4,5.4,-10.6,647,759,0,,,,
R,,289017.0,0.076,0.082,0.021,5.2,0.1,-17.3,683,798,0,,,,
R,,289077.0,0.019,0.126,-0.022,1.8,-0.4,-10.3,711,831,0,,,,
R,,289137.0,0.036,0.13,-0.012,3.6,0.2,-8.2,739,864,0,,,,
R,,289197.0,0.005,0.123,-0.029,0.4,-1.8,-6.3,750,877,0,,,,
R,,289257.0,0.012,0.124,-0.016,0.6,-0.7,-5.8,740,885,0,,,,
R,,289319.0,0.007,0.121,-0.021,0.3,-1.9,-5.4,701,891,0,,,,
R,,289376.0,0.004,0.127,-0.022,0.5,-1.3,-5.7,618,901,0,,,,
R,,289437.0,0.0,0.13,-0.017,0.3,-1.1,-5.6,275,909,0,,,,
R,,289497.0,0.006,0.151,-0.033,-0.7,-2.5,-8.7,260,907,0,,,,
R,,289557.0,0.003,0.171,-0.031,-3.4,-7.4,-13.8,222,904,0,,,,
R,,289617.0,0.104,0.258,-0.015,-9.7,-11.3,-24.4,193,904,0,,,,
R,,289677.0,0.016,0.195,-0.006,-10.2,1.1,-30.8,184,890,0,,,,
R,,289737.0,-0.008,0.019,-0.062,-0.9,14.3,-17.7,140,594,0,,,,
R,,289797.0,-0.027,0.065,-0.004,-1.4,-1.0,9.4,220,682,0,,,,
R,,289857.0,0.053,0.012,-0.016,-2.3,3.9,24.4,244,643,0,,,,
R,,289916.0,0.012,0.077,-0.029,-0.1,13.1,33.4,244,627,0,,,,
R,,289978.0,0.036,0.139,-0.048,5.4,13.9,42.7,274,634,0,,,,
R,,290037.0,-0.046,0.305,-0.062,10.3,11.7,47.2,219,593,0,,,,
R,,290097.0,-0.255,0.265,-0.062,14.6,1.7,22.7,155,587,0,,,,
R,,290157.0,0.315,-0.132,-0.131,-8.8,7.8,-23.7,625,742,0,,,,
R,,290217.0,0.01,0.095,0.025,4.2,2.8,-21.5,680,793,0,,,,
R,,290277.0,0.024,0.162,-0.005,1.1,-2.5,-11.8,698,818,0,,,,
R,,290336.0,0.045,0.118,-0.013,1.4,-2.2,-8.4,713,834,0,,,,
R,,290397.0,0.018,0.115,-0.043,1.8,2.1,-6.8,720,844,0,,,,
R,,290457.0,0.021,0.123,-0.011,0.6,-1.6,-4.9,738,862,0,,,,
R,,290517.0,-0.001,0.139,-0.024,0.1,-2.2,-3.9,748,873,0,,,,
R,,290577.0,0.013,0.125,-0.03,0.8,-1.1,-4.8,748,879,0,,,,
R,,290637.0,0.014,0.126,-0.028,0.4,-2.0,-6.0,735,888,0,,,,
R,,290699.0,0.006,0.135,-0.017,0.5,-2.1,-8.9,623,898,0,,,,
R,,290757.0,-0.007,0.145,-0.03,-2.4,-4.3,-10.8,254,907,0,,,,
R,,290817.0,0.016,0.183,-0.015,-6.7,-8.6,-13.6,227,906,0,,,,
R,,290907.0,0.134,0.236,-0.07,-9.8,-18.0,-28.4,171,900,0,,,,
R,,290967.0,0.059,0.181,-0.005,-6.6,2.0,-27.8,167,772,0,,,,
R,,291027.0,-0.086,0.06,-0.013,-1.3,-1.5,-2.9,226,706,0,,,,
R,,291087.0,0.051,0.015,-0.007,0.5,1.1,18.4,248,656,0,,,,
R,,291147.0,0.021,0.069,-0.012,1.3,15.5,27.6,250,653,0,,,,
R,,291207.0,0.036,0.117,-0.03,2.3,17.1,38.2,272,643,0,,,,
R,,291267.0,0.017,0.224,-0.071,1.8,8.4,48.1,245,625,0,,,,
R,,291327.0,-0.123,0.287,-0.129,7.2,2.9,40.8,225,598,0,,,,
R,,291387.0,-0.251,0.255,0.032,1.4,2.3,2.5,415,614,0,,,,
R,,291449.0,0.023,0.197,0.091,3.3,14.9,-27.6,675,787,0,,,,
R,,291507.0,-0.008,0.086,-0.084,9.2,-0.6,-17.5,690,807,0,,,,
R,,291567.0,0.018,0.132,-0.025,0.8,-5.4,-10.7,724,842,0,,,,
R,,291627.0,0.015,0.118,-0.033,2.1,0.9,-8.9,741,865,0,,,,
R,,291687.0,0.011,0.122,-0.025,0.1,-1.7,-5.6,747,876,0,,,,
R,,291747.0,-0.045,0.133,-0.027,2.2,-5.5,-0.1,743,884,0,,,,
R,,291807.0,0.011,0.122,-0.027,0.2,-1.9,-3.8,727,887,0,,,,
R,,291867.0,0.007,0.123,-0.023,0.5,-2.3,-4.9,689,894,0,,,,
R,,291927.0,-0.001,0.134,-0.027,0.0,-2.2,-5.4,400,902,0,,,,
R,,291987.0,0.013,0.148,-0.027,-1.5,-3.0,-10.2,254,906,0,,,,
R,,292047.0,0.0,0.171,-0.03,-5.6,-8.0,-14.2,214,903,0,,,,
R,,292109.0,0.078,0.224,-0.032,-8.0,-9.7,-22.8,185,902,0,,,,
R,,292166.0,0.007,0.205,-0.023,-10.7,-11.2,-28.2,174,891,0,,,,
R,,292227.0,0.021,0.048,-0.043,-6.5,7.7,-19.0,153,619,0,,,,
R,,292287.0,-0.001,0.02,-0.024,-3.2,-4.6,7.3,213,683,0,,,,
R,,292347.0,0.048,0.029,-0.005,0.6,9.1,21.0,220,649,0,,,,
R,,292407.0,0.027,0.079,-0.015,0.7,18.9,31.0,253,655,0,,,,
R,,292467.0,0.028,0.147,-0.053,1.3,19.2,40.8,269,652,0,,,,
R,,292527.0,0.006,0.268,-0.1,2.7,13.3,46.5,235,607,0,,,,
R,,292587.0,-0.17,0.298,-0.083,9.3,5.8,34.8,212,576,0,,,,
R,,292647.0,-0.121,0.329,-0.087,5.9,5.3,-9.7,448,613,0,,,,
R,,292737.0,0.048,0.089,0.027,2.9,0.0,-19.8,683,796,0,,,,
R,,292827.0,0.013,0.118,-0.028,1.0,-3.8,-11.5,715,833,0,,,,
R,,292888.0,0.002,0.133,-0.008,1.3,1.1,-7.2,747,867,0,,,,
R,,292947.0,0.015,0.12,-0.028,0.8,-1.7,-4.3,752,877,0,,,,
R,,293007.0,0.01,0.121,-0.028,0.7,-1.9,-2.7,752,883,0,,,,
R,,293067.0,0.024,0.121,-0.031,0.0,-1.7,-3.8,748,887,0,,,,
R,,293127.0,0.011,0.125,-0.03,0.4,-1.2,-5.8,723,891,0,,,,
R,,293187.0,0.0,0.131,-0.021,0.0,-1.3,-6.2,599,901,0,,,,
R,,293247.0,0.0,0.142,-0.032,-1.0,-2.4,-8.5,254,909,0,,,,
R,,293307.0,-0.005,0.157,-0.031,-4.0,-6.5,-11.6,253,904,0,,,,
R,,293367.0,0.047,0.203,-0.009,-8.5,-6.6,-18.5,232,900,0,,,,
R,,293427.0,0.137,0.201,-0.04,-11.1,-19.9,-25.8,163,896,0,,,,
R,,293487.0,0.005,0.163,-0.049,-6.3,15.1,-28.5,181,786,0,,,,
R,,293547.0,-0.049,0.082,-0.016,-5.8,4.4,-3.2,209,758,0,,,,
R,,293609.0,0.033,0.005,-0.02,-6.3,5.9,14.6,240,706,0,,,,
R,,293667.0,0.003,0.047,-0.044,-6.8,12.1,25.9,237,704,0,,,,
R,,293727.0,0.016,0.091,-0.081,-0.9,11.1,37.3,278,685,0,,,,
R,,293787.0,-0.005,0.177,-0.089,9.9,-4.2,48.7,262,669,0,,,,
R,,293847.0,-0.034,0.333,0.043,11.9,-4.8,45.4,147,672,0,,,,
R,,293907.0,-0.416,0.258,0.01,12.6,30.9,2.7,168,643,0,,,,
R,,293967.0,-0.058,0.173,-0.089,2.5,-1.8,-18.9,645,756,0,,,,
R,,294057.0,-0.081,0.193,-0.071,3.9,5.1,-14.6,698,818,0,,,,
R,,294147.0,0.035,0.127,-0.014,2.3,0.0,-7.7,735,854,0,,,,
R,,294208.0,0.023,0.118,-0.032,0.9,-0.7,-5.2,735,861,0,,,,
R,,294267.0,0.021,0.124,-0.015,0.9,-1.6,-3.6,742,870,0,,,,
R,,294329.0,0.021,0.119,-0.028,-0.1,-2.2,-3.4,741,877,0,,,,
R,,294387.0,0.019,0.124,-0.024,0.0,-1.5,-4.7,736,881,0,,,,
R,,294447.0,0.009,0.124,-0.026,0.1,-1.0,-5.4,705,886,0,,,,
R,,294507.0,0.01,0.135,-0.022,0.0,-0.4,-7.9,579,895,0,,,,
R,,294567.0,-0.003,0.143,-0.023,-2.0,-2.2,-10.7,283,905,0,,,,
R,,294627.0,0.022,0.178,-0.037,-6.0,-7.5,-13.3,200,903,0,,,,
R,,294687.0,0.085,0.25,-0.029,-8.7,-8.1,-23.9,158,906,0,,,,
R,,294748.0,0.012,0.181,0.002,-9.7,-1.8,-29.7,165,891,0,,,,
R,,294807.0,-0.014,0.067,-0.02,-5.1,15.4,-24.8,170,644,0,,,,
R,,294867.0,0.009,0.013,-0.049,-8.6,-5.2,9.8,271,660,0,,,,
R,,294927.0,0.026,0.045,-0.011,-8.0,7.0,22.1,273,676,0,,,,
R,,294987.0,0.007,0.089,-0.039,-4.8,20.2,31.0,268,653,0,,,,
R,,295048.0,0.027,0.134,-0.067,1.0,20.5,38.8,297,649,0,,,,
R,,295107.0,0.026,0.269,-0.069,5.7,22.5,42.3,280,615,0,,,,
R,,295167.0,-0.145,0.244,-0.115,7.6,17.4,28.6,268,621,0,,,,
R,,295227.0,-0.13,0.228,-0.086,7.0,11.9,-7.1,146,651,0,,,,
R,,295288.0,-0.007,0.152,0.003,2.6,-3.7,-17.1,628,748,0,,,,
R,,295347.0,-0.008,0.138,0.008,5.4,0.9,-12.7,678,792,0,,,,
R,,295407.0,0.016,0.134,-0.035,7.1,-0.4,-8.8,687,803,0,,,,
R,,295466.0,0.03,0.111,-0.048,2.2,-2.6,-7.5,695,811,0,,,,
R,,295527.0,0.006,0.129,-0.005,0.2,-0.3,-7.1,731,854,0,,,,
R,,295617.0,0.003,0.124,-0.015,0.7,-1.6,-3.0,747,875,0,,,,
R,,295708.0,0.01,0.14,-0.02,-0.7,-1.3,-4.1,742,883,0,,,,
R,,295808.0,0.007,0.139,-0.011,-1.9,-2.3,-7.0,586,897,0,,,,
R,,295829.0,0.007,0.132,-0.01,-1.9,-2.2,-8.2,351,904,0,,,,
R,,295887.0,0.003,0.161,-0.013,-4.9,-4.5,-10.0,294,907,0,,,,
R,,295947.0,0.061,0.205,-0.025,-9.2,-1.5,-19.2,170,904,0,,,,
R,,296007.0,0.119,0.219,-0.062,-9.6,-12.6,-27.7,193,901,0,,,,
R,,296067.0,0.022,0.173,-0.07,-7.1,10.9,-27.5,193,817,0,,,,
R,,296127.0,-0.086,0.1,-0.004,-0.1,6.4,-7.9,230,716,0,,,,
R,,296187.0,0.021,0.013,-0.017,-4.2,7.8,14.4,278,677,0,,,,
R,,296248.0,0.027,0.058,-0.044,-2.7,19.4,24.0,242,668,0,,,,
R,,296307.0,0.004,0.092,-0.078,-2.7,20.7,34.6,238,650,0,,,,
R,,296367.0,0.007,0.18,-0.087,2.6,9.8,43.7,263,633,0,,,,
R,,296427.0,-0.074,0.248,-0.062,6.6,11.1,35.5,203,590,0,,,,
R,,296489.0,-0.22,0.21,-0.047,9.3,12.8,4.3,195,643,0,,,,
R,,296547.0,0.18,0.2,0.108,5.2,7.0,-15.9,665,778,0,,,,
R,,296607.0,0.012,0.08,-0.013,9.5,2.7,-14.2,681,795,0,,,,
R,,296667.0,0.008,0.143,-0.016,0.9,-4.0,-8.9,697,814,0,,,,
R,,296727.0,0.007,0.123,-0.026,2.5,0.4,-6.1,710,830,0,,,,
R,,296788.0,0.017,0.125,-0.022,1.6,-2.5,-3.3,718,847,0,,,,
R,,296847.0,0.012,0.122,-0.025,1.1,-3.1,-2.3,703,869,0,,,,
R,,296907.0,0.019,0.118,-0.028,1.4,-3.0,-3.3,678,879,0,,,,
R,,296967.0,0.006,0.125,-0.019,1.6,-2.2,-5.1,592,889,0,,,,
R,,297027.0,0.005,0.132,-0.025,1.7,-2.5,-6.7,229,900,0,,,,
R,,297087.0,0.002,0.151,-0.032,0.1,-3.7,-10.0,207,901,0,,,,
R,,297147.0,0.011,0.172,-0.039,-3.5,-9.7,-14.5,162,899,0,,,,
R,,297208.0,0.125,0.27,-0.04,-7.8,-18.7,-25.4,161,904,0,,,,
R,,297267.0,0.023,0.178,-0.047,-4.8,2.6,-28.5,166,867,0,,,,
R,,297357.0,-0.035,0.047,0.011,-1.9,-4.6,5.0,329,646,0,,,,
R,,297417.0,0.035,0.022,-0.013,-3.7,-3.2,22.1,229,635,0,,,,
R,,297477.0,0.024,0.077,-0.009,-0.6,7.4,29.1,263,627,0,,,,
R,,297538.0,0.04,0.119,-0.027,2.7,12.1,37.2,303,621,0,,,,
R,,297597.0,0.024,0.23,-0.056,5.5,12.3,43.9,242,617,0,,,,
R,,297658.0,-0.149,0.285,-0.133,6.1,13.2,33.4,191,566,0,,,,
R,,297717.0,-0.218,0.302,-0.022,0.3,4.7,-1.7,461,612,0,,,,
R,,297777.0,0.041,0.179,0.059,2.4,11.8,-26.9,675,787,0,,,,
R,,297837.0,-0.023,0.128,-0.091,12.7,8.3,-16.6,686,808,0,,,,
R,,297899.0,0.017,0.143,-0.017,0.2,-7.7,-9.0,728,847,0,,,,
R,,297987.0,0.011,0.124,-0.036,0.7,-2.4,-5.3,743,868,0,,,,
R,,298047.0,0.016,0.121,-0.02,0.7,-1.3,-4.6,745,871,0,,,,
R,,298107.0,0.013,0.118,-0.034,0.0,-2.9,-4.5,733,879,0,,,,
R,,298167.0,0.013,0.124,-0.025,0.1,-1.4,-6.3,720,887,0,,,,
R,,298227.0,0.001,0.127,-0.03,0.1,-1.0,-5.7,654,894,0,,,,
R,,298288.0,0.016,0.136,-0.016,0.1,-1.5,-8.8,258,906,0,,,,
R,,298347.0,0.004,0.156,-0.044,-3.8,-5.6,-11.1,210,904,0,,,,
R,,298408.0,0.053,0.193,-0.013,-6.5,-5.1,-18.9,182,901,0,,,,
R,,298467.0,0.116,0.214,-0.048,-8.1,-17.2,-26.9,161,898,0,,,,
R,,298527.0,0.024,0.213,-0.01,-7.0,-0.1,-28.0,178,816,0,,,,
R,,298587.0,-0.057,0.05,-0.012,-0.2,-0.7,-6.6,178,706,0,,,,
R,,298649.0,0.023,0.009,-0.008,-2.2,3.2,15.2,197,670,0,,,,
R,,298708.0,0.055,0.065,-0.01,-1.1,16.5,24.4,219,653,0,,,,
R,,298767.0,0.023,0.095,-0.033,-1.6,17.4,34.1,250,672,0,,,,
R,,298828.0,0.051,0.175,-0.045,-0.5,13.0,42.9,241,670,0,,,,
R,,298887.0,-0.049,0.301,-0.098,0.0,10.5,43.2,212,585,0,,,,
R,,298948.0,-0.276,0.206,-0.05,6.8,-3.5,18.7,173,624,0,,,,
R,,299007.0,0.356,0.106,0.147,2.3,-4.6,-7.1,652,759,0,,,,
R,,299067.0,0.043,0.08,0.024,6.6,-1.8,-17.0,680,793,0,,,,
R,,299127.0,0.024,0.109,-0.033,4.8,-3.7,-10.0,699,815,0,,,,
R,,299187.0,0.028,0.13,-0.006,3.1,0.0,-8.2,719,838,0,,,,
R,,299248.0,0.013,0.124,-0.032,1.2,-1.1,-6.2,740,873,0,,,,
R,,299307.0,0.017,0.124,-0.017,0.7,-1.0,-5.0,723,881,0,,,,
R,,299369.0,0.008,0.121,-0.026,0.0,-2.3,-4.3,657,889,0,,,,
R,,299427.0,0.005,0.123,-0.02,0.0,-1.7,-4.4,551,902,0,,,,
R,,299488.0,0.002,0.122,-0.022,-0.3,-1.0,-4.7,333,901,0,,,,
R,,299547.0,0.0,0.132,-0.024,-0.8,-1.3,-6.1,259,906,0,,,,
R,,299607.0,0.003,0.146,-0.02,-2.6,-2.5,-9.3,220,906,0,,,,
R,,299666.0,0.018,0.171,-0.033,-5.6,-3.3,-13.4,178,906,0,,,,
R,,299727.0,0.059,0.207,-0.021,-8.0,-4.0,-21.0,190,903,0,,,,
R,,299788.0,0.013,0.203,-0.012,-10.5,-5.0,-26.0,164,891,0,,,,
R,,299847.0,-0.007,0.055,-0.038,-8.3,10.8,-22.9,125,640,0,,,,
R,,299908.0,0.005,0.032,-0.031,-4.8,1.8,4.1,204,669,0,,,,
R,,299967.0,0.036,0.032,-0.02,-2.9,9.8,20.6,242,647,0,,,,
R,,300029.0,0.015,0.079,-0.024,-2.1,18.6,29.3,245,652,0,,,,
R,,300087.0,0.021,0.139,-0.054,-0.3,14.5,38.2,263,626,0,,,,
R,,300147.0,-0.032,0.232,-0.062,1.4,3.3,42.6,226,620,0,,,,
R,,300208.0,-0.127,0.289,-0.073,5.1,17.6,28.5,200,610,0,,,,
R,,300267.0,-0.197,0.217,-0.027,4.9,11.6,-5.7,323,585,0,,,,
R,,300328.0,0.019,0.202,0.058,4.6,14.0,-18.3,665,780,0,,,,
R,,300387.0,0.0,0.133,-0.029,8.1,-2.4,-10.3,684,799,0,,,,
R,,300448.0,0.027,0.119,-0.033,2.5,-3.1,-6.9,702,819,0,,,,
R,,300507.0,0.027,0.127,-0.014,2.1,-0.3,-5.9,715,831,0,,,,
R,,300567.0,0.014,0.12,-0.021,1.0,-0.7,-4.2,734,861,0,,,,
R,,300627.0,0.013,0.121,-0.021,1.1,-1.8,-3.2,742,871,0,,,,
R,,300687.0,0.015,0.124,-0.019,0.8,-1.8,-3.5,744,877,0,,,,
R,,300749.0,0.015,0.127,-0.02,0.6,-1.1,-4.6,736,887,0,,,,
R,,300807.0,0.009,0.129,-0.029,-0.2,-1.9,-5.6,690,893,0,,,,
R,,300868.0,0.009,0.137,-0.018,-1.5,-2.1,-8.9,241,907,0,,,,
R,,300927.0,0.013,0.145,-0.021,-3.5,-4.2,-10.5,238,905,0,,,,
R,,300988.0,0.029,0.198,-0.01,-7.0,-3.7,-16.1,181,904,0,,,,
R,,301047.0,0.099,0.221,-0.032,-9.2,-11.0,-24.7,173,900,0,,,,
R,,301107.0,0.011,0.174,-0.065,-9.0,6.6,-25.2,179,846,0,,,,
R,,301167.0,-0.019,0.025,-0.054,-1.7,6.6,-10.6,224,705,0,,,,
R,,301227.0,0.023,0.033,-0.027,-6.2,5.7,9.5,233,692,0,,,,
R,,301288.0,0.021,0.052,-0.021,-8.9,15.9,20.4,250,699,0,,,,
R,,301347.0,0.014,0.105,-0.05,-8.1,21.3,29.2,264,653,0,,,,
R,,301408.0,0.022,0.146,-0.083,-4.1,19.9,36.5,293,660,0,,,,
R,,301469.0,-0.014,0.23,-0.109,0.8,14.2,40.6,272,633,0,,,,
R,,301528.0,-0.167,0.264,-0.069,7.3,2.4,30.1,245,613,0,,,,
R,,301587.0,-0.101,0.268,-0.096,8.3,7.8,-4.7,368,603,0,,,,
R,,301647.0,-0.033,0.269,0.032,8.8,6.3,-24.9,673,786,0,,,,
R,,301708.0,-0.036,0.155,-0.075,7.9,8.7,-13.8,690,808,0,,,,
R,,301767.0,0.019,0.138,0.014,2.6,-4.5,-8.6,730,854,0,,,,
R,,301828.0,0.022,0.122,-0.022,2.9,0.3,-6.5,746,868,0,,,,
R,,301887.0,0.008,0.122,-0.012,0.5,-2.0,-4.4,745,880,0,,,,
R,,301948.0,0.009,0.124,-0.024,0.8,-1.2,-3.2,739,886,0,,,,
R,,302007.0,0.017,0.123,-0.018,0.7,-0.9,-3.5,738,893,0,,,,
R,,302068.0,0.007,0.129,-0.018,0.3,-0.8,-5.0,711,893,0,,,,
R,,302129.0,0.003,0.136,-0.016,-0.1,-1.3,-6.9,514,902,0,,,,
R,,302187.0,0.0,0.151,-0.023,-2.7,-3.9,-9.6,251,910,0,,,,
R,,302248.0,0.019,0.177,-0.011,-6.0,-6.7,-13.3,202,906,0,,,,
R,,302307.0,0.081,0.225,-0.022,-9.1,-7.4,-23.4,205,903,0,,,,
R,,302368.0,0.005,0.203,-0.038,-11.4,0.9,-29.8,199,885,0,,,,
R,,302427.0,0.018,0.013,0.005,-8.4,10.5,-18.0,146,646,0,,,,
R,,302488.0,0.009,0.012,-0.025,-3.7,1.2,7.4,217,703,0,,,,
R,,302547.0,0.021,0.042,-0.023,-1.9,10.1,21.3,237,673,0,,,,
R,,302608.0,0.015,0.082,-0.036,-0.5,16.1,31.4,243,656,0,,,,
R,,302667.0,0.029,0.15,-0.059,2.2,14.6,40.7,264,641,0,,,,
R,,302727.0,-0.031,0.26,-0.108,6.2,6.7,46.7,246,608,0,,,,
R,,302788.0,-0.14,0.321,0.052,5.5,-6.9,35.6,199,594,0,,,,
R,,302849.0,-0.123,0.287,-0.046,10.6,13.6,-12.4,335,599,0,,,,
R,,302908.0,0.089,0.176,0.007,2.4,13.8,-23.1,660,769,0,,,,
R,,302967.0,0.022,0.095,-0.045,9.3,2.5,-16.0,685,798,0,,,,
R,,303057.0,0.041,0.122,-0.015,2.1,-0.5,-10.5,718,837,0,,,,
R,,303118.0,0.016,0.121,-0.035,0.2,-1.0,-6.7,745,869,0,,,,
R,,303208.0,0.005,0.122,-0.025,0.5,-3.3,-4.5,728,885,0,,,,
R,,303267.0,0.011,0.122,-0.03,0.2,-2.1,-5.4,702,891,0,,,,
R,,303328.0,0.01,0.123,-0.028,0.7,-1.6,-6.4,585,902,0,,,,
R,,303387.0,0.0,0.129,-0.02,0.2,-2.5,-6.7,266,908,0,,,,
R,,303448.0,0.006,0.16,-0.022,-1.4,-3.3,-11.8,232,907,0,,,,
R,,303507.0,0.016,0.19,-0.042,-4.6,-5.6,-16.5,159,904,0,,,,
R,,303568.0,0.071,0.232,-0.014,-9.2,-18.8,-21.5,142,905,0,,,,
R,,303629.0,-0.011,0.192,-0.09,-8.1,1.7,-26.6,201,868,0,,,,
R,,303688.0,-0.014,0.034,-0.053,-1.2,5.1,-14.2,124,640,0,,,,
R,,303748.0,0.002,0.024,-0.01,-2.9,-0.3,9.1,169,694,0,,,,
R,,303807.0,0.036,0.034,-0.015,-0.3,9.8,22.4,218,668,0,,,,
R,,303868.0,0.014,0.081,-0.03,0.6,13.7,33.4,248,646,0,,,,
R,,303927.0,0.043,0.167,-0.026,3.2,8.8,41.5,261,647,0,,,,
R,,303988.0,-0.001,0.275,-0.062,5.1,6.4,46.4,189,611,0,,,,
R,,304047.0,-0.144,0.302,-0.042,8.0,6.0,32.9,178,612,0,,,,
R,,304108.0,-0.161,0.277,-0.047,5.4,8.5,-16.1,305,596,0,,,,
R,,304167.0,0.033,0.195,0.03,1.6,9.2,-23.0,674,787,0,,,,
R,,304227.0,-0.03,0.11,-0.051,5.7,2.7,-14.7,693,807,0,,,,
R,,304290.0,0.008,0.137,-0.025,0.7,-4.6,-10.9,726,848,0,,,,
R,,304347.0,0.026,0.121,-0.018,1.6,-0.4,-6.4,745,868,0,,,,
R,,304408.0,0.007,0.122,-0.02,1.1,-2.4,-4.0,751,876,0,,,,
R,,304467.0,0.011,0.119,-0.031,1.3,-1.4,-3.2,750,882,0,,,,
R,,304528.0,0.018,0.122,-0.027,0.7,-1.8,-2.8,751,886,0,,,,
R,,304587.0,0.011,0.124,-0.028,1.2,-1.8,-4.7,735,891,0,,,,
R,,304648.0,0.006,0.132,-0.027,1.1,-1.9,-8.4,661,898,0,,,,
R,,304708.0,-0.001,0.146,-0.038,-0.9,-3.8,-12.2,252,910,0,,,,
R,,304767.0,0.016,0.186,-0.033,-4.5,-10.5,-15.2,191,904,0,,,,
R,,304828.0,0.103,0.271,-0.019,-8.6,-14.9,-24.1,174,902,0,,,,
R,,304887.0,0.022,0.183,-0.032,-8.3,4.3,-28.5,174,882,0,,,,
R,,304948.0,0.003,0.021,-0.017,-7.0,0.6,-11.4,173,669,0,,,,
R,,305009.0,0.005,0.035,-0.016,-3.9,-6.5,12.3,218,685,0,,,,
R,,305068.0,0.017,0.032,-0.012,-1.1,6.6,24.4,233,657,0,,,,
R,,305127.0,0.016,0.084,-0.016,-0.4,17.0,32.9,282,653,0,,,,
R,,305188.0,0.044,0.169,-0.031,0.8,18.4,42.8,276,655,0,,,,
R,,305248.0,-0.047,0.328,-0.099,-0.9,32.4,41.0,220,586,0,,,,
R,,305307.0,-0.303,0.229,-0.119,7.4,1.0,15.5,197,563,0,,,,
R,,305368.0,0.215,0.092,-0.059,1.4,11.5,-17.0,616,731,0,,,,
R,,305427.0,-0.05,0.151,-0.005,7.3,2.3,-15.9,676,791,0,,,,
R,,305488.0,0.075,0.09,-0.017,5.4,-5.8,-11.9,714,835,0,,,,
R,,305547.0,0.027,0.127,-0.022,2.6,-0.2,-8.1,748,875,0,,,,
R,,305608.0,-0.001,0.133,-0.012,0.2,0.0,-7.4,733,887,0,,,,
R,,305699.0,-0.001,0.121,-0.015,0.4,-0.9,-4.9,490,898,0,,,,
R,,305757.0,-0.002,0.122,-0.015,-0.4,-0.3,-4.6,331,903,0,,,,
R,,305847.0,0.0,0.133,-0.01,-1.5,-0.2,-5.1,289,903,0,,,,
R,,305908.0,0.004,0.144,-0.015,-2.4,-0.7,-6.9,229,904,0,,,,
R,,305967.0,0.005,0.152,-0.01,-4.6,-0.1,-11.2,200,901,0,,,,
R,,306028.0,0.046,0.197,-0.001,-7.8,0.0,-18.4,227,897,0,,,,
R,,306087.0,0.074,0.206,-0.034,-11.1,-13.6,-25.3,134,895,0,,,,
R,,306148.0,0.045,0.126,-0.017,-8.4,7.9,-25.8,156,790,0,,,,
R,,306208.0,-0.022,0.04,-0.006,-5.7,9.5,0.5,250,739,0,,,,
R,,306268.0,0.016,0.024,-0.033,-3.8,15.1,15.1,257,699,0,,,,
R,,306328.0,0.01,0.076,-0.042,-8.3,21.7,25.7,243,678,0,,,,
R,,306387.0,0.028,0.119,-0.081,-8.8,19.9,35.3,257,627,0,,,,
R,,306449.0,-0.004,0.204,-0.129,-2.6,17.9,39.9,274,623,0,,,,
R,,306507.0,-0.047,0.213,-0.15,9.2,10.7,37.6,269,631,0,,,,
R,,306568.0,-0.134,0.305,0.163,8.6,0.9,20.6,184,678,0,,,,
R,,306627.0,-0.104,0.186,0.061,7.8,15.8,-16.7,569,693,0,,,,
R,,306688.0,0.013,0.212,0.001,3.7,-5.5,-17.2,681,794,0,,,,
R,,306748.0,-0.012,0.136,-0.041,6.4,-0.4,-12.3,709,824,0,,,,
R,,306808.0,0.028,0.122,-0.021,3.3,-3.9,-8.6,724,844,0,,,,
R,,306868.0,0.01,0.122,-0.027,2.2,0.0,-5.8,747,867,0,,,,
R,,306927.0,0.01,0.124,-0.013,1.4,-2.3,-3.7,749,882,0,,,,
R,,306987.0,0.007,0.092,-0.039,0.3,-3.1,-3.6,735,887,0,,,,
R,,307047.0,0.012,0.122,-0.022,0.9,-1.8,-3.9,714,889,0,,,,
R,,307108.0,0.011,0.122,-0.03,1.1,-0.8,-5.3,651,895,0,,,,
R,,307169.0,0.0,0.127,-0.029,1.3,-1.7,-5.1,397,907,0,,,,
R,,307228.0,0.001,0.136,-0.035,0.0,-3.3,-7.7,244,908,0,,,,
R,,307288.0,-0.009,0.15,-0.031,-2.5,-6.6,-10.6,203,911,0,,,,
R,,307347.0,0.038,0.187,-0.012,-5.5,-5.8,-17.2,149,903,0,,,,
R,,307408.0,0.12,0.224,-0.027,-9.2,-20.9,-24.4,174,902,0,,,,
R,,307467.0,-0.018,0.196,-0.096,-9.0,7.7,-24.9,193,832,0,,,,
R,,307528.0,-0.104,0.073,-0.027,-1.8,7.6,-10.0,185,701,0,,,,
R,,307587.0,0.027,0.003,-0.039,-8.5,1.8,14.4,239,689,0,,,,
R,,307648.0,0.018,0.062,-0.046,-9.9,15.4,25.6,259,675,0,,,,
R,,307708.0,0.025,0.105,-0.087,-6.3,18.5,36.2,295,662,0,,,,
R,,307768.0,-0.003,0.166,-0.118,2.1,8.8,46.0,277,644,0,,,,
R,,307830.0,-0.096,0.265,-0.097,14.2,-1.7,43.9,259,633,0,,,,
R,,307887.0,-0.14,0.21,-0.023,8.3,2.9,17.7,164,684,0,,,,
R,,307948.0,0.189,0.061,0.176,6.3,3.7,-7.0,643,758,0,,,,
R,,308007.0,0.059,0.14,0.027,7.8,-0.8,-12.1,690,807,0,,,,
R,,308068.0,0.023,0.126,-0.062,2.7,0.5,-9.5,703,820,0,,,,
R,,308127.0,0.053,0.116,-0.029,2.2,-1.7,-9.0,706,824,0,,,,
R,,308188.0,0.042,0.116,-0.031,-1.2,-1.3,-9.3,712,837,0,,,,
R,,308248.0,0.033,0.119,-0.022,-0.7,-1.1,-9.4,726,874,0,,,,
R,,308308.0,0.01,0.118,-0.02,-0.5,-2.8,-7.6,661,891,0,,,,
R,,308368.0,-0.001,0.123,-0.023,0.0,-1.8,-8.0,459,904,0,,,,
R,,308427.0,-0.002,0.126,-0.024,0.0,-0.5,-6.9,214,909,0,,,,
R,,308488.0,0.005,0.134,-0.021,0.0,-1.3,-7.2,242,910,0,,,,
R,,308590.0,0.003,0.17,-0.026,-5.0,-5.2,-13.6,171,907,0,,,,
R,,308608.0,0.018,0.175,-0.022,-5.4,-5.3,-14.9,161,903,0,,,,
R,,308667.0,0.075,0.238,-0.027,-9.5,-12.0,-22.2,158,903,0,,,,
R,,308728.0,-0.003,0.199,-0.057,-8.9,2.5,-27.9,187,884,0,,,,
R,,308788.0,-0.004,0.06,-0.047,-3.0,8.8,-13.6,108,649,0,,,,
R,,308848.0,0.011,0.013,-0.02,-1.2,1.2,10.0,201,675,0,,,,
R,,308908.0,0.033,0.042,-0.019,-1.1,10.4,22.6,190,664,0,,,,
R,,308967.0,0.016,0.083,-0.03,0.8,15.6,31.9,255,659,0,,,,
R,,309028.0,-0.017,0.145,-0.057,2.6,6.3,43.6,243,668,0,,,,
R,,309087.0,-0.037,0.247,-0.053,5.6,-14.7,47.3,194,618,0,,,,
R,,309148.0,-0.114,0.247,0.057,2.2,4.4,26.8,172,575,0,,,,
R,,309208.0,-0.132,0.13,-0.112,-1.6,23.5,-17.7,577,708,0,,,,
R,,309269.0,-0.065,0.183,0.0,5.6,12.4,-15.0,679,791,0,,,,
R,,309328.0,0.046,0.122,-0.072,6.4,3.3,-12.5,711,828,0,,,,
R,,309388.0,0.045,0.132,-0.015,0.2,-4.7,-7.4,741,862,0,,,,
R,,309448.0,0.034,0.115,-0.053,-0.1,-0.2,-9.1,740,864,0,,,,
R,,309507.0,0.036,0.119,-0.012,-1.9,-1.6,-9.3,748,869,0,,,,
R,,309568.0,0.018,0.119,-0.031,-1.0,-1.9,-8.4,747,882,0,,,,
R,,309627.0,0.009,0.121,-0.024,-0.5,-1.9,-7.6,726,891,0,,,,
R,,309688.0,-0.002,0.127,-0.025,0.4,-1.5,-6.1,661,900,0,,,,
R,,309748.0,0.007,0.135,-0.033,0.0,-1.3,-8.2,279,907,0,,,,
R,,309808.0,-0.002,0.154,-0.041,-2.8,-4.8,-11.9,246,905,0,,,,
R,,309868.0,0.025,0.181,-0.016,-4.9,-4.7,-16.4,166,908,0,,,,
R,,309929.0,0.042,0.266,-0.001,-12.3,-23.6,-20.0,147,901,0,,,,
R,,309988.0,-0.007,0.153,-0.097,-9.0,9.4,-29.1,169,865,0,,,,
R,,310047.0,-0.06,-0.012,-0.023,-1.8,4.6,-8.4,197,645,0,,,,
R,,310108.0,0.059,0.027,0.013,-3.0,2.8,11.0,218,672,0,,,,
R,,310167.0,0.025,0.044,-0.013,-4.9,18.4,23.8,254,681,0,,,,
R,,310228.0,-0.071,0.131,-0.082,-3.1,19.4,35.6,246,681,0,,,,
R,,310288.0,-0.003,0.144,-0.059,0.0,19.8,38.8,247,681,0,,,,
R,,310348.0,-0.065,0.239,-0.132,7.6,5.8,42.4,216,645,0,,,,
R,,310408.0,-0.123,0.267,0.053,6.0,-9.2,26.3,193,648,0,,,,
R,,310468.0,0.265,0.118,0.02,4.0,15.3,-22.3,633,747,0,,,,
R,,310528.0,0.021,0.117,0.019,0.3,-6.2,-17.3,684,794,0,,,,
R,,310587.0,0.008,0.185,-0.014,1.1,4.0,-13.1,708,824,0,,,,
R,,310649.0,0.042,0.127,-0.01,0.7,-4.4,-8.5,716,831,0,,,,
R,,310708.0,0.026,0.115,-0.041,0.1,-0.9,-6.2,718,833,0,,,,
R,,310768.0,0.023,0.122,-0.022,0.0,-1.7,-4.6,732,853,0,,,,
R,,310828.0,0.015,0.121,-0.029,-0.4,-3.4,-3.7,735,873,0,,,,
R,,310888.0,0.014,0.124,-0.024,0.0,-2.8,-4.8,717,884,0,,,,
R,,310948.0,0.006,0.127,-0.029,0.4,-2.4,-5.6,638,898,0,,,,
R,,311008.0,0.014,0.133,-0.029,-0.2,-3.0,-8.5,312,906,0,,,,
R,,311068.0,0.0,0.159,-0.03,-3.1,-5.6,-12.6,189,904,0,,,,
R,,311127.0,0.045,0.196,-0.013,-7.3,-7.2,-20.0,134,904,0,,,,
R,,311187.0,0.129,0.246,-0.071,-8.2,-18.9,-26.6,142,904,0,,,,
R,,311248.0,0.015,0.221,-0.068,-7.9,5.0,-29.0,181,841,0,,,,
R,,311308.0,-0.119,0.063,-0.033,0.1,1.5,-5.9,233,676,0,,,,
R,,311370.0,0.049,0.008,-0.01,-6.3,6.0,13.6,225,654,0,,,,
R,,311428.0,0.033,0.054,-0.023,-6.0,12.0,26.6,246,632,0,,,,
R,,311488.0,0.019,0.102,-0.041,-4.3,17.3,35.8,276,601,0,,,,
R,,311547.0,0.024,0.202,-0.044,-0.9,11.9,44.6,190,604,0,,,,
R,,311608.0,-0.06,0.271,-0.089,4.3,19.3,37.4,189,563,0,,,,
R,,311667.0,-0.206,0.219,-0.058,6.7,9.5,13.4,220,607,0,,,,
R,,311728.0,0.301,0.135,0.049,4.5,12.8,-17.3,633,747,0,,,,
R,,311788.0,-0.004,0.102,-0.002,6.1,-0.7,-18.2,674,790,0,,,,
R,,311848.0,0.012,0.108,-0.059,6.0,0.2,-8.4,689,809,0,,,,
R,,311908.0,0.037,0.124,-0.016,3.6,-1.2,-8.8,729,850,0,,,,
R,,311968.0,0.003,0.13,0.0,0.8,0.8,-6.3,745,874,0,,,,
R,,312030.0,0.008,0.124,-0.011,0.7,-0.5,-4.2,744,883,0,,,,
R,,312087.0,0.017,0.124,-0.016,0.4,-0.8,-3.5,737,890,0,,,,
R,,312148.0,0.007,0.128,-0.008,-0.1,-0.6,-3.9,716,892,0,,,,
R,,312208.0,0.009,0.127,-0.02,-1.3,-0.3,-5.4,640,897,0,,,,
R,,312268.0,0.018,0.142,-0.017,-2.8,-0.8,-8.0,258,908,0,,,,
R,,312328.0,0.008,0.159,-0.017,-5.4,-3.1,-12.4,171,903,0,,,,
R,,312388.0,0.037,0.195,-0.006,-7.7,-0.4,-18.9,104,897,0,,,,
R,,312448.0,0.099,0.205,-0.026,-13.0,-16.2,-23.8,152,896,0,,,,
R,,312508.0,0.036,0.207,-0.051,-6.2,7.8,-29.8,206,852,0,,,,
R,,312568.0,-0.02,0.084,0.009,-6.1,8.3,-5.2,241,799,0,,,,
R,,312627.0,0.032,0.03,-0.025,-4.6,16.4,11.0,249,777,0,,,,
R,,312688.0,0.02,0.061,-0.056,-6.1,22.4,24.4,243,768,0,,,,
R,,312750.0,0.026,0.105,-0.088,-5.3,19.9,36.3,230,719,0,,,,
R,,312808.0,0.017,0.192,-0.109,1.0,9.4,47.1,237,681,0,,,,
R,,312868.0,-0.073,0.265,-0.136,10.3,7.8,43.3,209,634,0,,,,
R,,312928.0,-0.193,0.207,-0.083,15.4,25.4,11.6,165,715,0,,,,
R,,312988.0,0.084,0.255,-0.008,8.4,18.4,-27.9,569,731,0,,,,
R,,313048.0,-0.098,0.219,-0.009,8.4,9.1,-16.9,688,803,0,,,,
R,,313108.0,-0.015,0.149,-0.099,7.8,-4.6,-11.1,700,815,0,,,,
R,,313167.0,0.031,0.126,-0.015,1.6,-2.3,-8.4,731,851,0,,,,
R,,313228.0,0.01,0.124,-0.022,2.3,0.6,-6.2,749,870,0,,,,
R,,313288.0,0.006,0.124,-0.004,1.9,-1.7,-4.0,747,884,0,,,,
R,,313348.0,0.009,0.12,-0.031,1.6,-2.4,-3.0,736,890,0,,,,
R,,313410.0,0.006,0.122,-0.022,1.5,-0.3,-4.2,727,893,0,,,,
R,,313468.0,0.007,0.126,-0.026,1.3,-0.8,-5.7,681,899,0,,,,
R,,313528.0,0.011,0.134,-0.017,-0.5,-2.0,-7.9,265,906,0,,,,
R,,313588.0,0.0,0.156,-0.039,-2.9,-6.5,-11.7,220,908,0,,,,
R,,313648.0,0.049,0.197,0.005,-6.0,-7.2,-19.6,178,906,0,,,,
R,,313708.0,0.123,0.239,-0.064,-7.5,-18.9,-27.4,152,904,0,,,,
R,,313768.0,0.036,0.191,-0.057,-5.9,3.5,-28.4,200,853,0,,,,
R,,313828.0,-0.107,0.039,0.012,-0.2,0.4,-4.6,191,756,0,,,,
R,,313917.0,0.035,0.042,-0.014,-5.5,6.7,24.4,207,683,0,,,,
R,,313978.0,0.013,0.086,-0.03,-4.1,17.4,29.8,244,677,0,,,,
R,,314038.0,0.029,0.145,-0.064,-0.2,17.4,38.9,258,684,0,,,,
R,,314098.0,0.008,0.258,-0.094,3.2,11.6,44.4,205,663,0,,,,
R,,314160.0,-0.128,0.257,-0.045,4.5,-7.3,36.7,171,677,0,,,,
R,,314218.0,-0.189,0.176,0.01,2.4,9.9,-3.4,160,724,0,,,,
R,,314278.0,0.115,0.09,0.103,10.3,-10.1,-13.0,648,764,0,,,,
R,,314338.0,0.059,0.114,-0.01,7.7,0.3,-18.7,692,805,0,,,,
R,,314398.0,0.017,0.087,-0.034,3.0,-1.6,-10.9,706,825,0,,,,
R,,314458.0,0.037,0.125,-0.006,2.1,-1.0,-7.2,728,846,0,,,,
R,,314518.0,0.013,0.122,-0.032,1.2,-0.9,-5.7,740,859,0,,,,
R,,314578.0,0.012,0.121,-0.017,1.4,-2.1,-4.0,747,872,0,,,,
R,,314638.0,0.013,0.119,-0.032,0.4,-3.6,-3.3,747,879,0,,,,
R,,314698.0,0.011,0.123,-0.023,0.8,-1.7,-4.6,745,883,0,,,,
R,,314758.0,0.009,0.124,-0.037,1.0,-1.2,-5.7,709,890,0,,,,
R,,314848.0,0.005,0.151,-0.024,-0.3,-3.5,-11.4,218,909,0,,,,
R,,314910.0,0.006,0.184,-0.036,-4.3,-9.1,-13.7,156,907,0,,,,
R,,314968.0,0.098,0.235,-0.019,-6.4,-10.3,-23.1,163,904,0,,,,
R,,315028.0,0.033,0.208,-0.032,-8.3,-3.4,-29.4,182,883,0,,,,
R,,315088.0,0.021,-0.049,-0.065,-4.4,7.6,-13.1,117,652,0,,,,
R,,315148.0,0.003,0.003,-0.034,-3.7,-3.9,8.8,204,712,0,,,,
R,,315208.0,0.037,0.04,-0.011,-2.6,4.8,22.2,230,656,0,,,,
R,,315268.0,0.018,0.084,-0.021,-1.9,13.0,32.6,231,641,0,,,,
R,,315328.0,0.039,0.142,-0.046,1.4,15.3,42.0,276,647,0,,,,
R,,315387.0,-0.02,0.308,-0.087,5.6,11.0,46.7,216,607,0,,,,
R,,315448.0,-0.23,0.288,-0.046,6.0,-1.6,30.2,173,630,0,,,,
R,,315508.0,0.003,0.284,-0.089,-2.8,4.4,-25.6,504,676,0,,,,
R,,315570.0,-0.03,0.197,-0.025,5.8,9.7,-21.5,677,789,0,,,,
R,,315628.0,-0.035,0.167,-0.032,3.4,2.6,-13.5,699,819,0,,,,
R,,315688.0,0.035,0.118,-0.002,2.1,-3.1,-9.1,739,864,0,,,,
R,,315748.0,0.006,0.111,-0.028,2.4,0.5,-5.5,748,879,0,,,,
R,,315808.0,0.014,0.123,-0.016,0.7,-2.2,-3.7,743,885,0,,,,
R,,315868.0,0.014,0.123,-0.028,0.3,-2.3,-3.4,725,891,0,,,,
R,,315928.0,0.006,0.123,-0.025,-0.1,-1.3,-4.6,712,893,0,,,,
R,,316018.0,0.001,0.127,-0.028,0.0,-1.2,-6.0,593,902,0,,,,
R,,316078.0,0.003,0.144,-0.027,-0.5,-2.4,-9.6,239,909,0,,,,
R,,316138.0,-0.001,0.153,-0.029,-3.5,-5.4,-12.8,203,908,0,,,,
R,,316199.0,0.037,0.183,-0.009,-5.0,-2.9,-20.3,213,906,0,,,,
R,,316258.0,0.118,0.223,-0.058,-8.1,-19.6,-25.7,145,901,0,,,,
R,,316320.0,0.064,0.194,-0.038,-5.8,-0.4,-26.5,161,830,0,,,,
R,,316378.0,-0.114,0.043,-0.017,2.0,-1.3,-3.7,228,719,0,,,,
R,,316438.0,0.03,0.0,-0.02,-1.4,0.7,18.2,199,675,0,,,,
R,,316499.0,0.03,0.076,-0.013,-0.5,14.9,26.9,246,675,0,,,,
R,,316558.0,0.029,0.117,-0.031,0.1,15.7,37.3,239,667,0,,,,
R,,316618.0,0.016,0.209,-0.049,0.7,8.0,46.3,216,653,0,,,,
R,,316708.0,-0.182,0.259,-0.065,6.4,6.9,27.4,178,616,0,,,,
R,,316768.0,-0.177,0.26,-0.064,7.6,13.0,-17.4,320,646,0,,,,
R,,316828.0,0.044,0.223,0.026,1.9,8.6,-21.2,669,782,0,,,,
R,,316888.0,0.022,0.099,-0.036,8.4,-1.8,-13.4,685,803,0,,,,
R,,316948.0,0.017,0.123,-0.037,2.7,2.9,-8.4,706,824,0,,,,
R,,317038.0,0.028,0.11,-0.02,2.2,0.0,-6.4,739,858,0,,,,
R,,317100.0,0.018,0.122,-0.012,1.1,-3.2,-4.2,748,871,0,,,,
R,,317158.0,0.017,0.123,-0.027,0.8,-1.9,-4.2,754,877,0,,,,
R,,317249.0,0.009,0.125,-0.026,1.0,-0.6,-5.6,756,887,0,,,,
R,,317308.0,0.005,0.129,-0.024,0.0,-1.6,-6.7,723,895,0,,,,
R,,317368.0,0.008,0.135,-0.03,-0.6,-2.8,-11.9,425,908,0,,,,
R,,317428.0,0.002,0.179,-0.028,-3.2,-8.4,-14.3,267,908,0,,,,
R,,317488.0,0.067,0.232,-0.015,-7.1,-9.1,-23.7,176,905,0,,,,
R,,317548.0,0.009,0.172,-0.016,-5.7,-8.0,-28.7,185,883,0,,,,
R,,317608.0,-0.02,0.08,-0.035,-4.8,5.5,-18.8,162,726,0,,,,
R,,317668.0,0.008,0.038,0.008,-4.1,-4.0,5.8,269,708,0,,,,
R,,317728.0,-0.011,0.025,0.01,-4.2,4.5,19.1,311,671,0,,,,
R,,317790.0,0.001,0.056,0.001,-5.8,15.3,28.6,267,625,0,,,,
R,,317848.0,0.001,0.171,-0.008,-5.2,46.0,27.1,242,595,0,,,,
R,,317908.0,0.011,0.246,-0.144,-9.0,67.6,19.3,284,611,0,,,,
R,,317968.0,-0.069,0.134,-0.22,1.2,49.4,5.7,330,595,0,,,,
R,,318028.0,-0.061,0.134,-0.123,5.1,1.5,3.1,385,651,0,,,,
R,,318088.0,0.052,0.106,0.04,2.8,-4.7,-2.5,591,757,0,,,,
R,,318148.0,-0.004,0.134,0.001,3.3,0.4,-0.1,687,831,0,,,,
R,,318208.0,0.028,0.122,-0.01,2.8,0.7,-0.2,717,849,0,,,,
R,,318268.0,0.009,0.126,-0.011,2.9,1.3,0.0,731,857,0,,,,
R,,318329.0,0.017,0.125,-0.011,2.7,0.1,0.3,740,863,0,,,,
R,,318388.0,0.011,0.118,-0.018,2.2,2.4,-1.4,747,865,0,,,,
R,,318448.0,0.014,0.123,-0.019,1.4,2.2,-1.4,751,872,0,,,,
R,,318509.0,0.012,0.125,-0.016,1.2,2.1,-0.9,756,878,0,,,,
R,,318568.0,0.009,0.123,-0.019,1.1,1.4,-0.2,756,877,0,,,,
R,,318628.0,0.014,0.123,-0.02,0.6,0.7,0.0,760,883,0,,,,
R,,318688.0,0.01,0.126,-0.026,0.0,1.3,-1.0,757,884,0,,,,
R,,318749.0,0.007,0.125,-0.021,-0.9,0.1,-1.1,755,884,0,,,,
R,,318838.0,0.007,0.123,-0.017,-1.1,-1.1,-0.7,755,882,0,,,,
R,,318898.0,0.008,0.123,-0.016,-1.1,-1.0,-0.7,755,884,0,,,,
R,,318958.0,0.007,0.124,-0.014,-1.2,-1.0,-0.3,756,885,0,,,,
R,,319048.0,0.007,0.124,-0.013,-1.0,-0.7,-0.4,754,885,0,,,,
R,,319108.0,0.007,0.124,-0.011,-1.3,-0.8,-0.8,752,886,0,,,,
R,,319168.0,0.003,0.124,-0.01,-1.5,-0.9,-0.9,744,884,0,,,,
R,,319228.0,0.006,0.125,-0.009,-1.4,-1.0,-1.5,739,882,0,,,,
R,,319290.0,0.007,0.128,-0.008,-1.6,-1.6,-3.2,722,878,0,,,,
R,,319348.0,0.015,0.137,-0.014,-2.3,-1.0,-3.8,611,873,0,,,,
R,,319438.0,0.002,0.131,-0.003,-3.1,2.5,-6.9,519,782,0,,,,
R,,319499.0,0.024,0.105,0.011,-1.9,7.3,-4.5,497,728,0,,,,
R,,319588.0,0.024,0.105,-0.006,2.5,24.4,3.3,529,738,0,,,,
R,,319678.0,0.005,0.123,-0.041,1.8,24.3,5.3,526,739,0,,,,
R,,319738.0,-0.211,0.173,-0.113,1.9,10.6,-1.9,616,758,0,,,,
R,,319798.0,-0.039,0.126,-0.005,-0.4,-4.2,0.1,611,760,0,,,,
R,,319858.0,0.005,0.128,-0.011,1.2,-3.0,1.0,651,799,0,,,,
R,,319918.0,0.009,0.124,-0.011,0.5,-2.8,0.9,676,827,0,,,,
R,,319978.0,0.0,0.122,-0.02,0.7,0.5,0.0,689,836,0,,,,
R,,320040.0,0.006,0.125,-0.011,0.5,-0.1,0.0,702,842,0,,,,
R,,320098.0,0.007,0.125,-0.015,0.7,-0.4,-0.5,717,849,0,,,,
R,,320159.0,0.011,0.122,-0.021,0.7,-0.2,-0.7,721,853,0,,,,
R,,320218.0,0.004,0.123,-0.015,0.3,-0.1,-0.1,724,858,0,,,,
R,,320278.0,0.0,0.123,-0.016,0.3,0.3,-0.2,729,866,0,,,,
R,,320338.0,0.004,0.125,-0.015,0.4,-0.1,0.0,735,870,0,,,,
R,,320398.0,0.003,0.124,-0.021,0.4,-0.2,-0.1,738,873,0,,,,
R,,320458.0,0.004,0.123,-0.019,0.4,-0.5,0.0,738,877,0,,,,
R,,320518.0,0.005,0.124,-0.019,0.3,-0.4,-0.2,743,882,0,,,,
R,,320579.0,0.019,0.126,-0.032,0.0,0.5,0.2,740,882,0,,,,
R,,320638.0,0.002,0.133,-0.008,-0.2,-3.2,-1.3,680,860,0,,,,
R,,320698.0,0.012,0.143,-0.014,-2.0,-19.7,-0.5,466,754,0,,,,
R,,320760.0,0.04,0.11,0.027,-4.6,-18.9,-1.0,451,704,0,,,,
R,,320818.0,0.054,0.115,0.043,-5.2,-14.2,2.5,467,716,0,,,,
R,,320878.0,0.036,0.115,0.029,-3.8,-4.8,7.9,476,727,0,,,,
R,,320938.0,0.027,0.119,0.008,-1.9,2.5,9.1,461,723,0,,,,
R,,320999.0,-0.013,0.129,-0.016,-2.1,4.0,9.9,426,724,0,,,,
R,,321058.0,-0.024,0.124,-0.043,-1.1,-4.7,6.8,381,717,0,,,,
R,,321119.0,-0.05,0.116,-0.049,0.6,-8.2,1.1,349,719,0,,,,
R,,321178.0,0.025,0.137,-0.142,8.6,3.0,-7.7,682,809,0,,,,
R,,321238.0,0.001,0.106,-0.028,4.5,-1.8,-4.6,730,854,0,,,,
R,,321298.0,0.018,0.119,-0.02,4.9,1.0,-1.7,745,867,0,,,,
R,,321358.0,0.014,0.123,-0.019,3.9,-1.1,-2.2,752,874,0,,,,
R,,321419.0,0.024,0.127,-0.014,3.3,-0.8,-3.0,760,878,0,,,,
R,,321478.0,0.009,0.124,-0.024,1.5,-1.1,-2.1,763,882,0,,,,
R,,321539.0,0.004,0.121,-0.024,1.7,0.0,-1.9,768,883,0,,,,
R,,321598.0,0.004,0.121,-0.02,1.3,-0.9,-0.8,770,886,0,,,,
R,,321659.0,0.009,0.122,-0.028,1.1,-0.5,-2.1,770,887,0,,,,
R,,321718.0,0.006,0.123,-0.028,0.4,-0.7,-3.6,772,894,0,,,,
R,,321778.0,0.0,0.123,-0.03,-0.1,-1.1,-4.5,759,894,0,,,,
R,,321869.0,-0.01,0.122,-0.026,-1.1,-2.5,-4.9,659,899,0,,,,
R,,321928.0,-0.017,0.125,-0.028,-1.5,-3.0,-4.8,268,915,0,,,,
R,,321989.0,-0.012,0.139,-0.02,-2.6,-4.0,-6.1,191,909,0,,,,
R,,322048.0,0.001,0.162,-0.028,-4.4,-1.5,-9.0,163,905,0,,,,
R,,322108.0,0.027,0.192,-0.011,-6.5,-6.5,-15.0,178,902,0,,,,
R,,322169.0,0.05,0.18,-0.035,-6.6,-13.0,-20.4,153,893,0,,,,
R,,322228.0,-0.003,0.106,-0.049,-3.6,3.0,-18.7,185,795,0,,,,
R,,322318.0,0.003,0.043,0.0,0.3,-2.1,4.7,196,718,0,,,,
R,,322378.0,-0.005,0.043,0.0,0.4,9.9,13.9,217,711,0,,,,
R,,322438.0,-0.015,0.092,-0.015,1.0,14.2,23.1,207,720,0,,,,
R,,322499.0,-0.008,0.147,-0.025,0.2,9.8,27.7,196,671,0,,,,
R,,322558.0,-0.024,0.173,-0.037,0.4,3.8,30.3,188,684,0,,,,
R,,322648.0,0.001,0.18,-0.022,4.7,3.3,26.6,230,699,0,,,,
R,,322708.0,-0.01,0.156,-0.021,3.9,7.1,17.3,219,711,0,,,,
R,,322768.0,-0.088,0.141,-0.03,3.2,-0.1,2.3,216,715,0,,,,
R,,322829.0,0.078,0.069,-0.068,-1.3,5.3,-19.0,593,712,0,,,,
R,,322888.0,-0.053,0.182,-0.013,2.5,4.1,-19.0,685,797,0,,,,
R,,322950.0,-0.021,0.122,-0.046,3.3,-1.0,-12.7,738,859,0,,,,
R,,323008.0,0.029,0.113,-0.007,2.4,-4.0,-10.5,754,875,0,,,,
R,,323068.0,0.007,0.121,-0.022,1.8,0.3,-7.1,754,885,0,,,,
R,,323128.0,0.005,0.123,-0.024,0.6,-1.1,-4.2,751,889,0,,,,
R,,323188.0,0.003,0.122,-0.036,0.4,-1.6,-2.7,732,894,0,,,,
R,,323249.0,0.006,0.123,-0.032,0.4,-1.6,-3.2,717,895,0,,,,
R,,323308.0,0.0,0.122,-0.027,0.3,-1.5,-4.8,654,900,0,,,,
R,,323369.0,-0.003,0.125,-0.033,0.5,-1.7,-4.9,462,903,0,,,,
R,,323428.0,-0.004,0.141,-0.03,-0.7,-3.5,-6.1,208,910,0,,,,
R,,323489.0,-0.009,0.154,-0.033,-2.8,-6.8,-9.6,233,905,0,,,,
R,,323548.0,0.019,0.168,-0.012,-3.3,-4.4,-14.1,223,906,0,,,,
R,,323610.0,0.055,0.214,-0.028,-8.0,-19.6,-19.1,203,904,0,,,,
R,,323668.0,-0.013,0.189,-0.064,-5.8,-3.9,-24.5,211,882,0,,,,
R,,323728.0,0.017,0.035,-0.024,-4.5,-0.1,-9.3,134,638,0,,,,
R,,323789.0,0.014,0.028,0.007,-0.3,-2.9,8.8,213,701,0,,,,
R,,323848.0,0.031,0.043,-0.007,2.6,13.0,18.9,203,691,0,,,,
R,,323909.0,0.003,0.098,-0.021,2.5,18.2,29.4,228,693,0,,,,
R,,323968.0,0.025,0.158,-0.035,0.4,16.9,36.1,233,688,0,,,,
R,,324029.0,-0.011,0.229,-0.078,-2.5,8.1,41.2,212,674,0,,,,
R,,324088.0,-0.122,0.256,-0.059,6.2,-5.2,34.2,208,673,0,,,,
R,,324148.0,-0.178,0.254,0.008,5.3,9.4,0.0,347,664,0,,,,
R,,324208.0,0.003,0.248,0.076,4.3,4.6,-23.4,666,781,0,,,,
R,,324268.0,-0.034,0.136,-0.075,8.3,3.1,-14.2,702,816,0,,,,
R,,324330.0,0.006,0.132,-0.045,0.8,-4.6,-9.4,746,868,0,,,,
R,,324388.0,0.03,0.115,-0.024,1.3,-1.2,-5.3,754,877,0,,,,
R,,324449.0,0.018,0.121,-0.034,0.3,-2.9,-5.4,744,887,0,,,,
R,,324508.0,0.013,0.123,-0.035,0.2,-3.0,-5.4,666,892,0,,,,
R,,324569.0,0.005,0.121,-0.024,-0.2,-2.5,-5.4,395,902,0,,,,
R,,324628.0,0.002,0.125,-0.026,-0.1,-2.1,-5.1,298,905,0,,,,
R,,324688.0,0.0,0.13,-0.02,-0.3,-2.3,-4.1,251,904,0,,,,
R,,324749.0,0.0,0.136,-0.028,-0.5,-1.6,-7.0,245,906,0,,,,
R,,324808.0,0.0,0.153,-0.035,-2.5,-3.6,-11.7,197,904,0,,,,
R,,324869.0,0.038,0.178,-0.025,-3.9,-4.4,-18.0,161,905,0,,,,
R,,324928.0,0.075,0.207,-0.033,-4.8,-17.4,-23.0,146,901,0,,,,
R,,324989.0,-0.027,0.157,-0.068,-4.7,-3.3,-23.8,156,879,0,,,,
R,,325050.0,-0.066,0.014,-0.046,1.3,-8.9,-2.9,209,666,0,,,,
R,,325109.0,0.015,0.025,-0.005,-2.7,-0.2,13.0,230,625,0,,,,
R,,325168.0,0.024,0.068,0.007,0.0,11.1,22.8,216,603,0,,,,
R,,325228.0,0.005,0.111,-0.014,0.2,17.2,31.3,261,604,0,,,,
R,,325289.0,-0.024,0.187,-0.057,-0.2,13.5,34.9,198,612,0,,,,
R,,325348.0,-0.03,0.209,-0.072,-1.6,5.6,38.4,213,636,0,,,,
R,,325409.0,-0.126,0.213,-0.051,4.1,6.8,23.6,236,614,0,,,,
R,,325468.0,-0.193,0.181,-0.031,5.8,14.1,-13.8,576,694,0,,,,
R,,325529.0,-0.059,0.188,0.011,5.6,6.5,-18.3,682,791,0,,,,
R,,325588.0,-0.026,0.18,-0.025,5.0,-1.2,-9.4,711,827,0,,,,
R,,325649.0,0.027,0.122,-0.032,3.2,-1.9,-5.5,712,831,0,,,,
R,,325710.0,0.011,0.127,-0.01,2.1,0.3,-4.0,718,835,0,,,,
R,,325768.0,0.034,0.119,-0.015,0.6,-1.1,-2.8,726,841,0,,,,
R,,325829.0,0.025,0.116,-0.022,1.1,-1.4,-2.7,721,833,0,,,,
R,,325888.0,0.02,0.122,-0.016,1.1,-1.4,-3.9,741,858,0,,,,
R,,325949.0,0.021,0.125,-0.014,0.5,-1.8,-4.8,754,875,0,,,,
R,,326008.0,0.028,0.137,-0.024,-0.4,-2.4,-10.7,732,890,0,,,,
R,,326069.0,0.01,0.155,-0.018,-2.6,-5.5,-15.5,262,907,0,,,,
R,,326128.0,0.072,0.221,-0.018,-8.0,-7.2,-21.8,197,907,0,,,,
R,,326189.0,0.127,0.22,-0.039,-8.0,-10.8,-31.9,212,898,0,,,,
R,,326249.0,0.021,0.127,-0.015,-7.1,5.2,-24.5,222,805,0,,,,
R,,326308.0,-0.086,0.031,-0.034,-0.6,9.7,-3.0,212,702,0,,,,
R,,326368.0,0.002,0.004,-0.024,-5.7,10.0,14.3,239,695,0,,,,
R,,326430.0,-0.012,0.056,-0.033,-9.9,17.9,21.7,210,668,0,,,,
R,,326489.0,0.002,0.099,-0.038,-10.7,18.3,28.5,212,633,0,,,,
R,,326548.0,0.013,0.166,-0.067,-7.9,17.1,34.5,252,619,0,,,,
R,,326609.0,-0.019,0.214,-0.117,1.4,21.3,32.8,227,581,0,,,,
R,,326668.0,-0.177,0.251,-0.048,6.9,4.5,21.9,384,585,0,,,,
R,,326729.0,0.088,0.163,-0.1,0.4,12.4,-20.8,668,783,0,,,,
R,,326819.0,0.034,0.126,-0.022,5.5,2.4,-8.8,702,826,0,,,,
R,,326878.0,0.03,0.119,-0.014,4.4,-0.3,-5.6,736,861,0,,,,
R,,326939.0,0.023,0.127,-0.011,3.1,1.0,-7.3,752,879,0,,,,
R,,326999.0,0.005,0.133,-0.001,0.1,0.6,-5.8,755,887,0,,,,
R,,327058.0,0.005,0.123,-0.015,0.0,0.3,-4.0,745,892,0,,,,
R,,327119.0,0.019,0.129,-0.011,-0.4,-0.2,-3.7,730,893,0,,,,
R,,327180.0,0.008,0.133,-0.016,-2.0,-0.6,-4.6,663,898,0,716.0,184.0,827.0,717.0
R,,327239.0,-0.004,0.132,-0.009,-1.9,0.0,-5.4,426,903,0,,,,
R,,327298.0,-0.001,0.137,-0.005,-2.1,-1.1,-6.0,266,905,0,,,,
R,,327359.0,-0.007,0.132,-0.008,-3.1,1.2,-7.5,171,900,0,,,,
R,,327418.0,-0.006,0.132,-0.008,-4.2,1.4,-8.4,168,899,0,,,,
R,,327479.0,-0.005,0.146,-0.006,-6.1,0.3,-11.1,177,895,0,,,,
R,,327539.0,0.043,0.189,0.0,-9.0,0.7,-17.0,159,900,0,,,,
R,,327598.0,0.018,0.225,-0.019,-13.5,0.0,-21.0,179,896,0,,,,
R,,327659.0,-0.002,0.043,-0.011,-9.0,11.7,-13.5,132,759,0,,,,
R,,327718.0,-0.008,0.074,-0.016,-3.0,16.1,-0.1,204,783,0,,,,
R,,327779.0,-0.032,0.045,-0.03,-3.9,13.0,10.0,221,786,0,,,,
R,,327871.0,-0.006,0.09,-0.03,-4.8,12.4,25.1,222,759,0,,,,
R,,327928.0,-0.021,0.152,-0.044,-4.1,11.0,27.8,192,760,0,,,,
R,,328019.0,-0.027,0.171,-0.049,1.0,22.0,25.5,249,776,0,,,,
R,,328079.0,-0.015,0.164,-0.061,2.6,18.7,24.5,255,767,0,,,,
R,,328138.0,-0.008,0.164,-0.051,1.6,11.4,21.6,266,768,0,,,,
R,,328199.0,-0.088,0.139,-0.042,3.7,2.2,10.0,292,786,0,,,,
R,,328258.0,-0.109,0.107,-0.037,3.5,3.6,-13.2,623,758,0,,,,
R,,328319.0,-0.002,0.174,-0.004,8.6,4.4,-21.3,708,823,0,,,,
R,,328378.0,-0.003,0.122,0.027,4.1,-0.1,-12.1,720,850,0,,,,
R,,328439.0,0.033,0.123,-0.005,3.9,-1.9,-7.7,743,870,0,,,,
R,,328499.0,0.008,0.125,-0.011,2.1,-0.3,-3.7,752,877,0,,,,
R,,328559.0,0.014,0.125,-0.012,1.8,-0.4,-1.6,749,881,0,,,,
R,,328621.0,0.014,0.123,-0.018,1.3,-1.4,-0.7,744,882,0,,,,
R,,328678.0,0.021,0.122,-0.021,1.2,-0.9,-2.2,737,882,0,,,,
R,,328738.0,0.011,0.127,-0.02,1.4,-1.5,-3.8,709,890,0,,,,
R,,328798.0,0.006,0.127,-0.027,1.3,-2.3,-5.3,549,901,0,,,,
R,,328859.0,0.004,0.135,-0.011,0.7,-4.0,-7.5,229,906,0,,,,
R,,328918.0,0.002,0.133,-0.037,-0.7,-4.2,-8.1,269,905,0,,,,
R,,328979.0,0.0,0.137,-0.027,-3.2,-5.2,-9.9,248,903,0,,,,
R,,329039.0,0.015,0.157,-0.008,-4.4,-3.3,-14.6,208,907,0,,,,
R,,329098.0,0.075,0.194,-0.037,-5.7,-6.4,-22.1,207,905,0,,,,
R,,329159.0,0.025,0.222,-0.033,-6.8,1.5,-28.2,206,887,0,,,,
R,,329218.0,0.013,0.036,-0.045,-0.8,9.8,-16.4,232,664,0,,,,
R,,329280.0,-0.015,0.055,-0.028,-5.8,4.4,6.0,250,726,0,,,,
R,,329338.0,0.02,0.036,-0.009,-6.3,6.8,20.6,236,724,0,,,,
R,,329399.0,0.002,0.081,-0.028,-4.5,13.6,30.2,252,668,0,,,,
R,,329458.0,0.009,0.152,-0.049,-0.6,20.3,35.8,257,682,0,,,,
R,,329519.0,-0.005,0.196,-0.093,-1.0,13.1,39.0,210,694,0,,,,
R,,329579.0,-0.092,0.252,-0.079,1.8,-1.6,35.2,196,701,0,,,,
R,,329638.0,-0.143,0.275,-0.084,3.7,-1.2,8.2,252,693,0,,,,
R,,329699.0,0.206,0.151,0.055,3.3,1.4,-11.9,665,780,0,,,,
R,,329758.0,-0.029,0.126,-0.037,8.3,6.7,-16.9,705,823,0,,,,
R,,329819.0,0.018,0.135,-0.028,1.4,-6.0,-13.3,752,875,0,,,,
R,,329878.0,0.017,0.122,-0.024,2.3,0.4,-8.9,758,887,0,,,,
R,,329939.0,0.007,0.122,-0.019,0.5,-1.7,-5.4,748,891,0,,,,
R,,330000.0,0.011,0.125,-0.026,0.6,-2.4,-3.6,716,897,0,,,,
R,,330059.0,0.006,0.121,-0.028,-2.1,-2.8,-4.3,627,902,0,,,,
R,,330119.0,-0.002,0.123,-0.02,0.4,-1.8,-6.0,426,907,0,,,,
R,,330178.0,0.0,0.13,-0.025,-0.6,-2.3,-5.6,222,908,0,,,,
R,,330239.0,0.0,0.149,-0.028,-1.4,-4.3,-8.9,255,906,0,,,,
R,,330298.0,0.007,0.169,-0.033,-3.7,-5.3,-14.9,184,903,0,,,,
R,,330359.0,0.056,0.214,-0.001,-6.5,-8.4,-21.1,228,903,0,,,,
R,,330418.0,0.025,0.214,-0.029,-7.5,-9.6,-26.4,252,894,0,,,,
R,,330479.0,0.011,0.062,-0.048,-7.4,4.7,-15.9,111,690,0,,,,
R,,330539.0,0.025,0.031,-0.028,-7.1,-1.1,6.6,231,747,0,,,,
R,,330599.0,0.024,0.05,-0.002,-4.3,13.4,19.8,247,736,0,,,,
R,,330659.0,0.015,0.091,-0.038,-6.0,21.1,30.6,272,717,0,,,,
R,,330720.0,0.026,0.143,-0.085,-4.9,21.9,40.2,292,646,0,,,,
R,,330779.0,-0.023,0.254,-0.131,-2.0,17.3,44.4,252,623,0,,,,
R,,330838.0,-0.141,0.277,-0.079,5.8,4.3,35.7,236,627,0,,,,
R,,330899.0,-0.226,0.201,-0.054,6.4,13.3,-4.5,542,685,0,,,,
R,,330989.0,0.05,0.062,0.01,8.7,-1.1,-21.5,693,810,0,,,,
R,,331048.0,-0.008,0.142,-0.039,4.7,-5.4,-14.4,727,850,0,,,,
R,,331109.0,0.021,0.122,-0.019,3.1,0.0,-9.4,749,881,0,,,,
R,,331168.0,0.002,0.127,-0.019,0.7,-2.2,-6.1,740,895,0,,,,
R,,331229.0,0.002,0.125,-0.018,0.7,-1.1,-5.0,667,900,0,,,,
R,,331289.0,0.0,0.115,-0.029,0.0,-0.7,-4.0,489,905,0,,,,
R,,331349.0,0.001,0.124,-0.022,0.0,-1.1,-3.8,370,905,0,,,,
R,,331411.0,-0.005,0.128,-0.019,-0.3,-1.4,-4.6,294,907,0,,,,
R,,331468.0,0.004,0.142,-0.012,-0.7,-2.2,-6.6,279,906,0,,,,
R,,331529.0,0.001,0.146,-0.027,-2.3,-2.0,-10.9,223,906,0,,,,
R,,331588.0,0.01,0.161,-0.018,-3.7,-2.5,-14.2,227,903,0,,,,
R,,331649.0,0.068,0.2,-0.027,-6.8,-6.6,-20.7,230,904,0,,,,
R,,331708.0,0.0,0.207,-0.027,-7.1,-3.3,-27.5,205,894,0,,,,
R,,331769.0,0.017,0.075,-0.043,-4.3,8.3,-15.8,151,690,0,,,,
R,,331829.0,0.02,0.062,-0.024,-4.8,9.4,5.5,247,757,0,,,,
R,,331889.0,0.017,0.039,-0.031,-6.5,12.0,19.6,276,743,0,,,,
R,,331949.0,0.0,0.083,-0.032,-6.5,15.6,30.1,267,704,0,,,,
R,,332008.0,0.012,0.173,-0.02,-6.2,9.2,37.5,192,707,0,,,,
R,,332069.0,-0.032,0.202,-0.074,0.0,10.3,36.6,214,725,0,,,,
R,,332130.0,-0.042,0.196,-0.109,6.8,19.0,30.6,220,692,0,,,,
R,,332189.0,-0.06,0.162,0.008,10.1,10.2,16.3,222,704,0,,,,
R,,332249.0,-0.172,0.223,-0.001,10.9,20.7,-14.4,608,731,0,,,,
R,,332309.0,-0.006,0.17,0.004,6.9,-2.2,-17.1,690,810,0,,,,
R,,332369.0,0.0,0.18,0.007,4.6,-1.0,-11.1,711,836,0,,,,
R,,332429.0,0.038,0.133,-0.012,3.7,-1.4,-6.6,735,860,0,,,,
R,,332489.0,0.022,0.128,-0.022,2.5,0.4,-5.9,748,879,0,,,,
R,,332548.0,0.017,0.123,-0.009,0.9,-0.8,-4.6,742,888,0,,,,
R,,332609.0,0.025,0.123,-0.019,1.6,-0.8,-4.9,724,896,0,,,,
R,,332668.0,0.007,0.124,-0.017,0.5,-0.3,-5.5,696,899,0,,,,
R,,332729.0,0.003,0.129,-0.021,0.3,0.0,-6.1,648,902,0,,,,
R,,332789.0,-0.003,0.128,-0.002,-0.2,-1.0,-4.7,425,908,0,,,,
R,,332850.0,-0.003,0.134,-0.012,-1.2,-1.7,-6.6,217,911,0,,,,
R,,332909.0,-0.006,0.142,-0.027,-3.0,-2.9,-9.6,217,911,0,,,,
R,,332969.0,0.017,0.171,-0.006,-4.7,-3.8,-13.7,191,907,0,,,,
R,,333029.0,0.063,0.213,-0.013,-8.2,-2.8,-21.2,216,902,0,,,,
R,,333088.0,-0.01,0.198,-0.048,-10.2,-0.6,-29.3,214,894,0,,,,
R,,333149.0,0.017,-0.007,0.006,-8.7,11.0,-12.7,115,721,0,,,,
R,,333208.0,-0.006,0.035,-0.028,-1.2,5.3,5.6,256,781,0,,,,
R,,333269.0,0.021,0.043,-0.011,-2.9,14.4,17.1,272,767,0,,,,
R,,333329.0,-0.001,0.091,-0.015,-4.3,16.8,28.9,276,752,0,,,,
R,,333389.0,0.016,0.161,-0.026,-5.0,11.5,35.8,220,717,0,,,,
R,,333449.0,-0.004,0.212,-0.053,-4.2,6.0,35.6,225,714,0,,,,
R,,333510.0,-0.016,0.193,-0.066,1.2,5.8,32.2,248,727,0,,,,
R,,333569.0,-0.058,0.179,-0.031,4.9,3.2,22.0,247,728,0,,,,
R,,333628.0,-0.132,0.158,-0.034,6.5,9.1,-3.2,285,744,0,,,,
R,,333689.0,0.012,0.234,0.035,4.9,7.9,-21.4,678,793,0,,,,
R,,333749.0,0.059,0.06,0.016,9.3,0.6,-14.4,699,818,0,,,,
R,,333809.0,0.007,0.094,-0.033,5.1,-3.3,-10.5,724,846,0,,,,
R,,333869.0,0.019,0.131,-0.006,4.4,-0.2,-9.8,752,879,0,,,,
R,,333929.0,-0.002,0.124,-0.025,2.3,-1.2,-6.6,750,892,0,,,,
R,,333989.0,0.01,0.127,-0.02,2.1,-0.7,-4.6,724,899,0,,,,
R,,334049.0,0.007,0.121,-0.024,0.6,-2.1,-3.3,617,901,0,,,,
R,,334109.0,0.005,0.122,-0.026,0.7,-1.5,-3.6,473,906,0,,,,
R,,334168.0,0.001,0.126,-0.024,0.6,-1.4,-4.2,276,909,0,,,,
R,,334230.0,-0.003,0.129,-0.023,0.9,-1.6,-4.8,265,908,0,,,,
R,,334289.0,-0.001,0.143,-0.034,-0.4,-3.7,-7.8,272,908,0,,,,
R,,334349.0,0.0,0.156,-0.027,-3.3,-6.9,-11.3,220,906,0,,,,
R,,334409.0,0.031,0.191,-0.003,-5.5,-5.4,-17.3,221,905,0,,,,
R,,334469.0,0.101,0.203,-0.051,-5.2,-17.5,-24.3,191,900,0,,,,
R,,334529.0,0.033,0.188,-0.022,-6.5,0.5,-27.6,227,842,0,,,,
R,,334588.0,-0.022,0.093,-0.009,-1.3,-4.9,-7.4,180,746,0,,,,
R,,334649.0,0.014,0.019,0.001,-4.0,9.1,14.4,219,723,0,,,,
R,,334708.0,0.022,0.062,-0.008,-3.4,18.9,25.4,190,712,0,,,,
R,,334769.0,0.01,0.103,-0.027,-5.2,18.3,35.6,264,661,0,,,,
R,,334829.0,-0.056,0.209,-0.077,-6.9,9.7,37.4,219,665,0,,,,
R,,334889.0,-0.042,0.221,-0.079,-1.0,13.4,36.2,232,636,0,,,,
R,,334951.0,-0.169,0.218,-0.089,5.0,9.1,18.8,243,654,0,,,,
R,,335009.0,-0.101,0.302,-0.036,3.5,1.2,-12.3,498,636,0,,,,
R,,335069.0,0.029,0.178,0.007,5.7,6.8,-15.7,669,785,0,,,,
R,,335128.0,0.016,0.105,-0.042,7.9,1.3,-10.1,689,809,0,,,,
R,,335189.0,0.007,0.115,-0.03,4.1,-1.3,-8.1,727,849,0,,,,
R,,335249.0,0.022,0.129,-0.011,3.4,-2.1,-6.2,751,875,0,,,,
R,,335309.0,0.009,0.122,-0.022,1.5,-0.8,-4.0,761,885,0,,,,
R,,335369.0,0.016,0.122,-0.022,1.1,-1.9,-2.2,758,890,0,,,,
R,,335458.0,0.018,0.122,-0.02,0.8,-1.1,-3.7,760,894,0,,,,
R,,335519.0,0.015,0.121,-0.021,0.9,-1.5,-5.5,750,895,0,,,,
R,,335579.0,-0.002,0.13,-0.019,0.7,-1.9,-7.0,691,902,0,,,,
R,,335640.0,-0.002,0.139,-0.026,-0.4,-2.9,-9.2,276,911,0,,,,
R,,335699.0,-0.008,0.161,-0.029,-2.9,-7.7,-10.9,253,911,0,,,,
R,,335759.0,0.047,0.205,0.0,-5.6,-5.1,-18.3,255,906,0,,,,
R,,335819.0,0.107,0.199,-0.045,-7.1,-15.7,-22.8,238,904,0,,,,
R,,335879.0,0.021,0.165,-0.044,-5.5,3.0,-26.4,247,832,0,,,,
R,,335939.0,-0.095,0.078,-0.021,2.1,-1.1,-9.4,168,748,0,,,,
R,,335999.0,0.014,0.022,-0.02,-5.0,4.8,14.4,205,734,0,,,,
R,,336058.0,0.04,0.059,-0.008,-3.0,16.9,24.8,208,702,0,,,,
R,,336119.0,0.006,0.11,-0.039,-5.0,17.4,34.5,259,692,0,,,,
R,,336179.0,-0.007,0.198,-0.09,-3.6,11.8,39.2,239,674,0,,,,
R,,336239.0,-0.024,0.224,-0.095,0.3,4.0,41.5,245,663,0,,,,
R,,336299.0,-0.134,0.217,-0.02,4.8,-2.9,23.2,237,681,0,,,,
R,,336361.0,-0.149,0.192,-0.059,6.4,12.3,-21.5,218,673,0,,,,
R,,336418.0,0.062,0.198,0.083,1.5,14.0,-18.9,662,780,0,,,,
R,,336479.0,0.018,0.097,-0.035,10.5,3.8,-12.7,692,811,0,,,,
R,,336539.0,0.012,0.113,-0.031,3.9,-2.3,-9.1,724,848,0,,,,
R,,336629.0,0.017,0.122,-0.022,2.5,-0.1,-5.5,750,877,0,,,,
R,,336689.0,0.014,0.121,-0.016,2.1,-1.6,-3.3,756,887,0,,,,
R,,336749.0,0.012,0.121,-0.027,0.9,-2.8,-2.6,758,890,0,,,,
R,,336809.0,0.012,0.124,-0.02,0.7,-0.9,-3.1,760,893,0,,,,
R,,336869.0,0.013,0.123,-0.024,0.8,-0.8,-4.7,759,895,0,,,,
R,,336958.0,0.009,0.127,-0.027,0.7,-1.0,-6.6,703,901,0,,,,
R,,337019.0,-0.002,0.137,-0.032,-1.2,-3.2,-8.7,283,912,0,,,,
R,,337081.0,-0.001,0.16,-0.023,-3.2,-6.1,-9.5,304,907,0,,,,
R,,337139.0,0.019,0.179,-0.012,-4.0,-2.2,-14.5,243,907,0,,,,
R,,337199.0,0.07,0.204,-0.032,-6.0,-10.9,-20.9,253,905,0,,,,
R,,337259.0,-0.027,0.163,-0.044,-6.2,-1.3,-23.9,240,883,0,,,,
R,,337319.0,0.007,0.009,-0.035,-5.3,6.6,-12.3,158,687,0,,,,
R,,337379.0,0.001,0.022,-0.009,-3.9,3.3,7.9,213,745,0,,,,
R,,337439.0,0.024,0.05,-0.021,-4.3,13.2,18.9,204,716,0,,,,
R,,337499.0,-0.012,0.1,-0.037,-5.3,16.5,29.0,238,707,0,,,,
R,,337559.0,0.023,0.155,-0.046,-4.6,13.4,36.4,250,701,0,,,,
R,,337619.0,-0.019,0.208,-0.079,-1.8,7.5,40.2,259,674,0,,,,
R,,337679.0,-0.082,0.242,-0.055,6.8,4.4,32.7,262,657,0,,,,
R,,337739.0,-0.161,0.161,-0.071,5.9,10.6,6.3,246,705,0,,,,
R,,337800.0,0.175,0.109,0.04,6.2,9.7,-12.3,625,742,0,,,,
R,,337859.0,-0.003,0.16,0.045,4.0,-1.3,-15.7,687,802,0,,,,
R,,337919.0,0.017,0.131,-0.026,1.6,-5.6,-8.3,726,851,0,,,,
R,,337979.0,0.04,0.127,-0.012,3.1,-2.4,-6.9,742,867,0,,,,
R,,338039.0,0.024,0.12,-0.038,2.1,0.5,-6.5,749,877,0,,,,
R,,338099.0,0.017,0.124,-0.013,1.8,0.8,-5.1,748,878,0,,,,
R,,338159.0,0.014,0.122,-0.024,1.4,0.3,-4.3,754,886,0,,,,
R,,338219.0,0.014,0.125,-0.02,0.5,-0.2,-3.2,759,893,0,,,,
R,,338279.0,0.008,0.123,-0.02,-0.2,-0.3,-3.2,754,894,0,,,,
R,,338339.0,0.009,0.124,-0.023,-0.7,-1.1,-3.1,740,900,0,,,,
R,,338399.0,0.006,0.123,-0.022,-1.8,-1.7,-3.9,698,898,0,,,,
R,,338459.0,-0.003,0.126,-0.017,-2.9,-1.8,-4.5,538,903,0,,,,
R,,338521.0,0.001,0.142,-0.024,-3.9,-2.6,-5.0,270,910,0,,,,
R,,338579.0,-0.002,0.143,-0.005,-3.9,-1.6,-6.5,223,904,0,,,,
R,,338639.0,0.0,0.137,-0.007,-3.8,-3.5,-7.5,202,897,0,,,,
R,,338698.0,-0.004,0.136,-0.005,-5.2,-7.9,-9.6,239,891,0,,,,
R,,338759.0,-0.009,0.138,-0.021,-3.0,-8.0,-11.9,243,882,0,,,,
R,,338819.0,-0.029,0.134,-0.037,-2.9,-6.1,-14.3,245,866,0,,,,
R,,338879.0,-0.063,0.087,0.0,-1.7,-9.5,-6.7,238,786,0,,,,
R,,338939.0,0.024,0.057,0.004,1.7,-3.2,6.1,248,769,0,,,,
R,,339000.0,0.006,0.075,0.028,6.1,7.0,13.4,280,783,0,,,,
R,,339059.0,-0.014,0.129,0.004,6.0,6.7,17.9,254,791,0,,,,
R,,339119.0,-0.012,0.158,0.018,6.6,2.5,21.0,274,793,0,,,,
R,,339180.0,-0.022,0.17,0.007,6.5,4.2,17.5,278,803,0,,,,
R,,339239.0,-0.007,0.156,0.017,5.2,8.9,12.4,287,799,0,,,,
R,,339329.0,-0.003,0.136,-0.009,1.7,8.7,7.7,276,787,0,,,,
R,,339389.0,0.0,0.127,-0.019,0.6,2.1,3.8,297,784,0,,,,
R,,339449.0,0.015,0.116,-0.012,0.7,-0.8,-0.1,319,783,0,,,,
R,,339509.0,0.008,0.13,-0.006,0.9,-2.0,-1.9,417,738,0,,,,
R,,339569.0,0.066,0.133,-0.012,1.6,-1.5,-3.6,641,768,0,,,,
R,,339629.0,0.028,0.121,-0.009,3.7,2.6,-6.9,693,812,0,,,,
R,,339689.0,0.017,0.122,-0.018,2.8,0.6,-4.3,712,828,0,,,,
R,,339750.0,0.034,0.122,-0.01,2.7,-1.8,-1.5,721,837,0,,,,
R,,339809.0,0.036,0.116,-0.027,4.4,0.0,-1.7,729,844,0,,,,
R,,339869.0,0.034,0.117,-0.029,3.2,-1.3,-3.3,730,847,0,,,,
R,,339930.0,0.018,0.118,-0.035,2.8,0.0,-6.1,756,873,0,,,,
R,,339989.0,0.016,0.121,-0.03,1.1,-1.4,-5.0,767,888,0,,,,
R,,340049.0,0.013,0.118,-0.032,1.1,-0.5,-4.7,767,890,0,,,,
R,,340109.0,0.007,0.122,-0.034,0.6,-1.1,-2.9,769,897,0,,,,
R,,340169.0,0.019,0.12,-0.036,1.3,-1.0,-3.5,754,900,0,,,,
R,,340229.0,0.003,0.123,-0.043,1.1,-2.3,-2.9,656,905,0,,,,
R,,340290.0,0.001,0.125,-0.041,1.1,-2.9,-3.6,285,913,0,,,,
R,,340349.0,-0.007,0.126,-0.034,0.5,-4.5,-2.6,314,912,0,,,,
R,,340409.0,-0.01,0.117,-0.042,-0.4,-3.3,-0.1,289,909,0,,,,
R,,340469.0,-0.01,0.112,-0.036,0.0,-2.3,-0.8,266,909,0,,,,
R,,340529.0,-0.013,0.125,-0.037,0.1,-1.8,-0.1,268,907,0,,,,
R,,340589.0,-0.015,0.113,-0.035,-0.1,-1.3,-0.5,267,908,0,,,,
R,,340651.0,-0.015,0.115,-0.044,-0.1,-2.0,-0.1,242,909,0,,,,
R,,340709.0,-0.013,0.119,-0.039,0.0,-2.4,0.0,255,909,0,,,,
R,,340769.0,-0.012,0.122,-0.037,-0.3,-1.1,-0.8,254,912,0,,,,
R,,340830.0,-0.014,0.118,-0.031,-0.7,-1.5,-0.7,260,907,0,,,,
R,,340889.0,-0.02,0.116,-0.033,-1.0,-2.1,-0.8,257,907,0,,,,
R,,340949.0,-0.007,0.118,-0.038,-0.9,-0.8,-0.7,239,909,0,,,,
R,,341009.0,-0.017,0.112,-0.034,-0.5,-0.7,-1.3,223,909,0,,,,
R,,341068.0,-0.015,0.124,-0.034,-0.2,-1.3,-2.2,225,909,0,,,,
R,,341129.0,-0.019,0.127,-0.027,-0.9,-2.1,-3.0,218,904,0,,,,
R,,341189.0,-0.035,0.12,-0.031,-0.7,-4.1,-1.6,229,902,0,,,,
R,,341250.0,-0.023,0.132,-0.024,-1.1,-4.7,-1.4,225,901,0,,,,
R,,341311.0,-0.015,0.122,-0.021,-0.4,-3.6,-3.6,236,904,0,,,,
R,,341370.0,-0.028,0.121,-0.029,0.0,-3.5,-5.7,228,899,0,,,,
R,,341429.0,-0.029,0.131,-0.022,0.1,-4.3,-6.1,235,899,0,,,,
R,,341489.0,-0.041,0.127,-0.024,0.2,-4.9,-7.2,253,896,0,,,,
R,,341548.0,-0.045,0.131,-0.038,-0.9,-4.5,-7.4,226,876,0,,,,
R,,341609.0,-0.064,0.107,-0.027,0.2,-5.4,-7.3,204,776,0,,,,
R,,341669.0,-0.075,0.07,-0.033,1.5,-8.0,-3.5,172,584,0,,,,
R,,341729.0,-0.05,0.076,-0.002,-1.8,-10.6,3.0,190,642,0,,,,
R,,341790.0,-0.053,0.084,0.007,-0.3,-1.0,3.0,196,655,0,,,,
R,,341849.0,-0.065,0.086,0.003,1.1,4.8,4.3,198,672,0,,,,
R,,341909.0,-0.061,0.094,-0.004,-0.2,5.5,5.3,232,678,0,,,,
R,,341969.0,-0.04,0.094,-0.008,-1.4,2.6,7.2,246,695,0,,,,
R,,342031.0,-0.039,0.11,-0.002,-1.3,2.6,7.9,244,695,0,,,,
R,,342089.0,-0.03,0.125,-0.005,-0.4,5.5,9.5,236,704,0,,,,
R,,342149.0,-0.033,0.125,-0.015,-0.6,5.7,8.7,248,712,0,,,,
R,,342209.0,-0.003,0.12,-0.023,0.7,2.0,12.3,259,715,0,,,,
R,,342299.0,0.007,0.125,-0.015,0.1,-3.1,17.2,263,685,0,,,,
R,,342359.0,-0.157,0.166,0.062,-9.6,-5.4,15.0,573,694,0,,,,
R,,342419.0,0.086,0.101,0.005,3.6,3.3,-2.0,680,793,0,,,,
R,,342479.0,0.006,0.131,-0.018,1.8,0.8,0.4,691,801,0,,,,
R,,342540.0,0.039,0.112,-0.011,2.6,-1.8,0.6,696,806,0,,,,
R,,342599.0,0.035,0.116,-0.017,1.4,-3.1,-0.3,697,808,0,,,,
R,,342660.0,0.039,0.118,-0.025,1.8,-2.7,-2.9,700,809,0,,,,
R,,342719.0,0.052,0.111,-0.039,2.1,-1.6,-8.5,700,811,0,,,,
R,,342781.0,-0.013,0.125,-0.036,0.1,-2.0,-9.0,753,879,0,,,,
R,,342839.0,-0.041,0.139,-0.039,0.7,-1.6,-10.8,389,907,0,,,,
R,,342899.0,0.002,0.135,-0.03,1.4,-2.8,-7.0,313,905,0,,,,
R,,342959.0,-0.018,0.122,-0.032,1.1,-3.5,-5.4,289,907,0,,,,
R,,343019.0,-0.033,0.09,-0.034,0.9,-1.1,-3.2,225,906,0,,,,
R,,343080.0,-0.031,0.094,-0.035,0.3,-0.5,-0.8,227,907,0,,,,
R,,343139.0,-0.027,0.119,-0.017,0.3,-0.7,0.3,236,909,0,,,,
R,,343229.0,-0.022,0.116,-0.031,1.0,-0.7,-0.8,246,911,0,,,,
R,,343290.0,-0.027,0.118,-0.034,0.4,-0.7,-0.2,250,907,0,,,,
R,,343349.0,-0.019,0.115,-0.047,-0.2,0.4,0.7,235,908,0,,,,
R,,343410.0,-0.023,0.12,-0.038,-0.6,1.0,0.7,217,908,0,,,,
R,,343471.0,-0.019,0.123,-0.033,0.6,-0.6,1.5,212,908,0,,,,
R,,343529.0,-0.016,0.118,-0.038,1.6,-2.2,2.1,209,904,0,,,,
R,,343589.0,-0.018,0.114,-0.04,1.5,-3.5,1.8,216,908,0,,,,
R,,343649.0,-0.023,0.105,-0.055,1.7,-2.8,2.2,233,909,0,,,,
R,,343709.0,-0.019,0.112,-0.039,1.4,-2.3,2.6,223,907,0,,,,
R,,343769.0,-0.015,0.121,-0.034,0.9,-2.9,3.1,216,909,0,,,,
R,,343830.0,-0.014,0.118,-0.054,0.8,-4.5,2.6,251,905,0,,,,
R,,343889.0,-0.001,0.109,-0.041,1.1,-4.7,1.7,248,907,0,,,,
R,,343950.0,-0.009,0.115,-0.039,0.6,-3.8,1.8,246,904,0,,,,
R,,344009.0,-0.019,0.117,-0.041,0.5,-3.2,1.6,248,905,0,,,,
R,,344099.0,-0.01,0.118,-0.045,0.8,-5.1,1.9,258,903,0,,,,
R,,344160.0,-0.014,0.114,-0.054,0.4,-3.5,0.4,253,902,0,,,,
R,,344221.0,-0.013,0.124,-0.043,0.0,-2.4,0.0,234,898,0,,,,
R,,344279.0,-0.015,0.119,-0.047,-0.3,-2.4,-1.6,251,894,0,,,,
R,,344339.0,-0.018,0.116,-0.045,-0.8,-2.8,-0.4,240,891,0,,,,
R,,344399.0,-0.015,0.116,-0.025,-0.3,-3.3,0.4,253,891,0,,,,
R,,344459.0,-0.005,0.115,-0.029,0.2,-3.4,0.3,254,885,0,,,,
R,,344519.0,-0.018,0.119,-0.039,0.2,-6.5,1.7,254,873,0,,,,
R,,344580.0,-0.011,0.119,-0.065,1.5,-7.8,-0.9,242,855,0,,,,
R,,344639.0,-0.034,0.113,-0.02,0.0,-5.1,0.1,246,850,0,,,,
R,,344700.0,-0.033,0.11,-0.057,-0.3,-1.1,1.1,228,814,0,,,,
R,,344759.0,-0.032,0.116,-0.059,0.0,-6.2,0.6,222,793,0,,,,
R,,344819.0,-0.002,0.133,-0.038,-2.2,-3.4,-1.8,200,740,0,,,,
R,,344880.0,-0.032,0.122,-0.032,-2.3,-3.4,-0.9,256,527,0,,,,
R,,344939.0,-0.045,0.112,-0.023,-1.7,-9.3,-0.2,254,424,0,,,,
R,,345000.0,-0.028,0.105,-0.027,-1.1,-10.2,1.0,256,465,0,,,,
R,,345059.0,-0.023,0.102,-0.027,-3.9,-22.2,4.4,221,462,0,,,,
R,,345120.0,-0.018,0.118,0.0,-2.9,-18.9,5.0,223,537,0,,,,
R,,345179.0,-0.014,0.123,0.006,-0.2,-12.3,7.2,248,551,0,,,,
R,,345240.0,-0.011,0.128,-0.005,1.3,-9.4,6.4,250,569,0,,,,
R,,345299.0,-0.061,0.152,-0.005,3.2,-9.0,0.8,187,651,0,,,,
R,,345359.0,0.032,0.13,0.003,3.0,-8.1,-2.3,192,818,0,,,,
R,,345419.0,0.016,0.134,0.034,0.4,-0.4,-3.8,139,872,0,,,,
R,,345479.0,-0.043,0.103,-0.02,1.1,0.9,-3.5,130,873,0,,,,
R,,345540.0,-0.04,0.107,-0.005,0.4,0.0,-1.4,145,879,0,,,,
R,,345601.0,-0.034,0.114,-0.004,0.9,-0.6,-0.8,158,891,0,,,,
R,,345660.0,-0.022,0.126,-0.013,0.4,0.0,-0.1,177,894,0,,,,
R,,345719.0,-0.016,0.127,0.0,0.2,-1.0,-0.4,189,897,0,,,,
R,,345780.0,-0.024,0.122,-0.011,0.7,0.4,-1.2,201,898,0,,,,
R,,345839.0,-0.033,0.116,-0.009,0.9,-0.3,-1.1,195,900,0,,,,
R,,345899.0,-0.029,0.115,-0.013,0.5,1.1,-0.7,193,895,0,,,,
R,,345959.0,-0.026,0.122,-0.008,0.1,0.7,-0.2,187,897,0,,,,
R,,346019.0,-0.022,0.128,-0.008,-0.1,0.4,0.0,176,899,0,,,,
R,,346109.0,-0.028,0.121,-0.01,0.5,-0.6,-0.4,193,902,0,,,,
R,,346169.0,-0.027,0.121,-0.006,0.7,-0.5,-0.3,191,902,0,,,,
R,,346229.0,-0.035,0.115,-0.012,0.7,-0.3,0.1,201,903,0,,,,
R,,346320.0,-0.026,0.121,-0.013,0.3,-0.5,0.6,211,904,0,,,,
R,,346381.0,-0.024,0.126,-0.01,0.1,-0.6,0.6,194,902,0,,,,
R,,346439.0,-0.025,0.123,-0.015,0.2,-0.7,0.9,205,901,0,,,,
R,,346500.0,-0.027,0.121,-0.01,0.5,-1.7,1.6,185,900,0,,,,
R,,346558.0,-0.023,0.123,-0.006,0.8,-3.2,2.1,178,896,0,,,,
R,,346620.0,-0.027,0.122,-0.004,1.2,-2.0,2.2,201,880,0,,,,
R,,346679.0,-0.039,0.112,-0.004,1.6,-6.0,3.7,202,822,0,,,,
R,,346740.0,-0.013,0.112,-0.01,2.3,-8.1,3.1,172,650,0,,,,
R,,346799.0,0.023,0.111,0.019,-3.3,-13.7,7.5,207,567,0,,,,
R,,346860.0,0.041,0.132,0.009,-4.5,-15.1,10.3,213,566,0,,,,
R,,346919.0,0.017,0.146,0.008,-3.6,-15.0,11.9,200,582,0,,,,
R,,346979.0,0.049,0.123,0.006,-1.1,-6.3,7.6,164,586,0,,,,
R,,347041.0,0.052,0.103,0.004,-1.1,-3.8,12.9,173,605,0,,,,
R,,347099.0,0.001,0.117,-0.027,-2.1,-10.1,9.3,188,589,0,,,,
R,,347160.0,-0.072,0.005,-0.041,-0.7,-7.6,-3.2,486,630,0,,,,
R,,347219.0,0.019,0.304,-0.026,3.1,2.6,-7.0,680,792,0,,,,
R,,347280.0,-0.024,0.155,-0.031,6.1,0.6,-3.9,691,803,0,,,,
R,,347339.0,0.043,0.116,-0.02,3.0,-2.9,0.0,695,805,0,,,,
R,,347400.0,0.039,0.115,-0.027,1.2,-1.7,0.0,696,804,0,,,,
R,,347459.0,0.036,0.117,-0.019,0.8,-1.4,-0.8,702,811,0,,,,
R,,347519.0,0.032,0.118,-0.021,0.4,-0.9,-2.1,702,812,0,,,,
R,,347579.0,0.031,0.119,-0.025,0.1,-0.5,-2.1,703,814,0,,,,
R,,347639.0,0.023,0.121,-0.011,0.4,-1.2,-2.0,699,809,0,,,,
R,,347700.0,0.016,0.124,-0.023,0.9,-1.1,-2.8,702,810,0,,,,
R,,347761.0,0.02,0.126,-0.015,0.4,-3.1,-6.5,700,809,0,,,,
R,,347820.0,0.128,0.179,-0.011,-0.7,-6.3,-14.2,621,756,0,,,,
R,,347879.0,0.062,0.158,-0.033,-0.5,-9.8,-7.6,490,687,0,,,,
R,,347939.0,0.048,0.086,-0.027,-2.6,-9.8,3.5,514,688,0,,,,
R,,348000.0,0.013,0.073,-0.029,1.4,-4.5,12.5,524,692,0,,,,
R,,348059.0,-0.036,0.097,-0.019,3.5,-0.7,15.0,534,703,0,,,,
R,,348120.0,-0.058,0.088,0.0,0.7,-1.3,11.3,537,706,0,,,,
R,,348179.0,-0.109,0.25,-0.169,-1.0,-4.8,-1.8,675,793,0,,,,
R,,348240.0,0.019,0.152,-0.025,1.8,-3.3,-4.5,692,804,0,,,,
R,,348299.0,0.016,0.118,-0.028,-0.1,-2.2,-2.4,698,809,0,,,,
R,,348360.0,0.019,0.117,-0.03,0.0,1.1,-0.7,702,810,0,,,,
R,,348419.0,0.015,0.121,-0.023,-0.7,0.3,0.0,707,815,0,,,,
R,,348481.0,0.02,0.12,-0.025,0.0,-1.0,-0.2,710,817,0,,,,
R,,348540.0,0.028,0.121,-0.028,0.1,0.0,-1.5,709,816,0,,,,
R,,348599.0,0.009,0.124,-0.02,0.1,-1.1,-3.1,708,816,0,,,,
R,,348660.0,0.006,0.12,-0.032,0.5,-1.1,-4.3,709,816,0,,,,
R,,348719.0,0.004,0.127,-0.012,-0.4,-3.6,-3.2,709,817,0,,,,
R,,348780.0,0.066,0.164,-0.032,-2.1,-6.0,-7.2,671,790,0,,,,
R,,348839.0,0.003,0.176,-0.036,-2.4,-8.5,-8.1,545,715,0,,,,
R,,348900.0,0.0,0.127,-0.023,-3.0,-9.8,-7.4,555,713,0,,,,
R,,348990.0,0.0,0.102,-0.01,-1.6,-6.3,-2.4,558,711,0,,,,
R,,349049.0,0.0,0.1,-0.009,-0.4,-2.5,-0.2,562,715,0,,,,
R,,349110.0,-0.001,0.108,-0.018,0.7,0.6,2.5,569,718,0,,,,
R,,349171.0,-0.002,0.105,-0.027,0.8,3.4,5.1,573,718,0,,,,
R,,349230.0,0.004,0.097,-0.038,2.0,4.5,8.1,576,722,0,,,,
R,,349290.0,0.01,0.087,-0.04,3.4,2.0,12.9,576,723,0,,,,
R,,349349.0,0.011,0.081,-0.01,4.2,0.2,17.4,578,726,0,,,,
R,,349410.0,0.011,0.111,0.034,2.9,2.4,22.2,566,724,0,,,,
R,,349469.0,0.112,-0.035,0.08,3.5,3.2,-17.5,698,808,0,,,,
R,,349530.0,-0.007,0.16,-0.014,0.9,-1.1,-7.3,695,810,0,,,,
R,,349589.0,0.029,0.119,-0.025,0.8,-0.5,-2.0,701,815,0,,,,
R,,349650.0,0.018,0.115,-0.034,-0.4,-0.6,0.0,704,816,0,,,,
R,,349709.0,0.027,0.104,-0.024,1.7,-0.3,0.6,724,837,0,,,,
R,,349770.0,0.009,0.122,-0.032,-0.3,-0.3,-0.2,727,841,0,,,,
R,,349830.0,0.014,0.123,-0.024,-0.2,-0.1,-1.2,726,838,0,,,,
R,,349891.0,0.016,0.12,-0.021,-0.5,-0.9,-1.4,715,827,0,,,,
R,,349949.0,0.006,0.125,-0.021,-0.3,-0.6,-2.4,713,822,0,,,,
R,,350009.0,0.013,0.122,-0.028,-1.4,-3.5,-2.9,709,819,0,,,,
R,,350070.0,0.092,0.151,-0.03,-2.4,-6.4,-10.7,679,799,0,,,,
R,,350129.0,0.077,0.134,-0.016,-3.0,-9.7,-7.6,493,704,0,,,,
R,,350190.0,0.018,0.113,-0.023,-3.7,-11.7,1.6,514,699,0,,,,
R,,350250.0,0.012,0.1,0.006,0.1,-4.5,7.1,525,704,0,,,,
R,,350309.0,-0.001,0.129,0.013,1.6,2.0,7.2,532,706,0,,,,
R,,350400.0,-0.009,0.131,0.005,-1.8,3.0,6.1,542,710,0,,,,
R,,350459.0,-0.003,0.135,0.01,-1.6,4.1,4.1,543,717,0,,,,
R,,350520.0,-0.007,0.128,0.0,-2.2,3.3,2.7,543,717,0,,,,
R,,350580.0,-0.001,0.121,0.005,-2.6,0.6,2.0,543,718,0,,,,
R,,350641.0,0.011,0.108,0.0,-1.8,1.6,1.7,548,720,0,,,,
R,,350700.0,0.014,0.102,-0.02,-0.3,-0.6,2.3,554,719,0,,,,
R,,350759.0,0.026,0.074,-0.015,0.8,-5.3,5.6,550,715,0,,,,
R,,350820.0,0.075,0.034,0.054,0.4,-3.6,13.9,551,717,0,,,,
R,,350879.0,0.133,0.124,0.138,11.9,3.2,-10.5,693,805,0,,,,
R,,350969.0,0.013,0.116,-0.04,3.0,-2.6,-5.2,705,812,0,,,,
R,,351030.0,0.034,0.115,-0.017,1.3,1.3,-1.9,709,820,0,,,,
R,,351089.0,0.013,0.126,-0.024,1.6,0.6,-0.2,713,823,0,,,,
R,,351150.0,0.011,0.125,-0.019,1.3,1.5,-0.1,709,817,0,,,,
R,,351209.0,0.024,0.118,-0.017,1.4,-0.1,-0.3,709,817,0,,,,
R,,351270.0,0.03,0.116,-0.022,0.8,-1.0,-0.3,711,820,0,,,,
R,,351332.0,0.026,0.119,-0.025,0.7,-0.6,-0.5,712,821,0,,,,
R,,351389.0,0.022,0.117,-0.023,0.3,-0.5,-0.6,714,822,0,,,,
R,,351450.0,0.019,0.119,-0.026,0.2,-0.9,0.1,712,822,0,,,,
R,,351509.0,0.025,0.12,-0.028,-0.2,-1.2,0.0,715,821,0,,,,
R,,351570.0,0.022,0.12,-0.027,-0.4,-1.2,-0.7,713,822,0,,,,
R,,351629.0,0.016,0.122,-0.027,-0.6,-0.2,-1.7,713,820,0,,,,
R,,351690.0,0.011,0.124,-0.022,-0.8,-0.3,-2.5,709,816,0,,,,
R,,351750.0,0.014,0.121,-0.022,-1.2,-0.4,-2.4,710,817,0,,,,
R,,351810.0,0.005,0.136,-0.014,-1.8,-2.2,-1.5,708,816,0,,,,
R,,351870.0,0.016,0.118,-0.02,-3.5,-4.0,-2.7,679,797,0,,,,
R,,351929.0,0.072,0.145,0.024,-3.1,-3.1,-4.7,479,698,0,,,,
R,,351990.0,0.011,0.134,-0.014,-2.3,-4.3,-4.8,503,691,0,,,,
R,,352051.0,0.01,0.124,-0.014,-1.1,-1.9,-4.1,514,696,0,,,,
R,,352110.0,0.006,0.108,-0.003,-0.6,-0.5,-1.8,517,698,0,,,,
R,,352169.0,0.0,0.112,-0.009,0.1,-1.3,0.9,525,702,0,,,,
R,,352230.0,0.0,0.12,-0.009,0.1,-3.7,3.1,530,704,0,,,,
R,,352290.0,-0.001,0.127,-0.004,0.0,-3.9,2.8,533,707,0,,,,
R,,352350.0,-0.001,0.12,-0.001,0.0,-1.6,2.5,531,704,0,,,,
R,,352410.0,0.004,0.119,0.002,-0.2,0.0,2.5,531,706,0,,,,
R,,352469.0,0.006,0.12,-0.003,0.0,1.9,3.0,535,708,0,,,,
R,,352530.0,0.008,0.117,-0.007,0.3,1.1,3.3,539,707,0,,,,
R,,352589.0,0.035,0.097,-0.002,1.1,0.2,4.9,544,711,0,,,,
R,,352650.0,0.041,0.094,0.008,1.1,0.9,10.3,547,715,0,,,,
R,,352711.0,0.009,0.118,0.0,0.2,3.1,12.5,540,714,0,,,,
R,,352770.0,-0.054,0.261,-0.171,6.8,4.2,-4.7,660,774,0,,,,
R,,352830.0,0.042,0.094,0.007,4.3,-2.2,-6.9,699,812,0,,,,
R,,352890.0,-0.024,0.144,-0.031,4.1,-3.5,-7.8,705,815,0,,,,
R,,352950.0,0.004,0.125,-0.031,1.7,0.2,-5.1,710,822,0,,,,
R,,353009.0,0.003,0.125,-0.023,1.1,0.0,-1.6,710,821,0,,,,
R,,353070.0,0.01,0.122,-0.022,1.1,-0.4,0.3,714,823,0,,,,
R,,353129.0,0.021,0.119,-0.03,1.0,-1.1,0.7,715,821,0,,,,
R,,353190.0,0.023,0.12,-0.025,0.5,-1.9,0.1,716,825,0,,,,
R,,353250.0,0.022,0.12,-0.027,0.5,-1.2,-0.5,715,825,0,,,,
R,,353310.0,0.016,0.121,-0.027,0.5,-0.9,-0.8,719,825,0,,,,
R,,353370.0,0.019,0.12,-0.03,0.6,-1.2,-1.5,722,828,0,,,,
R,,353431.0,0.015,0.119,-0.026,0.6,-1.1,-2.7,724,830,0,,,,
R,,353490.0,0.0,0.124,-0.029,0.7,-1.6,-3.7,715,823,0,,,,
R,,353549.0,0.0,0.125,-0.03,0.1,-3.5,-3.2,716,822,0,,,,
R,,353609.0,0.042,0.144,-0.033,-0.6,-5.4,-5.9,703,815,0,,,,
R,,353669.0,0.005,0.177,-0.03,-3.4,-12.1,-9.6,376,714,0,,,,
R,,353730.0,0.054,0.145,-0.016,-3.5,-14.6,-8.9,432,707,0,,,,
R,,353790.0,0.032,0.086,0.007,-4.6,-13.8,0.1,475,693,0,,,,
R,,353850.0,0.026,0.094,0.032,-1.2,0.8,5.9,495,703,0,,,,
R,,353910.0,0.012,0.112,0.028,-1.0,17.6,8.6,506,709,0,,,,
R,,353969.0,0.0,0.144,-0.007,-4.4,25.9,9.0,498,708,0,,,,
R,,354030.0,-0.003,0.151,-0.03,-6.2,32.0,4.6,498,704,0,,,,
R,,354089.0,0.013,0.125,-0.055,-2.5,37.9,0.7,480,674,0,,,,
R,,354151.0,-0.011,0.121,-0.072,1.3,32.6,-1.9,401,669,0,,,,
R,,354209.0,-0.002,0.106,-0.058,1.2,19.7,-3.0,421,667,0,,,,
R,,354270.0,0.019,0.092,-0.043,0.9,10.1,1.1,408,653,0,,,,
R,,354330.0,-0.021,0.104,-0.216,8.7,4.4,-0.5,546,762,0,,,,
R,,354419.0,-0.002,0.118,-0.006,6.3,1.4,-1.2,700,835,0,,,,
R,,354480.0,-0.001,0.118,-0.029,4.0,1.5,-0.1,713,847,0,,,,
R,,354540.0,0.003,0.118,-0.034,3.5,4.9,-0.6,735,859,0,,,,
R,,354600.0,0.004,0.127,-0.015,1.1,3.0,0.9,749,870,0,,,,
R,,354660.0,0.0,0.121,-0.02,0.6,3.1,2.0,754,868,0,,,,
R,,354720.0,0.006,0.125,-0.019,0.6,1.5,2.3,747,862,0,,,,
R,,354780.0,0.019,0.121,-0.022,0.6,0.3,1.5,740,855,0,,,,
R,,354841.0,0.028,0.119,-0.029,1.1,0.3,0.0,744,857,0,,,,
R,,354900.0,0.018,0.12,-0.031,0.7,0.7,-0.5,750,862,0,,,,
R,,354959.0,0.008,0.126,-0.024,0.5,1.3,-0.1,753,865,0,,,,
R,,355020.0,0.009,0.123,-0.024,0.4,1.3,-0.5,754,867,0,,,,
R,,355080.0,0.01,0.125,-0.026,0.2,1.5,-0.1,753,863,0,,,,
R,,355140.0,0.011,0.121,-0.025,-0.1,1.3,0.2,753,862,0,,,,
R,,355200.0,0.025,0.113,-0.019,-0.4,1.3,-0.7,753,862,0,,,,
R,,355260.0,0.015,0.119,-0.027,-0.8,1.9,-1.1,746,856,0,,,,
R,,355320.0,0.016,0.122,-0.023,-1.7,1.1,-0.5,739,849,0,,,,
R,,355379.0,0.008,0.121,-0.019,-2.2,-0.4,0.0,735,848,0,,,,
R,,355440.0,0.017,0.123,-0.019,-2.6,-1.3,0.1,739,851,0,,,,
R,,355500.0,0.015,0.123,-0.013,-2.6,-1.6,-0.1,740,851,0,,,,
R,,355561.0,0.013,0.123,-0.014,-2.1,-0.4,-1.1,736,851,0,,,,
R,,355650.0,0.013,0.124,-0.007,-2.5,-0.8,-1.2,730,850,0,,,,
R,,355740.0,0.009,0.124,-0.003,-2.4,-0.8,-0.9,725,849,0,,,,
R,,355800.0,0.013,0.123,-0.002,-2.2,-0.9,-0.5,712,842,0,,,,
R,,355860.0,0.007,0.124,0.0,-1.9,-0.8,-0.3,693,836,0,,,,
R,,355919.0,0.01,0.124,0.0,-1.6,-0.5,-0.3,675,830,0,,,,
R,,355979.0,0.008,0.125,0.005,-1.6,-1.1,0.2,659,826,0,,,,
R,,356040.0,0.007,0.126,0.006,-1.3,-0.5,0.1,640,815,0,,,,
R,,356100.0,0.013,0.124,0.005,-1.1,-0.8,0.3,629,813,0,,,,
R,,356160.0,0.012,0.125,0.007,-0.9,-0.8,0.0,611,809,0,,,,
R,,356220.0,0.015,0.125,0.006,-0.9,-0.8,-0.6,574,809,0,,,,
R,,356280.0,0.007,0.125,0.011,-0.6,0.0,-1.0,558,794,0,,,,
R,,356372.0,0.006,0.123,0.011,-0.4,0.0,-0.4,556,786,0,,,,
R,,356430.0,0.01,0.123,0.013,-0.4,0.0,-0.2,573,790,0,,,,
R,,356490.0,0.006,0.123,0.014,-0.2,-0.1,-0.2,594,798,0,,,,
R,,356550.0,0.005,0.126,0.011,0.0,-0.4,-0.3,608,796,0,,,,
R,,356610.0,0.009,0.127,0.008,0.0,-1.2,-0.2,621,805,0,,,,
R,,356669.0,0.014,0.129,0.015,0.0,-0.7,-0.7,616,815,0,,,,
R,,356730.0,0.026,0.128,0.021,-1.6,7.0,-4.4,501,795,0,,,,
R,,356790.0,-0.01,0.121,0.015,-1.2,4.5,-3.3,473,785,0,,,,
R,,356850.0,-0.009,0.113,0.0,-0.4,0.4,-1.4,460,803,0,,,,
R,,356910.0,-0.008,0.12,0.011,0.3,-3.9,0.6,446,815,0,,,,
R,,356970.0,0.004,0.13,0.036,0.2,-0.4,0.5,450,820,0,,,,
R,,357032.0,-0.003,0.123,0.006,0.1,1.5,0.3,452,833,0,,,,
R,,357090.0,-0.001,0.124,0.009,0.1,-0.8,0.4,461,844,0,,,,
R,,357150.0,0.001,0.127,0.013,-0.1,-0.3,-0.1,485,846,0,,,,
R,,357209.0,0.001,0.128,0.012,-0.2,-1.0,-0.3,483,849,0,,,,
R,,357270.0,0.0,0.127,0.014,-0.4,-0.6,-0.9,482,848,0,,,,
R,,357330.0,-0.002,0.125,0.019,-0.4,0.1,-0.6,482,841,0,,,,
R,,357390.0,-0.002,0.125,0.017,-0.4,0.1,-0.2,472,832,0,,,,
R,,357450.0,-0.003,0.123,0.013,-0.5,1.0,-0.4,474,813,0,,,,
R,,357510.0,-0.005,0.124,0.007,-0.4,-0.3,-0.3,449,795,0,,,,
R,,357570.0,-0.009,0.127,0.016,-0.1,-3.2,0.3,441,794,0,,,,
R,,357630.0,0.0,0.125,0.021,0.4,-3.6,0.7,433,797,0,,,,
R,,357690.0,0.0,0.123,0.028,0.3,-2.3,0.5,414,790,0,,,,
R,,357751.0,0.0,0.122,0.018,-0.6,2.7,-0.7,448,765,0,,,,
R,,357809.0,0.002,0.124,0.01,-0.9,1.8,-0.7,450,761,0,,,,
R,,357870.0,-0.017,0.129,0.011,-0.3,6.0,-2.6,371,649,0,,,,
R,,357930.0,0.033,0.109,-0.021,5.3,23.7,-4.1,432,676,0,,,,
R,,357990.0,0.012,0.123,-0.016,4.6,19.5,-0.2,451,691,0,,,,
R,,358091.0,0.015,0.126,0.0,2.2,7.1,2.1,477,699,0,,,,
R,,358110.0,0.011,0.13,0.003,2.1,7.2,2.3,484,704,0,,,,
R,,358170.0,0.012,0.13,0.009,2.3,10.9,2.2,489,710,0,,,,
R,,358230.0,0.0,0.136,0.001,2.9,17.8,-0.2,489,711,0,,,,
R,,358290.0,-0.014,0.124,-0.023,2.3,17.6,-1.5,459,716,0,,,,
R,,358349.0,-0.034,0.116,-0.04,1.7,12.7,-0.5,458,718,0,,,,
R,,358410.0,-0.027,0.103,-0.03,2.0,9.1,-1.3,479,730,0,,,,
R,,358471.0,-0.071,0.11,-0.043,2.8,8.0,-4.4,484,734,0,,,,
R,,358530.0,-0.06,0.082,-0.06,4.9,-5.8,0.0,228,848,0,,,,
R,,358590.0,0.006,0.176,-0.049,3.9,-0.5,-0.5,227,898,0,,,,
R,,358650.0,-0.016,0.116,-0.026,2.3,0.0,-1.3,325,906,0,,,,
R,,358709.0,-0.011,0.117,-0.042,0.2,-0.9,0.0,340,904,0,,,,
R,,358770.0,-0.003,0.121,-0.026,-0.2,-0.3,0.0,387,903,0,,,,
R,,358830.0,-0.004,0.125,-0.021,-0.6,-0.8,-0.4,397,906,0,,,,
R,,358890.0,-0.01,0.124,-0.03,-0.8,-0.1,-0.2,395,907,0,,,,
R,,358950.0,-0.003,0.124,-0.032,-0.6,0.1,-1.1,355,908,0,,,,
R,,359010.0,-0.003,0.125,-0.026,-0.9,0.0,-2.1,305,909,0,,,,
R,,359070.0,-0.008,0.128,-0.026,-1.4,-0.9,-2.6,265,910,0,,,,
R,,359131.0,-0.013,0.127,-0.025,-1.8,-0.2,-3.6,289,909,0,,,,
R,,359190.0,-0.019,0.12,-0.018,-1.6,-0.1,-2.7,273,910,0,,,,
R,,359250.0,-0.022,0.126,-0.019,-1.8,-0.5,-2.5,263,904,0,,,,
R,,359310.0,-0.02,0.123,-0.021,-2.6,0.3,-2.3,245,903,0,,,,
R,,359370.0,-0.012,0.131,-0.011,-3.3,-1.1,-3.6,217,902,0,,,,
R,,359430.0,-0.006,0.161,-0.01,-6.1,-0.9,-6.5,224,902,0,,,,
R,,359490.0,0.014,0.178,-0.009,-7.6,-4.0,-12.6,204,899,0,,,,
R,,359550.0,0.004,0.181,-0.03,-9.2,-7.5,-16.9,174,894,0,,,,
R,,359610.0,-0.026,0.123,-0.041,-2.1,6.5,-23.0,182,817,0,,,,
R,,359670.0,-0.055,0.077,-0.008,-4.8,9.1,-9.0,181,739,0,,,,
R,,359730.0,-0.008,0.03,-0.028,-2.8,8.9,4.9,217,761,0,,,,
R,,359790.0,-0.009,0.054,-0.02,-4.5,13.8,13.0,218,761,0,,,,
R,,359852.0,-0.004,0.088,-0.031,-6.0,15.1,21.9,239,750,0,,,,
R,,359910.0,-0.009,0.145,-0.047,-5.3,15.1,26.2,236,730,0,,,,
R,,359970.0,-0.037,0.181,-0.064,-2.2,16.2,24.9,225,737,0,,,,
R,,360030.0,-0.034,0.159,-0.062,2.3,15.7,21.9,232,735,0,,,,
R,,360090.0,-0.02,0.149,-0.054,2.3,4.3,19.6,211,717,0,,,,
R,,360150.0,-0.016,0.13,-0.033,1.9,0.7,14.2,230,722,0,,,,
R,,360210.0,-0.009,0.117,-0.008,4.2,0.3,7.3,233,740,0,,,,
R,,360270.0,-0.06,0.138,0.02,4.8,9.4,-6.6,447,694,0,,,,
R,,360330.0,0.04,0.228,0.035,4.8,9.4,-13.8,669,785,0,,,,
R,,360390.0,-0.049,0.165,-0.036,7.2,2.7,-12.8,693,809,0,,,,
R,,360450.0,0.029,0.129,-0.017,2.8,-2.0,-4.9,694,806,0,,,,
R,,360511.0,0.024,0.121,-0.026,3.4,0.1,-2.4,700,813,0,,,,
R,,360570.0,0.049,0.112,-0.034,1.8,-4.0,-2.5,714,828,0,,,,
R,,360630.0,0.07,0.105,-0.033,0.6,-4.7,-3.9,748,870,0,,,,
R,,360690.0,0.023,0.116,-0.048,1.5,-0.7,-7.2,756,897,0,,,,
R,,360750.0,0.0,0.122,-0.038,0.5,-1.4,-7.0,706,898,0,,,,
R,,360810.0,0.006,0.13,-0.036,0.0,-1.6,-5.9,452,907,0,,,,
R,,360870.0,-0.004,0.122,-0.035,-0.2,-1.9,-5.0,226,909,0,,,,
R,,360930.0,-0.009,0.121,-0.035,-0.3,-1.4,-4.0,252,908,0,,,,
R,,360990.0,-0.009,0.12,-0.038,0.2,-2.0,-3.4,274,905,0,,,,
R,,361050.0,-0.01,0.126,-0.025,0.0,-2.5,-3.9,262,904,0,,,,
R,,361110.0,-0.015,0.123,-0.029,-0.5,-1.4,-4.5,221,908,0,,,,
R,,361170.0,-0.02,0.122,-0.037,-1.4,-2.2,-5.5,195,908,0,,,,
R,,361232.0,-0.02,0.139,-0.018,-1.6,-5.9,-6.6,187,906,0,,,,
R,,361291.0,-0.019,0.161,-0.033,-2.2,-7.0,-9.4,167,904,0,,,,
R,,361350.0,-0.028,0.096,-0.003,-1.4,-10.2,-8.6,171,899,0,,,,
R,,361410.0,-0.079,0.077,-0.001,-1.8,-5.3,-3.9,183,903,0,,,,
R,,361470.0,-0.06,0.092,-0.009,-1.2,-2.0,-1.8,191,903,0,,,,
R,,361530.0,-0.066,0.104,-0.007,-1.5,-0.8,-2.3,184,896,0,,,,
R,,361590.0,-0.059,0.112,-0.01,-2.6,-1.0,-2.1,258,885,0,,,,
R,,361650.0,-0.074,0.116,-0.009,-1.1,-1.6,-2.9,341,861,0,,,,
R,,361710.0,-0.072,0.097,-0.012,1.1,-2.5,-1.5,406,828,0,,,,
R,,361770.0,-0.074,0.097,0.005,1.2,-4.0,-2.2,401,784,0,,,,
R,,361831.0,-0.076,0.094,0.01,0.3,-2.6,-1.7,374,720,0,,,,
R,,361890.0,-0.08,0.091,0.003,-1.0,0.5,-0.7,374,711,0,,,,
R,,361952.0,-0.081,0.087,-0.006,-1.2,0.0,0.3,402,735,0,,,,
R,,362010.0,-0.08,0.096,-0.006,-0.2,-3.3,1.0,417,772,0,,,,
R,,362070.0,-0.085,0.103,-0.003,1.2,-5.8,1.4,433,792,0,,,,
R,,362130.0,-0.06,0.105,-0.001,2.6,-8.7,1.8,467,799,0,,,,
R,,362190.0,-0.065,0.099,-0.005,3.6,-11.1,1.9,471,780,0,,,,
R,,362250.0,-0.126,0.092,-0.015,2.7,-17.9,5.4,511,753,0,,,,
R,,362310.0,-0.098,0.074,-0.016,5.2,-17.7,7.0,506,662,0,,,,
R,,362371.0,-0.052,0.103,-0.011,5.9,-18.2,9.5,463,596,0,,,,
R,,362430.0,-0.01,0.167,-0.035,10.4,-10.9,7.8,384,548,0,,,,
R,,362490.0,-0.024,0.159,-0.005,9.2,-23.0,2.0,386,566,0,,,,
R,,362549.0,0.03,0.118,0.045,6.0,-26.4,0.8,387,590,0,,,,
R,,362612.0,0.047,0.158,0.052,6.2,-22.4,11.8,299,651,0,,,,
R,,362670.0,0.024,0.144,0.071,2.4,-10.1,5.8,315,713,0,,,,
R,,362730.0,-0.012,0.148,0.016,4.1,6.5,3.5,545,795,0,,,,
R,,362791.0,0.01,0.136,-0.047,3.8,3.5,1.3,660,850,0,,,,
R,,362850.0,-0.001,0.122,0.014,3.8,1.0,1.0,696,862,0,,,,
R,,362910.0,-0.003,0.124,-0.01,3.5,1.3,1.8,713,861,0,,,,
R,,362970.0,0.003,0.128,-0.014,3.8,0.5,0.9,731,868,0,,,,
R,,363030.0,0.007,0.124,-0.015,2.8,-0.3,0.8,739,871,0,,,,
R,,363090.0,0.004,0.125,-0.016,3.0,0.1,0.6,746,876,0,,,,
R,,363150.0,0.003,0.129,-0.023,2.5,-0.5,0.2,751,878,0,,,,
R,,363210.0,0.001,0.134,-0.029,2.9,-0.5,0.4,755,878,0,,,,
R,,363270.0,0.01,0.122,-0.026,1.9,-0.2,1.0,752,875,0,,,,
R,,363332.0,0.003,0.125,-0.025,1.4,-0.6,0.8,737,857,0,,,,
R,,363390.0,0.005,0.116,-0.024,0.9,-0.7,0.9,723,838,0,,,,
R,,363450.0,0.01,0.121,-0.029,0.8,-1.4,0.8,703,814,0,,,,
R,,363541.0,0.011,0.119,-0.034,-0.3,-0.9,0.6,703,811,0,,,,
R,,363600.0,0.015,0.12,-0.027,-0.3,-0.9,0.8,707,816,0,,,,
R,,363661.0,0.016,0.121,-0.022,-0.9,-2.7,1.1,707,816,0,,,,
R,,363720.0,0.007,0.12,-0.032,-0.9,-2.9,0.9,710,821,0,,,,
R,,363780.0,0.011,0.121,-0.027,-0.6,-2.4,0.9,716,830,0,,,,
R,,363840.0,0.016,0.126,-0.03,-0.8,-2.0,0.4,715,829,0,,,,
R,,363900.0,0.021,0.118,-0.031,-0.5,-1.1,-0.7,713,827,0,,,,
R,,363960.0,0.013,0.124,-0.028,-0.9,-0.9,-2.1,710,821,0,,,,
R,,364020.0,0.024,0.127,-0.017,0.6,-2.5,-5.4,719,845,0,,,,
R,,364082.0,0.014,0.134,-0.03,0.1,-4.3,-7.3,644,855,0,,,,
R,,364140.0,-0.012,0.115,-0.017,0.0,-0.7,-2.7,646,875,0,,,,
R,,364201.0,0.0,0.123,-0.027,-1.6,-1.4,-2.7,566,878,0,,,,
R,,364260.0,-0.011,0.116,-0.021,-0.2,-1.5,-1.4,390,881,0,,,,
R,,364320.0,-0.009,0.122,-0.024,0.4,0.0,0.6,493,886,0,,,,
R,,364380.0,-0.012,0.124,-0.019,-0.3,-0.1,0.9,620,885,0,,,,
R,,364440.0,-0.011,0.119,-0.02,0.4,0.9,1.2,672,883,0,,,,
R,,364500.0,-0.009,0.123,-0.026,0.0,0.7,2.0,717,879,0,,,,
R,,364560.0,-0.002,0.126,-0.022,0.0,0.3,2.5,734,875,0,,,,
R,,364621.0,0.003,0.124,-0.022,-0.1,0.2,2.3,740,874,0,,,,
R,,364680.0,0.003,0.124,-0.021,-0.2,0.1,2.0,744,872,0,,,,
R,,364742.0,0.008,0.123,-0.024,0.0,-0.1,1.7,749,874,0,,,,
R,,364800.0,0.01,0.121,-0.024,-0.1,-0.7,1.5,744,870,0,,,,
R,,364860.0,0.007,0.123,-0.023,-0.2,-0.4,1.1,748,874,0,,,,
R,,364919.0,0.007,0.123,-0.02,-0.3,-0.3,0.4,749,873,0,,,,
R,,364980.0,0.011,0.122,-0.022,-0.1,-0.2,-0.3,751,873,0,,,,
R,,365041.0,0.009,0.122,-0.022,-0.1,0.0,-0.7,748,876,0,,,,
R,,365100.0,0.008,0.122,-0.022,-0.2,0.0,-0.4,749,875,0,,,,
R,,365161.0,0.01,0.123,-0.021,-0.1,-0.3,0.2,749,874,0,,,,
R,,365220.0,0.01,0.122,-0.021,0.0,-0.4,0.2,750,876,0,,,,
R,,365280.0,0.009,0.123,-0.02,0.0,-0.4,0.2,750,872,0,,,,
R,,365340.0,0.01,0.123,-0.02,-0.1,-0.4,0.2,746,869,0,,,,
R,,365400.0,0.007,0.123,-0.019,-0.1,-0.4,0.4,747,868,0,,,,
R,,365461.0,0.012,0.123,-0.019,-0.3,-0.5,0.6,746,870,0,,,,
R,,365520.0,0.018,0.12,-0.024,-0.4,0.0,0.0,749,872,0,,,,
R,,365581.0,0.009,0.122,-0.02,-0.3,-0.3,-0.4,748,873,0,,,,
R,,365640.0,0.011,0.122,-0.021,-0.1,0.0,0.0,748,876,0,,,,
R,,365701.0,0.016,0.123,-0.021,-0.2,0.3,1.1,748,876,0,,,,
R,,365760.0,0.012,0.123,-0.016,-0.3,-0.6,1.0,738,863,0,,,,
R,,365820.0,0.011,0.131,-0.014,-1.0,-1.7,0.6,716,843,0,,,,
R,,365880.0,0.003,0.135,-0.017,-0.7,-5.6,-0.9,646,775,0,,,,
R,,365940.0,-0.007,0.137,-0.016,-3.8,-26.2,3.1,443,686,0,,,,
R,,366000.0,0.001,0.139,0.002,-5.1,-33.5,0.9,423,682,0,,,,
R,,366060.0,0.026,0.128,0.032,-4.0,-23.3,-1.1,447,687,0,,,,
R,,366121.0,0.025,0.111,0.018,-1.8,-8.1,-1.9,457,685,0,,,,
R,,366182.0,0.015,0.098,-0.002,-0.1,-2.1,3.1,450,689,0,,,,
R,,366241.0,0.017,0.108,-0.017,-1.0,-6.9,10.8,458,695,0,,,,
R,,366300.0,0.024,0.123,-0.03,-2.0,-14.7,13.9,471,716,0,,,,
R,,366360.0,0.005,0.122,-0.029,-1.4,-20.1,10.4,482,729,0,,,,
R,,366420.0,0.011,0.122,-0.015,-1.2,-21.7,4.3,459,707,0,,,,
R,,366480.0,0.004,0.106,-0.01,-1.4,-18.5,0.6,379,694,0,,,,
R,,366541.0,0.117,0.16,-0.04,-0.2,-6.4,0.5,565,733,0,,,,
R,,366600.0,0.035,0.11,-0.007,4.6,10.1,-10.7,688,803,0,,,,
R,,366661.0,0.014,0.117,-0.023,3.0,-1.7,-7.0,720,838,0,,,,
R,,366720.0,0.009,0.12,-0.034,2.8,-2.5,-4.1,745,868,0,,,,
R,,366781.0,0.006,0.122,-0.032,2.9,-1.3,-4.0,754,878,0,,,,
R,,366842.0,0.012,0.123,-0.037,1.4,-1.2,-3.5,762,884,0,,,,
R,,366900.0,0.002,0.118,-0.036,1.0,-0.7,-1.7,765,888,0,,,,
R,,366960.0,0.004,0.12,-0.03,1.0,-0.9,-0.1,767,891,0,,,,
R,,367020.0,0.0,0.117,-0.038,0.9,-1.4,0.7,770,891,0,,,,
R,,367081.0,0.007,0.118,-0.041,0.8,-1.4,0.6,770,892,0,,,,
R,,367140.0,0.009,0.117,-0.038,0.4,-1.7,0.2,769,889,0,,,,
R,,367201.0,0.009,0.119,-0.042,0.3,-1.7,-0.6,771,889,0,,,,
R,,367260.0,0.019,0.122,-0.035,0.0,-2.6,-2.9,773,894,0,,,,
R,,367321.0,0.001,0.122,-0.042,-0.4,-3.8,-4.6,750,893,0,,,,
R,,367380.0,0.003,0.126,-0.041,-0.6,-4.8,-7.2,608,895,0,,,,
R,,367440.0,-0.013,0.137,-0.035,-0.7,-8.2,-8.6,145,907,0,,,,
R,,367500.0,0.015,0.188,-0.036,-1.2,-10.3,-12.0,189,900,0,,,,
R,,367562.0,0.044,0.208,-0.047,-0.8,-23.3,-16.3,143,889,0,,,,
R,,367621.0,-0.039,0.116,-0.042,0.6,-6.3,-16.7,194,809,0,,,,
R,,367680.0,-0.025,0.015,0.004,4.6,-11.1,-4.0,256,620,0,,,,
R,,367741.0,0.01,0.029,0.01,3.4,-13.7,10.2,226,626,0,,,,
R,,367800.0,-0.012,0.07,0.031,4.9,2.1,17.6,234,627,0,,,,
R,,367861.0,0.004,0.116,0.003,6.3,4.6,24.7,225,621,0,,,,
R,,367920.0,-0.012,0.168,-0.004,1.6,1.7,25.7,185,642,0,,,,
R,,367980.0,-0.015,0.161,-0.006,-1.3,-3.1,28.0,188,658,0,,,,
R,,368041.0,-0.002,0.167,-0.01,1.5,-3.9,23.1,196,684,0,,,,
R,,368100.0,-0.013,0.15,0.0,1.4,0.3,14.9,201,692,0,,,,
R,,368161.0,-0.029,0.121,-0.042,-1.5,3.4,4.9,197,699,0,,,,
R,,368222.0,-0.063,0.13,-0.028,0.3,-5.2,-7.9,202,696,0,,,,
R,,368281.0,0.042,0.261,0.029,2.3,3.3,-18.0,705,826,0,,,,
R,,368340.0,0.041,0.076,-0.045,3.7,6.9,-12.2,731,855,0,,,,
R,,368401.0,0.023,0.119,-0.03,1.4,-5.0,-6.3,740,865,0,,,,
R,,368460.0,0.027,0.119,-0.036,2.9,0.5,-5.3,745,862,0,,,,
R,,368520.0,0.019,0.119,-0.033,1.3,-1.5,-3.9,747,866,0,,,,
R,,368580.0,0.014,0.123,-0.031,1.8,-0.4,-3.3,751,872,0,,,,
R,,368640.0,0.027,0.121,-0.028,1.0,-2.6,-2.5,752,876,0,,,,
R,,368701.0,0.012,0.121,-0.038,1.5,-2.1,-3.4,733,884,0,,,,
R,,368760.0,0.005,0.123,-0.042,2.1,-2.4,-4.7,670,889,0,,,,
R,,368821.0,0.002,0.122,-0.041,2.1,-3.1,-5.1,304,901,0,,,,
R,,368880.0,-0.001,0.128,-0.038,1.4,-4.2,-5.5,182,905,0,,,,
R,,368942.0,0.0,0.13,-0.044,0.8,-7.9,-5.9,151,900,0,,,,
R,,369000.0,0.017,0.173,-0.04,0.0,-10.2,-12.0,127,895,0,,,,
R,,369060.0,0.063,0.182,-0.034,0.9,-21.5,-16.4,136,895,0,,,,
R,,369120.0,-0.018,0.16,-0.023,0.9,-12.8,-16.6,179,844,0,,,,
R,,369180.0,-0.031,-0.017,-0.054,3.1,-6.8,-4.0,292,569,0,,,,
R,,369241.0,0.004,0.029,0.009,3.1,-12.6,12.3,236,588,0,,,,
R,,369300.0,0.035,0.054,0.051,6.9,-0.6,23.1,225,605,0,,,,
R,,369361.0,0.012,0.106,0.017,4.1,-2.1,31.2,269,627,0,,,,
R,,369420.0,0.006,0.178,0.003,0.4,-8.5,34.3,204,636,0,,,,
R,,369480.0,-0.005,0.2,-0.005,-1.1,-9.1,37.4,229,645,0,,,,
R,,369541.0,-0.037,0.204,-0.023,-0.4,-6.7,27.8,226,652,0,,,,
R,,369600.0,-0.1,0.164,0.003,1.1,0.4,6.4,211,667,0,,,,
R,,369662.0,0.106,0.079,-0.076,-2.1,0.2,-14.8,597,739,0,,,,
R,,369720.0,-0.058,0.177,-0.091,4.8,7.5,-17.7,692,806,0,,,,
R,,369781.0,-0.016,0.124,-0.058,4.1,1.2,-13.9,731,852,0,,,,
R,,369840.0,0.018,0.123,-0.026,2.4,-2.1,-8.3,749,876,0,,,,
R,,369901.0,0.003,0.114,-0.043,1.3,-1.1,-6.5,751,885,0,,,,
R,,369960.0,0.007,0.117,-0.039,0.5,-1.5,-3.7,743,893,0,,,,
R,,370020.0,0.133,0.195,0.029,1.3,-8.2,-1.8,712,896,0,,,,
R,,370081.0,-0.009,0.115,-0.05,0.0,-2.7,-3.2,611,898,0,,,,
R,,370140.0,-0.001,0.121,-0.044,0.7,-2.9,-4.2,332,907,0,,,,
R,,370201.0,-0.007,0.124,-0.034,1.1,-3.9,-4.3,258,908,0,,,,
R,,370260.0,0.002,0.131,-0.05,0.9,-2.5,-7.3,237,906,0,,,,
R,,370352.0,0.005,0.156,-0.035,0.0,-5.3,-12.6,161,901,0,,,,
R,,370410.0,0.048,0.197,-0.048,-3.4,-16.1,-17.4,185,905,0,,,,
R,,370470.0,0.017,0.196,-0.018,-0.7,-11.2,-23.5,206,891,0,,,,
R,,370531.0,-0.001,0.039,-0.066,-3.9,-6.0,-13.4,186,617,0,,,,
R,,370590.0,-0.005,0.028,-0.009,0.9,-9.8,8.6,150,671,0,,,,
R,,370651.0,0.02,0.032,0.005,4.9,-1.2,18.4,173,655,0,,,,
R,,370710.0,0.001,0.095,0.012,5.1,7.9,28.5,231,670,0,,,,
R,,370770.0,0.022,0.152,0.001,3.7,7.8,36.8,255,684,0,,,,
R,,370831.0,0.018,0.206,-0.028,-1.1,7.4,39.1,258,692,0,,,,
R,,370890.0,-0.061,0.248,-0.086,-1.9,-1.7,37.4,241,687,0,,,,
R,,370951.0,-0.212,0.212,0.0,1.6,0.4,11.8,240,689,0,,,,
R,,371010.0,0.327,0.027,0.032,0.5,-7.0,-9.8,631,758,0,,,,
R,,371072.0,-0.093,0.172,-0.095,6.1,4.5,-17.5,711,831,0,,,,
R,,371130.0,-0.003,0.131,-0.038,2.2,-3.1,-12.9,741,866,0,,,,
R,,371191.0,0.025,0.117,-0.034,2.1,-1.1,-8.0,754,879,0,,,,
R,,371250.0,0.018,0.12,-0.04,0.9,-2.8,-5.8,751,886,0,,,,
R,,371310.0,0.005,0.121,-0.04,0.8,-2.4,-4.7,721,890,0,,,,
R,,371371.0,0.013,0.124,-0.039,0.6,-3.8,-4.4,640,896,0,,,,
R,,371460.0,-0.001,0.118,-0.038,0.9,-2.4,-4.3,239,909,0,,,,
R,,371521.0,-0.004,0.126,-0.036,1.2,-2.7,-3.7,274,908,0,,,,
R,,371581.0,0.001,0.129,-0.044,0.9,-2.4,-5.8,259,903,0,,,,
R,,371640.0,-0.004,0.137,-0.049,-0.5,-5.2,-9.5,206,906,0,,,,
R,,371700.0,0.01,0.165,-0.025,-1.2,-7.8,-12.8,190,903,0,,,,
R,,371760.0,0.064,0.195,-0.037,-2.1,-19.6,-18.0,191,903,0,,,,
R,,371822.0,0.0,0.165,-0.067,0.0,-10.3,-22.5,193,879,0,,,,
R,,371880.0,0.003,0.102,-0.04,1.5,-2.6,-13.5,100,583,0,,,,
R,,371941.0,-0.006,0.033,0.013,4.4,-5.8,10.6,203,672,0,,,,
R,,372000.0,0.056,0.049,0.022,4.3,4.4,20.3,204,666,0,,,,
R,,372060.0,0.002,0.094,0.014,2.6,7.1,29.6,245,676,0,,,,
R,,372121.0,0.014,0.163,-0.002,1.0,9.1,33.8,252,687,0,,,,
R,,372180.0,-0.012,0.195,-0.038,-2.8,5.1,35.6,259,695,0,,,,
R,,372241.0,-0.008,0.204,-0.038,-3.1,-3.3,32.8,227,700,0,,,,
R,,372300.0,-0.089,0.172,-0.019,-4.9,-7.1,22.8,236,710,0,,,,
R,,372361.0,-0.117,0.15,0.0,-2.8,-5.6,-10.8,249,733,0,,,,
R,,372420.0,0.147,0.205,0.03,-2.2,-14.4,-16.0,670,785,0,,,,
R,,372482.0,-0.053,0.112,-0.027,4.3,6.8,-22.1,709,827,0,,,,
R,,372541.0,0.017,0.126,-0.031,1.2,-4.6,-10.4,745,870,0,,,,
R,,372600.0,0.016,0.122,-0.03,2.6,-1.4,-6.4,754,881,0,,,,
R,,372661.0,0.013,0.118,-0.042,1.8,-2.8,-4.2,745,891,0,,,,
R,,372720.0,0.011,0.111,-0.042,1.0,-2.2,-0.7,721,893,0,,,,
R,,372781.0,0.023,0.11,-0.019,0.5,-2.4,0.3,709,895,0,,,,
R,,372840.0,0.008,0.117,-0.041,0.9,-2.2,-1.0,663,898,0,,,,
R,,372901.0,0.013,0.116,-0.045,1.6,-2.9,-1.4,523,903,0,,,,
R,,372960.0,0.008,0.12,-0.044,2.5,-3.1,-3.0,236,907,0,,,,
R,,373021.0,0.001,0.127,-0.052,1.1,-4.2,-2.7,212,903,0,,,,
R,,373081.0,0.003,0.127,-0.053,1.8,-6.8,-6.0,203,901,0,,,,
R,,373140.0,0.008,0.142,-0.042,0.9,-8.6,-7.3,209,896,0,,,,
R,,373202.0,0.015,0.174,-0.035,-0.4,-15.4,-10.2,185,894,0,,,,
R,,373260.0,0.033,0.163,-0.037,3.0,-25.9,-12.3,158,895,0,,,,
R,,373321.0,0.002,0.155,-0.077,3.1,-18.6,-18.1,144,803,0,,,,
R,,373380.0,-0.057,0.073,-0.058,8.5,-17.6,-2.0,284,600,0,,,,
R,,373441.0,0.03,0.031,-0.016,3.6,-14.4,14.9,258,605,0,,,,
R,,373500.0,0.017,0.07,0.015,5.1,-7.1,25.3,289,610,0,,,,
R,,373561.0,0.034,0.123,0.012,6.1,-5.7,34.1,272,644,0,,,,
R,,373621.0,0.004,0.183,-0.01,6.4,-6.8,36.5,271,677,0,,,,
R,,373680.0,0.001,0.219,-0.01,2.2,-11.6,37.9,261,700,0,,,,
R,,373741.0,-0.07,0.163,0.061,0.4,-17.6,23.1,244,696,0,,,,
R,,373800.0,-0.136,0.102,0.002,-3.5,2.3,-15.4,532,683,0,,,,
R,,373861.0,-0.003,0.207,-0.034,3.5,0.1,-18.7,676,793,0,,,,
R,,373922.0,0.025,0.099,-0.067,1.6,2.1,-13.3,705,823,0,,,,
R,,373981.0,0.019,0.119,-0.026,-0.3,-2.0,-7.4,732,853,0,,,,
R,,374041.0,0.014,0.114,-0.048,1.2,-1.7,-5.0,755,881,0,,,,
R,,374101.0,0.019,0.114,-0.04,0.5,-2.5,-4.2,752,883,0,,,,
R,,374161.0,-0.029,0.112,-0.028,-3.9,-16.6,-2.0,741,887,0,,,,
R,,374220.0,-0.049,0.193,0.057,1.1,5.3,-5.0,727,890,0,,,,
R,,374281.0,0.002,0.121,-0.042,0.1,-2.5,-1.3,718,893,0,,,,
R,,374340.0,0.009,0.119,-0.041,1.4,-2.1,-1.9,655,895,0,,,,
R,,374401.0,0.009,0.12,-0.046,1.9,-2.9,-2.5,509,899,0,,,,
R,,374460.0,0.008,0.119,-0.043,1.1,-3.5,-3.6,292,903,0,,,,
R,,374521.0,0.0,0.135,-0.058,-0.3,-5.5,-5.5,174,902,0,,,,
R,,374583.0,0.011,0.145,-0.036,-0.3,-6.9,-8.7,158,899,0,,,,
R,,374640.0,0.015,0.163,-0.044,-0.4,-6.7,-13.6,172,898,0,,,,
R,,374701.0,0.059,0.161,-0.038,0.1,-21.1,-16.0,140,898,0,,,,
R,,374760.0,0.002,0.189,-0.029,1.0,-17.1,-17.5,150,864,0,,,,
R,,374821.0,-0.008,0.057,-0.018,0.3,-8.4,-10.9,200,577,0,,,,
R,,374880.0,0.015,0.037,-0.022,4.0,-9.0,10.5,171,619,0,,,,
R,,374941.0,0.007,0.054,0.002,5.2,-6.3,21.8,182,623,0,,,,
R,,375000.0,0.023,0.098,0.017,6.3,-12.3,31.1,234,649,0,,,,
R,,375061.0,0.024,0.154,0.02,11.1,-1.9,32.7,271,670,0,,,,
R,,375121.0,0.011,0.189,0.01,7.3,2.9,34.9,230,680,0,,,,
R,,375180.0,-0.026,0.244,0.005,-0.4,-0.7,34.8,154,691,0,,,,
R,,375241.0,-0.213,0.193,-0.021,2.2,8.1,10.5,193,685,0,,,,
R,,375302.0,0.212,0.052,0.082,1.0,-0.1,-4.3,648,763,0,,,,
R,,375361.0,-0.014,0.138,-0.07,8.8,3.1,-16.9,698,815,0,,,,
R,,375420.0,-0.066,0.13,-0.087,0.8,-3.0,-7.6,724,844,0,,,,
R,,375481.0,0.051,0.119,-0.031,1.9,-2.5,-7.0,745,866,0,,,,
R,,375541.0,0.046,0.109,-0.037,-0.4,-2.9,-7.0,754,879,0,,,,
R,,375601.0,0.024,0.117,-0.038,0.1,-2.7,-6.9,753,886,0,,,,
R,,375661.0,0.026,0.116,-0.039,0.2,-2.2,-7.1,743,892,0,,,,
R,,375720.0,0.016,0.118,-0.035,0.6,-1.8,-6.7,717,895,0,,,,
R,,375781.0,0.004,0.119,-0.035,1.0,-0.9,-5.3,654,901,0,,,,
R,,375840.0,0.002,0.119,-0.042,1.9,-0.7,-4.5,480,908,0,,,,
R,,375931.0,0.002,0.131,-0.048,0.8,-2.7,-6.1,266,911,0,,,,
R,,375993.0,-0.004,0.127,-0.046,-0.1,-5.7,-7.1,193,912,0,,,,
R,,376050.0,-0.001,0.14,-0.037,-0.5,-5.2,-8.8,172,908,0,,,,
R,,376111.0,0.013,0.157,-0.034,-1.2,-5.0,-10.5,148,904,0,,,,
R,,376170.0,0.028,0.171,-0.009,-3.0,-21.6,-14.1,151,906,0,,,,
R,,376231.0,0.001,0.167,-0.049,-0.7,-9.0,-20.0,185,883,0,,,,
R,,376291.0,-0.03,0.0,-0.061,-1.3,2.2,-11.8,171,650,0,,,,
R,,376351.0,-0.018,0.02,-0.015,0.3,-5.4,7.2,158,653,0,,,,
R,,376411.0,0.018,0.021,-0.002,0.0,2.0,16.9,184,659,0,,,,
R,,376470.0,0.025,0.092,0.014,-1.0,-1.5,28.8,257,653,0,,,,
R,,376531.0,-0.014,0.181,0.0,0.2,-2.7,31.9,245,672,0,,,,
R,,376590.0,-0.003,0.193,-0.004,0.4,-2.5,30.1,190,672,0,,,,
R,,376651.0,0.004,0.173,-0.018,4.1,4.1,26.7,166,679,0,,,,
R,,376712.0,-0.036,0.181,-0.014,4.0,5.5,22.3,139,698,0,,,,
R,,376771.0,-0.201,0.163,-0.067,2.1,1.1,10.7,180,690,0,,,,
R,,376831.0,0.336,0.052,0.011,3.1,-9.4,-2.1,616,741,0,,,,
R,,376891.0,-0.026,0.067,0.044,6.3,5.4,-12.0,699,814,0,,,,
R,,376951.0,0.029,0.1,-0.054,4.5,0.3,-6.5,711,834,0,,,,
R,,377010.0,0.065,0.111,-0.013,1.2,-4.8,-7.8,741,866,0,,,,
R,,377071.0,0.043,0.111,-0.039,0.1,-2.9,-6.6,750,881,0,,,,
R,,377130.0,0.022,0.119,-0.027,0.2,-2.4,-5.9,744,891,0,,,,
R,,377191.0,0.019,0.111,-0.036,0.1,-1.8,-4.8,724,893,0,,,,
R,,377250.0,0.022,0.118,-0.037,0.4,-0.5,-5.6,724,895,0,,,,
R,,377311.0,0.015,0.12,-0.034,0.5,-1.1,-5.2,690,901,0,,,,
R,,377371.0,0.009,0.121,-0.034,0.8,-1.1,-5.9,553,909,0,,,,
R,,377432.0,0.002,0.116,-0.042,0.4,-1.8,-5.8,275,910,0,,,,
R,,377491.0,-0.002,0.126,-0.032,0.0,-2.7,-5.6,236,911,0,,,,
R,,377550.0,-0.007,0.126,-0.043,-0.4,-1.5,-6.6,244,910,0,,,,
R,,377611.0,-0.003,0.135,-0.035,-1.1,-2.7,-8.4,184,908,0,,,,
R,,377670.0,-0.009,0.147,-0.028,-0.9,-3.0,-10.6,177,906,0,,,,
R,,377731.0,0.01,0.175,-0.033,-2.2,-8.5,-14.3,176,904,0,,,,
R,,377791.0,0.027,0.163,-0.026,-2.2,-24.0,-18.2,159,897,0,,,,
R,,377851.0,-0.017,0.194,-0.049,-2.6,-3.5,-29.3,183,825,0,,,,
R,,377911.0,-0.052,0.047,-0.01,3.3,-10.2,-2.5,172,689,0,,,,
R,,377971.0,0.028,0.031,0.002,2.7,-2.5,12.7,177,707,0,,,,
R,,378031.0,0.031,0.067,0.009,2.5,9.4,25.5,237,723,0,,,,
R,,378092.0,0.0,0.163,-0.004,2.7,9.0,33.9,243,701,0,,,,
R,,378151.0,-0.032,0.201,-0.027,-1.6,-0.6,33.3,233,707,0,,,,
R,,378210.0,-0.027,0.185,-0.013,-0.9,-1.3,28.6,255,720,0,,,,
R,,378271.0,-0.012,0.163,-0.005,2.1,2.2,22.1,295,723,0,,,,
R,,378331.0,-0.062,0.167,-0.039,1.0,1.8,12.4,254,736,0,,,,
R,,378391.0,-0.121,0.15,-0.035,1.3,-0.7,-2.9,235,747,0,,,,
R,,378451.0,0.144,0.071,-0.02,4.6,-10.2,-0.5,649,778,0,,,,
R,,378511.0,0.041,0.138,0.011,8.1,3.7,-12.5,687,800,0,,,,
R,,378571.0,-0.002,0.102,-0.095,7.7,4.8,-9.7,705,826,0,,,,
R,,378630.0,0.052,0.11,-0.023,2.4,-3.4,-3.8,737,858,0,,,,
R,,378691.0,0.036,0.114,-0.056,0.2,-2.2,-5.2,746,866,0,,,,
R,,378750.0,0.037,0.118,-0.023,0.0,-3.4,-5.1,750,869,0,,,,
R,,378812.0,0.04,0.113,-0.04,0.0,-3.9,-4.0,753,873,0,,,,
R,,378871.0,0.025,0.117,-0.035,-0.4,-3.3,-3.2,755,879,0,,,,
R,,378931.0,0.016,0.117,-0.032,0.1,-1.9,-3.3,754,885,0,,,,
R,,378991.0,0.023,0.117,-0.038,0.9,-1.6,-2.6,747,888,0,,,,
R,,379050.0,0.014,0.12,-0.034,1.2,-1.3,-3.2,746,889,0,,,,
R,,379111.0,0.011,0.121,-0.041,1.5,-1.1,-3.9,721,892,0,,,,
R,,379170.0,0.016,0.12,-0.04,1.3,-2.2,-4.2,631,897,0,,,,
R,,379231.0,0.001,0.119,-0.043,1.1,-2.8,-4.1,329,904,0,,,,
R,,379291.0,0.001,0.12,-0.046,0.9,-3.2,-3.6,248,906,0,,,,
R,,379351.0,0.0,0.121,-0.05,0.6,-3.0,-3.8,258,905,0,,,,
R,,379411.0,0.004,0.132,-0.04,-0.3,-2.9,-6.0,233,901,0,,,,
R,,379471.0,-0.006,0.14,-0.038,-1.2,-4.2,-6.7,169,901,0,,,,
R,,379533.0,0.006,0.152,-0.034,0.3,-9.1,-12.3,136,898,0,,,,
R,,379590.0,0.017,0.158,-0.049,1.5,-24.6,-12.7,145,900,0,,,,
R,,379651.0,-0.016,0.156,-0.023,0.4,-14.2,-15.6,158,865,0,,,,
R,,379710.0,-0.056,0.067,-0.023,-0.1,-12.6,-10.0,334,655,0,,,,
R,,379771.0,0.023,0.024,-0.014,3.5,-8.9,10.4,324,640,0,,,,
R,,379831.0,-0.014,0.059,0.034,2.7,0.6,16.7,288,643,0,,,,
R,,379891.0,0.009,0.089,-0.007,1.2,4.6,26.2,259,660,0,,,,
R,,379951.0,-0.03,0.16,-0.022,-1.4,0.5,28.2,255,695,0,,,,
R,,380011.0,-0.012,0.173,-0.011,-1.0,-1.3,29.9,273,695,0,,,,
R,,380071.0,0.015,0.175,-0.004,1.1,1.7,26.1,265,693,0,,,,
R,,380130.0,-0.03,0.185,-0.018,1.3,4.5,18.3,207,705,0,,,,
R,,380192.0,-0.107,0.138,-0.076,-0.8,-7.0,7.2,200,731,0,,,,
R,,380250.0,0.009,0.076,0.007,-5.5,-12.9,-8.6,548,720,0,,,,
R,,380311.0,0.016,0.163,-0.058,8.2,11.9,-11.4,676,791,0,,,,
R,,380371.0,0.037,0.128,-0.031,6.3,0.7,-9.1,705,825,0,,,,
R,,380431.0,0.031,0.105,-0.042,0.9,-2.5,-4.6,728,848,0,,,,
R,,380491.0,0.039,0.12,-0.027,1.8,-2.5,-4.4,746,867,0,,,,
R,,380581.0,0.032,0.113,-0.039,-0.4,-3.2,-3.1,753,872,0,,,,
R,,380641.0,0.027,0.115,-0.038,0.7,-1.5,-2.9,751,869,0,,,,
R,,380701.0,0.032,0.113,-0.037,0.4,-3.7,-1.3,748,864,0,,,,
R,,380761.0,0.02,0.114,-0.039,0.5,-2.7,-1.0,747,865,0,,,,
R,,380821.0,0.027,0.115,-0.041,1.1,-2.0,-3.0,747,864,0,,,,
R,,380880.0,0.03,0.116,-0.035,0.7,-2.8,-5.2,745,864,0,,,,
R,,380942.0,0.015,0.122,-0.044,1.2,-2.4,-7.1,747,868,0,,,,
R,,381000.0,0.016,0.121,-0.046,2.8,-2.0,-9.4,747,876,0,,,,
R,,381061.0,-0.009,0.121,-0.047,2.5,-4.6,-7.2,692,885,0,,,,
R,,381121.0,-0.01,0.139,-0.048,0.0,-4.6,-6.1,360,900,0,,,,
R,,381181.0,0.01,0.169,-0.057,-1.3,-8.7,-9.3,168,894,0,,,,
R,,381241.0,0.009,0.18,0.0,0.4,-15.6,-13.3,145,889,0,,,,
R,,381301.0,0.001,0.164,-0.042,-0.2,-18.2,-16.8,135,882,0,,,,
R,,381361.0,0.031,0.205,-0.004,0.0,-10.9,-19.6,167,708,0,,,,
R,,381420.0,-0.002,0.105,0.009,-2.7,-1.6,-4.6,274,559,0,,,,
R,,381481.0,-0.009,0.081,0.025,-9.8,2.1,9.8,269,604,0,,,,
R,,381541.0,-0.005,0.097,0.029,-21.8,8.0,15.7,213,624,0,,,,
R,,381601.0,-0.009,0.158,0.046,-27.2,11.2,19.0,183,661,0,,,,
R,,381663.0,-0.035,0.195,-0.044,-25.2,38.3,12.5,187,681,0,,,,
R,,381721.0,-0.032,0.141,-0.091,-19.4,47.3,4.4,170,665,0,,,,
R,,381781.0,-0.007,0.133,-0.119,-12.5,34.5,0.1,176,672,0,,,,
R,,381841.0,0.049,0.068,-0.101,-2.1,28.7,1.5,272,717,0,,,,
R,,381901.0,-0.047,0.005,-0.136,8.3,7.7,3.3,148,809,0,,,,
R,,381960.0,-0.087,0.135,-0.04,5.5,1.7,8.6,155,871,0,,,,
R,,382021.0,-0.008,0.119,-0.029,1.9,-8.5,11.2,179,887,0,,,,
R,,382080.0,0.018,0.162,0.006,5.1,-4.0,12.7,161,900,0,,,,
R,,382141.0,0.01,0.144,0.019,9.2,10.1,4.2,239,906,0,,,,
R,,382201.0,-0.014,0.142,-0.052,5.2,4.4,4.3,683,900,0,,,,
R,,382261.0,-0.006,0.123,-0.026,3.5,2.3,3.3,756,894,0,,,,
R,,382323.0,-0.002,0.129,-0.018,0.4,0.0,4.4,770,894,0,,,,
R,,382381.0,0.0,0.12,-0.017,0.7,-0.2,4.3,767,893,0,,,,
R,,382441.0,0.009,0.123,-0.02,1.0,-0.1,3.8,771,892,0,,,,
R,,382500.0,0.012,0.124,-0.017,1.1,0.8,2.3,767,889,0,,,,
R,,382560.0,0.016,0.128,-0.027,1.4,2.0,0.0,770,889,0,,,,
R,,382621.0,0.015,0.121,-0.028,0.8,2.6,-0.4,765,889,0,,,,
R,,382681.0,0.014,0.118,-0.03,0.5,4.0,-0.2,765,887,0,,,,
R,,382741.0,0.02,0.118,-0.025,0.7,4.6,-0.6,760,882,0,,,,
R,,382801.0,0.017,0.124,-0.027,0.4,3.3,1.3,762,883,0,,,,
R,,382861.0,0.0,0.124,-0.033,-2.2,1.7,3.6,764,888,0,,,,
R,,382920.0,0.027,0.125,-0.021,-2.9,0.7,5.1,766,890,0,,,,
R,,382981.0,0.029,0.129,-0.016,-3.8,-0.1,4.7,767,890,0,,,,
R,,383073.0,0.048,0.139,0.0,-7.0,2.2,4.8,727,848,0,,,,
R,,383131.0,0.041,0.131,-0.02,-2.8,9.8,5.3,689,816,0,,,,
R,,383191.0,0.065,0.113,-0.013,0.5,18.8,2.3,648,782,0,,,,
R,,383250.0,0.047,0.116,-0.034,3.5,27.0,-2.9,422,736,0,,,,
R,,383311.0,0.025,0.125,-0.045,9.2,29.8,-12.3,408,724,0,,,,
R,,383371.0,0.027,0.115,-0.03,10.6,28.4,-13.0,420,728,0,,,,
R,,383431.0,0.019,0.119,-0.023,8.2,21.7,-8.3,432,705,0,,,,
R,,383491.0,0.027,0.108,-0.013,5.5,13.7,-1.7,444,719,0,,,,
R,,383551.0,0.028,0.115,-0.015,4.4,11.2,4.6,456,725,0,,,,
R,,383611.0,0.024,0.122,-0.027,6.2,11.1,9.1,456,726,0,,,,
R,,383671.0,0.019,0.132,-0.023,9.1,10.1,12.1,420,725,0,,,,
R,,383733.0,-0.01,0.146,-0.002,7.7,7.3,13.4,301,708,0,,,,
R,,383791.0,0.004,0.137,0.003,5.5,4.2,9.1,196,693,0,,,,
R,,383881.0,-0.076,0.132,-0.008,0.0,5.8,-7.9,496,651,0,,,,
R,,383941.0,0.13,0.153,0.077,8.0,14.3,-15.2,639,768,0,,,,
R,,384000.0,-0.011,0.197,0.0,6.9,3.0,-7.5,705,823,0,,,,
R,,384061.0,0.058,0.101,-0.042,4.1,1.3,-5.1,728,853,0,,,,
R,,384121.0,0.033,0.112,-0.046,2.3,-1.8,-8.6,747,871,0,,,,
R,,384181.0,0.032,0.12,-0.035,0.3,-0.7,-7.0,758,884,0,,,,
R,,384241.0,0.022,0.118,-0.034,-1.1,-2.2,-5.9,760,888,0,,,,
R,,384301.0,0.016,0.12,-0.032,-1.3,-1.4,-5.3,751,892,0,,,,
R,,384361.0,0.013,0.119,-0.031,-1.1,-1.8,-4.6,742,896,0,,,,
R,,384421.0,0.005,0.123,-0.029,-0.7,-1.5,-4.1,723,897,0,,,,
R,,384483.0,0.002,0.125,-0.03,-1.2,-1.6,-6.6,700,898,0,,,,
R,,384541.0,0.005,0.122,-0.033,-1.6,-1.5,-4.9,613,904,0,,,,
R,,384601.0,-0.013,0.129,-0.03,-2.5,-2.0,-5.9,304,909,0,,,,
R,,384661.0,-0.004,0.13,-0.026,-3.6,-3.2,-5.1,206,910,0,,,,
R,,384721.0,-0.008,0.151,-0.015,-3.8,-2.5,-6.9,188,906,0,,,,
R,,384781.0,-0.011,0.141,-0.019,-4.5,-1.0,-9.5,128,902,0,,,,
R,,384841.0,0.0,0.142,-0.006,-6.1,-5.3,-10.0,156,901,0,,,,
R,,384901.0,0.02,0.15,-0.021,-5.4,-6.3,-15.7,182,894,0,,,,
R,,384961.0,-0.007,0.164,-0.049,-2.8,0.0,-20.4,171,877,0,,,,
R,,385021.0,-0.051,0.07,-0.007,-1.3,-3.9,-9.8,203,783,0,,,,
R,,385081.0,0.029,0.027,-0.009,-0.3,9.5,5.5,227,781,0,,,,
R,,385140.0,0.022,0.077,-0.012,-1.7,6.0,20.5,233,794,0,,,,
R,,385203.0,-0.011,0.147,-0.03,-0.9,-1.6,25.5,259,806,0,,,,
R,,385261.0,-0.029,0.156,-0.021,4.2,-4.3,25.5,268,815,0,,,,
R,,385321.0,-0.003,0.153,-0.014,8.5,5.3,25.1,270,821,0,,,,
R,,385381.0,-0.006,0.165,-0.015,6.8,8.3,23.0,250,810,0,,,,
R,,385441.0,-0.004,0.145,-0.035,4.6,8.7,19.9,216,773,0,,,,
R,,385500.0,-0.034,0.138,-0.032,4.9,5.5,15.1,217,779,0,,,,
R,,385561.0,-0.056,0.135,-0.043,7.2,8.9,1.0,179,766,0,,,,
R,,385621.0,0.223,0.13,0.057,-12.2,6.1,-6.4,538,695,0,,,,
R,,385681.0,0.011,0.296,0.09,4.7,4.8,-16.1,678,796,0,,,,
R,,385741.0,0.1,0.096,-0.004,11.2,2.8,-9.1,690,814,0,,,,
R,,385801.0,0.062,0.092,-0.058,1.9,-6.7,-7.0,678,823,0,,,,
R,,385863.0,0.041,0.111,-0.033,1.9,-0.8,-6.5,695,846,0,,,,
R,,385921.0,0.026,0.118,-0.038,0.6,-2.4,-6.2,660,863,0,,,,
R,,385981.0,0.022,0.111,-0.044,-0.1,-3.5,-4.8,540,873,0,,,,
R,,386041.0,0.019,0.114,-0.038,-0.1,-2.8,-4.8,410,883,0,,,,
R,,386101.0,0.021,0.122,-0.041,0.1,-3.2,-3.7,237,890,0,,,,
R,,386161.0,0.011,0.122,-0.032,0.5,-2.7,-3.4,190,896,0,,,,
R,,386221.0,0.015,0.119,-0.045,1.0,-1.9,-3.9,178,896,0,,,,
R,,386281.0,0.004,0.12,-0.038,0.6,-2.5,-4.7,183,893,0,,,,
R,,386341.0,0.0,0.127,-0.042,0.0,-3.5,-4.4,120,892,0,,,,
R,,386401.0,0.001,0.122,-0.044,0.0,-3.8,-5.8,116,893,0,,,,
R,,386461.0,0.016,0.14,-0.04,-0.9,-2.5,-8.7,123,892,0,,,,
R,,386521.0,0.001,0.159,-0.031,-1.3,-6.6,-13.2,92,872,0,,,,
R,,386583.0,0.036,0.18,-0.039,1.7,-13.0,-19.9,95,899,0,,,,
R,,386641.0,-0.001,0.17,-0.041,1.6,-12.2,-19.2,119,857,0,,,,
R,,386701.0,-0.027,-0.017,-0.099,-0.5,-4.3,-0.8,94,561,0,,,,
R,,386761.0,-0.031,0.059,-0.002,0.6,-4.7,8.7,100,618,0,,,,
R,,386821.0,0.001,0.043,0.011,0.1,-1.1,18.3,149,637,0,,,,
R,,386881.0,-0.005,0.094,0.004,-0.8,1.3,27.3,190,661,0,,,,
R,,386941.0,0.009,0.146,-0.005,-0.8,0.9,34.0,205,680,0,,,,
R,,387001.0,-0.011,0.178,-0.018,-2.6,-1.4,37.1,214,696,0,,,,
R,,387061.0,-0.01,0.226,-0.019,-2.4,-6.9,38.3,179,681,0,,,,
R,,387121.0,-0.156,0.187,-0.07,-1.5,-6.8,19.0,167,664,0,,,,
R,,387181.0,0.386,0.126,0.075,-0.2,4.9,-9.0,623,721,0,,,,
R,,387271.0,0.045,0.155,0.015,7.6,5.5,-12.7,688,798,0,,,,
R,,387333.0,0.029,0.104,-0.047,3.0,-4.4,-7.4,712,831,0,,,,
R,,387391.0,0.045,0.12,-0.027,3.2,-3.3,-6.8,746,866,0,,,,
R,,387451.0,0.039,0.11,-0.05,1.8,-3.5,-5.8,753,883,0,,,,
R,,387510.0,0.02,0.119,-0.038,0.3,-3.3,-3.2,742,890,0,,,,
R,,387571.0,0.02,0.112,-0.042,0.2,-4.0,-2.2,689,894,0,,,,
R,,387631.0,0.019,0.114,-0.048,0.1,-4.0,-2.3,638,898,0,,,,
R,,387691.0,0.022,0.119,-0.038,0.5,-1.9,-1.9,624,899,0,,,,
R,,387751.0,0.011,0.125,-0.045,0.8,-2.4,-1.2,578,902,0,,,,
R,,387811.0,0.012,0.117,-0.043,0.9,-2.6,-2.4,338,909,0,,,,
R,,387871.0,0.008,0.116,-0.039,0.8,-3.2,-3.4,234,904,0,,,,
R,,387931.0,0.01,0.12,-0.046,1.1,-3.0,-4.3,213,905,0,,,,
R,,387993.0,0.003,0.118,-0.056,1.0,-4.7,-3.6,192,898,0,,,,
R,,388051.0,0.008,0.129,-0.05,0.2,-6.2,-5.0,160,896,0,,,,
R,,388111.0,0.007,0.137,-0.043,-0.8,-6.0,-8.4,150,894,0,,,,
R,,388171.0,0.006,0.162,-0.026,-0.1,-11.7,-10.7,109,887,0,,,,
R,,388231.0,-0.005,0.163,-0.041,5.4,-13.6,-14.9,105,895,0,,,,
R,,388291.0,-0.053,0.142,-0.063,6.0,-15.8,-13.2,127,822,0,,,,
R,,388351.0,-0.039,-0.027,-0.06,1.1,-7.3,-6.4,142,676,0,,,,
R,,388411.0,-0.009,0.01,-0.019,2.9,-13.8,9.8,188,676,0,,,,
R,,388471.0,-0.002,0.066,0.016,1.5,-4.0,15.5,191,637,0,,,,
R,,388531.0,-0.008,0.098,-0.006,-0.8,-0.7,21.1,253,649,0,,,,
R,,388591.0,-0.004,0.136,-0.02,-0.8,-0.8,23.7,240,650,0,,,,
R,,388651.0,0.002,0.155,-0.019,-0.8,-0.6,23.7,251,679,0,,,,
R,,388712.0,0.014,0.161,-0.029,-0.8,-0.3,23.3,247,694,0,,,,
R,,388771.0,-0.007,0.15,-0.051,0.0,-2.1,20.1,276,711,0,,,,
R,,388832.0,-0.021,0.135,-0.061,3.4,-9.9,15.9,235,715,0,,,,
R,,388891.0,0.0,0.208,-0.039,1.3,-14.3,5.3,256,672,0,,,,
R,,388951.0,0.146,0.218,0.062,9.3,13.0,-14.7,676,786,0,,,,
R,,389011.0,0.001,0.092,-0.103,10.4,2.3,-9.1,711,824,0,,,,
R,,389071.0,0.038,0.097,-0.047,1.0,-2.3,-6.6,736,854,0,,,,
R,,389131.0,0.029,0.122,-0.039,2.0,-0.3,-7.1,747,869,0,,,,
R,,389191.0,0.038,0.118,-0.041,0.1,-2.0,-6.6,754,881,0,,,,
R,,389251.0,0.021,0.116,-0.04,0.2,-1.6,-5.4,756,887,0,,,,
R,,389311.0,0.015,0.115,-0.039,0.3,-1.4,-3.9,750,892,0,,,,
R,,389372.0,0.012,0.119,-0.041,0.3,-0.9,-3.2,745,895,0,,,,
R,,389433.0,0.013,0.116,-0.043,1.1,-0.4,-2.4,738,898,0,,,,
R,,389491.0,0.011,0.117,-0.042,1.4,-1.0,-2.5,712,900,0,,,,
R,,389551.0,0.01,0.119,-0.045,1.8,-1.5,-3.6,678,900,0,,,,
R,,389611.0,0.008,0.12,-0.044,2.1,-2.1,-4.6,527,906,0,,,,
R,,389671.0,-0.001,0.124,-0.052,1.9,-3.8,-5.0,311,908,0,,,,
R,,389731.0,-0.003,0.129,-0.05,2.0,-5.7,-5.3,205,910,0,,,,
R,,389791.0,0.0,0.135,-0.053,2.1,-5.8,-6.8,177,908,0,,,,
R,,389851.0,-0.007,0.159,-0.039,2.4,-14.2,-6.8,164,907,0,,,,
R,,389912.0,0.03,0.147,-0.052,2.9,-38.5,-6.4,137,899,0,,,,
R,,389971.0,-0.036,0.122,-0.045,6.6,-27.4,-7.6,169,877,0,,,,
R,,390031.0,-0.076,0.05,-0.016,6.1,-21.1,-3.1,350,627,0,,,,
