side,stage,device_ms,ax,ay,az,gx,gy,gz,toe,heel,phase
R,,7148,0.156,0.028,1.017,0.5,-4.2,-0.7,865,753,0
R,,7158,0.157,0.025,1.020,0.3,-2.7,-0.5,865,755,0
R,,7168,0.159,0.027,1.015,0.8,-4.1,-0.7,868,757,0
R,,7178,0.151,0.030,1.015,0.2,-3.5,-1.0,867,760,0
R,,7188,0.161,0.030,1.011,0.9,-4.5,-0.5,868,760,0
R,,7198,0.161,0.029,1.019,0.2,-3.0,-0.5,869,762,0
R,,7208,0.159,0.025,1.011,-0.1,-3.2,-0.7,870,763,0
R,,7218,0.152,0.024,1.013,0.3,-3.5,-0.9,870,765,0
R,,7228,0.159,0.026,1.016,1.2,-3.5,-0.8,870,766,0
R,,7238,0.157,0.029,1.015,1.2,-3.3,-0.6,870,766,0
R,,7248,0.153,0.030,1.015,0.2,-3.3,-0.9,870,766,0
R,,7258,0.157,0.028,1.014,-0.2,-3.5,-0.7,869,766,0
R,,7268,0.158,0.026,1.015,0.3,-3.3,-0.4,870,766,0
R,,7278,0.156,0.026,1.015,0.9,-3.5,-0.5,871,767,0
R,,7288,0.154,0.025,1.012,0.4,-3.4,-0.8,872,767,0
R,,7298,0.160,0.029,1.015,0.4,-3.5,-0.9,871,768,0
R,,7308,0.157,0.030,1.017,0.6,-3.4,-0.5,869,771,0
R,,7318,0.155,0.028,1.015,0.5,-3.2,-0.7,873,772,0
R,,7328,0.155,0.028,1.016,0.5,-3.7,-0.7,873,769,0
R,,7338,0.157,0.028,1.016,0.2,-3.8,-0.7,871,771,0
R,,7348,0.156,0.028,1.014,0.4,-3.9,-0.6,872,772,0
R,,7358,0.158,0.028,1.013,0.3,-3.7,-0.5,873,773,0
R,,7368,0.158,0.027,1.012,0.2,-3.4,-0.5,872,771,0
R,,7378,0.156,0.027,1.016,0.4,-3.5,-0.7,873,772,0
R,,7388,0.154,0.025,1.014,0.9,-3.5,-0.7,875,774,0
R,,7398,0.155,0.025,1.015,0.9,-3.4,-0.7,875,774,0
R,,7408,0.156,0.029,1.015,0.6,-3.7,-0.6,875,776,0
R,,7418,0.156,0.029,1.015,0.0,-3.7,-0.7,874,774,0
R,,7428,0.158,0.029,1.014,0.0,-3.9,-0.7,878,780,0
R,,7438,0.157,0.025,1.015,0.3,-3.6,-0.6,874,780,0
R,,7448,0.157,0.027,1.015,0.8,-3.7,-0.9,878,783,0
R,,7458,0.158,0.029,1.017,0.7,-3.2,-0.9,876,783,0
R,,7468,0.157,0.026,1.013,0.9,-3.3,-0.6,875,783,0
R,,7478,0.155,0.031,1.015,0.5,-3.6,-0.8,876,786,0
R,,7488,0.152,0.031,1.013,0.2,-3.5,-0.6,879,786,0
R,,7498,0.159,0.031,1.018,0.2,-3.8,-0.5,878,788,0
R,,7508,0.158,0.026,1.016,0.0,-3.3,-0.7,877,787,0
R,,7518,0.154,0.027,1.014,0.2,-3.6,-0.9,878,786,0
R,,7528,0.154,0.028,1.014,0.7,-3.4,-0.7,878,786,0
R,,7538,0.156,0.030,1.013,1.0,-3.4,-0.8,880,790,0
R,,7548,0.155,0.029,1.014,0.7,-3.1,-0.6,879,791,0
R,,7558,0.155,0.027,1.015,0.1,-3.4,-0.7,877,792,0
R,,7568,0.159,0.027,1.015,0.2,-3.4,-0.7,879,792,0
R,,7578,0.157,0.025,1.017,0.6,-3.5,-0.5,881,793,0
R,,7588,0.158,0.027,1.014,0.8,-3.6,-0.7,881,796,0
R,,7598,0.157,0.028,1.014,0.4,-3.5,-0.8,880,798,0
R,,7608,0.160,0.026,1.015,0.4,-3.4,-0.5,882,797,0
R,,7618,0.158,0.028,1.017,0.7,-3.3,-0.7,881,795,0
R,,7628,0.157,0.026,1.017,0.6,-3.5,-0.7,880,797,0
R,,7638,0.156,0.028,1.016,0.4,-3.5,-0.8,881,797,0
R,,7648,0.155,0.026,1.016,0.6,-3.5,-0.7,882,798,0
R,,7658,0.157,0.029,1.015,0.5,-3.7,-0.6,882,799,0
R,,7668,0.156,0.029,1.014,0.4,-3.7,-0.4,881,801,0
R,,7678,0.157,0.026,1.016,0.1,-3.5,-0.7,883,802,0
R,,7688,0.156,0.025,1.015,0.2,-3.5,-0.7,883,800,0
R,,7698,0.155,0.027,1.015,0.6,-3.5,-0.7,883,802,0
R,,7708,0.156,0.027,1.014,0.9,-3.5,-0.6,882,802,0
R,,7718,0.157,0.029,1.016,0.6,-3.7,-0.7,883,801,0
R,,7728,0.158,0.030,1.014,0.3,-3.7,-0.9,883,803,0
R,,7738,0.157,0.030,1.014,0.2,-3.5,-0.6,885,804,0
R,,7748,0.157,0.026,1.016,0.2,-3.6,-0.4,885,802,0
R,,7758,0.156,0.026,1.014,0.5,-3.9,-0.7,887,804,0
R,,7768,0.157,0.030,1.016,0.4,-3.5,-0.9,886,803,0
R,,7778,0.157,0.029,1.013,0.5,-3.5,-0.6,886,803,0
R,,7788,0.154,0.026,1.015,0.4,-3.4,-0.7,885,807,0
R,,7798,0.154,0.028,1.016,0.4,-3.4,-0.7,886,806,0
R,,7808,0.155,0.025,1.016,0.7,-3.8,-0.6,888,805,0
R,,7818,0.157,0.031,1.015,0.3,-3.4,-0.8,887,806,0
R,,7828,0.157,0.030,1.013,0.4,-3.5,-0.7,886,804,0
R,,7838,0.155,0.027,1.013,0.4,-3.5,-0.7,885,805,0
R,,7848,0.157,0.028,1.015,0.5,-3.5,-0.7,885,807,0
R,,7858,0.153,0.027,1.016,0.6,-3.3,-0.6,885,803,0
R,,7868,0.157,0.028,1.018,0.6,-3.3,-0.7,888,808,0
R,,7878,0.154,0.029,1.016,0.7,-3.5,-0.7,886,808,0
R,,7888,0.155,0.028,1.014,0.5,-3.7,-0.7,888,807,0
R,,7898,0.155,0.029,1.013,0.4,-3.7,-0.6,888,806,0
R,,7908,0.155,0.029,1.014,0.2,-3.5,-0.5,887,806,0
R,,7918,0.158,0.026,1.016,0.4,-3.5,-0.5,887,805,0
R,,7928,0.158,0.026,1.015,0.6,-3.5,-0.7,887,805,0
R,,7938,0.156,0.027,1.016,0.7,-3.5,-0.7,885,806,0
R,,7948,0.157,0.026,1.016,0.8,-3.6,-0.7,887,807,0
R,,7958,0.157,0.029,1.013,0.5,-3.5,-0.7,886,807,0
R,,7968,0.157,0.028,1.013,0.3,-3.5,-0.6,885,806,0
R,,7978,0.157,0.027,1.016,0.2,-3.6,-0.7,887,804,0
R,,7988,0.156,0.027,1.014,0.4,-3.6,-0.7,887,804,0
R,,7998,0.156,0.028,1.014,0.7,-3.7,-0.9,887,806,0
R,,8008,0.158,0.028,1.015,0.5,-3.4,-0.7,884,807,0
R,,8018,0.157,0.028,1.016,0.5,-3.5,-0.6,888,807,0
R,,8028,0.156,0.029,1.016,0.5,-3.6,-0.8,886,806,0
R,,8038,0.158,0.028,1.017,0.4,-3.5,-0.7,886,803,0
R,,8048,0.156,0.028,1.018,0.4,-3.6,-0.7,885,805,0
R,,8058,0.155,0.028,1.016,0.4,-3.4,-0.6,885,805,0
R,,8068,0.157,0.029,1.012,0.4,-3.7,-0.6,885,806,0
R,,8080,0.156,0.027,1.015,0.4,-3.7,-0.7,884,805,0
R,,8090,0.156,0.029,1.015,0.4,-3.6,-0.7,885,805,0
R,,8100,0.157,0.028,1.015,0.3,-3.6,-0.7,885,804,0
R,,8110,0.157,0.031,1.017,0.4,-3.6,-0.7,883,805,0
R,,8120,0.157,0.028,1.013,0.5,-3.7,-0.8,885,805,0
R,,8130,0.156,0.027,1.015,0.4,-3.5,-0.7,885,805,0
R,,8140,0.156,0.029,1.013,0.2,-3.5,-0.7,886,804,0
R,,8150,0.157,0.028,1.014,0.6,-3.2,-0.8,883,806,0
R,,8160,0.156,0.027,1.017,0.7,-3.2,-0.7,883,804,0
R,,8170,0.156,0.026,1.015,0.7,-3.2,-0.8,884,803,0
R,,8180,0.158,0.028,1.016,0.4,-3.5,-0.7,884,806,0
R,,8190,0.157,0.026,1.016,0.6,-3.6,-0.7,887,806,0
R,,8200,0.156,0.026,1.014,0.4,-3.4,-0.6,885,805,0
R,,8210,0.158,0.026,1.013,0.2,-3.7,-0.7,883,803,0
R,,8220,0.155,0.025,1.013,0.3,-3.6,-0.7,884,802,0
R,,8230,0.155,0.026,1.017,0.7,-3.5,-0.7,885,804,0
R,,8240,0.155,0.025,1.018,0.8,-3.4,-0.7,882,802,0
R,,8250,0.155,0.027,1.015,0.4,-3.4,-0.8,883,800,0
R,,8260,0.156,0.028,1.016,0.5,-3.7,-0.7,881,802,0
R,,8270,0.157,0.030,1.015,0.6,-3.5,-0.6,883,802,0
R,,8280,0.156,0.026,1.014,0.4,-3.6,-0.6,882,804,0
R,,8290,0.157,0.027,1.014,0.5,-3.5,-0.7,882,803,0
R,,8300,0.160,0.028,1.015,0.8,-3.5,-0.8,884,803,0
R,,8310,0.154,0.028,1.015,1.0,-3.2,-0.5,881,804,0
R,,8320,0.156,0.027,1.015,0.8,-3.3,-0.5,882,802,0
R,,8330,0.157,0.028,1.016,1.1,-3.2,-0.8,881,801,0
R,,8340,0.156,0.031,1.018,0.5,-3.4,-0.9,881,803,0
R,,8350,0.156,0.031,1.014,0.4,-3.5,-0.7,882,802,0
R,,8360,0.155,0.030,1.013,0.3,-3.5,-0.7,881,801,0
R,,8370,0.155,0.029,1.014,0.3,-3.5,-0.6,882,800,0
R,,8380,0.153,0.027,1.014,0.4,-3.5,-0.6,880,799,0
R,,8390,0.157,0.029,1.014,0.3,-3.6,-0.7,880,799,0
R,,8400,0.156,0.027,1.013,0.4,-3.7,-0.5,879,800,0
R,,8448,0.157,0.027,1.015,0.4,-3.6,-0.5,879,799,0
R,,8507,0.159,0.029,1.018,0.5,-3.7,-0.5,872,796,0
R,,8568,0.154,0.029,1.015,0.3,-3.4,-0.7,870,793,0
R,,8627,0.158,0.028,1.013,0.4,-3.4,-0.6,870,796,0
R,,8688,0.156,0.030,1.016,0.2,-3.4,-0.7,878,802,0
R,,8748,0.156,0.029,1.016,0.0,-3.7,-0.6,879,801,0
R,,8808,0.155,0.029,1.016,0.7,-3.3,-0.7,881,803,0
R,,8868,0.154,0.027,1.016,0.3,-3.5,-0.9,884,809,0
R,,8928,0.156,0.031,1.017,0.3,-3.7,-0.4,883,808,0
R,,8988,0.159,0.027,1.016,0.4,-3.6,-0.5,885,809,0
R,,9047,0.155,0.027,1.016,0.4,-3.3,-0.8,887,814,0
R,,9107,0.155,0.029,1.017,0.2,-3.5,-0.7,888,814,0
R,,9167,0.157,0.029,1.016,0.5,-3.7,-1.0,890,815,0
R,,9228,0.158,0.027,1.016,0.6,-3.4,-0.6,889,818,0
R,,9288,0.154,0.027,1.015,0.6,-3.5,-0.7,891,821,0
R,,9348,0.157,0.029,1.017,0.4,-3.5,-0.9,892,822,0
R,,9408,0.154,0.029,1.016,0.6,-3.4,-0.5,894,825,0
R,,9467,0.156,0.027,1.014,0.5,-3.5,-0.7,890,824,0
R,,9528,0.157,0.031,1.018,0.7,-3.5,-0.8,892,828,0
R,,9587,0.157,0.027,1.016,0.4,-3.2,-0.7,895,827,0
R,,9648,0.154,0.028,1.017,0.6,-3.5,-0.9,892,825,0
R,,9716,0.155,0.031,1.019,0.7,-3.5,-0.6,893,827,0
R,,9768,0.155,0.031,1.018,0.7,-3.6,-0.7,894,828,0
R,,9828,0.156,0.028,1.015,0.2,-3.7,-0.8,893,829,0
R,,9888,0.155,0.030,1.015,0.5,-3.3,-0.7,893,828,0
R,,9948,0.154,0.029,1.018,0.3,-3.7,-0.7,895,828,0
R,,10007,0.157,0.029,1.016,0.7,-3.7,-0.3,892,828,0
R,,10068,0.158,0.030,1.018,1.1,-3.2,-0.8,891,828,0
R,,10127,0.159,0.031,1.017,0.7,-3.0,-1.1,893,829,0
R,,10188,0.155,0.032,1.015,0.5,-3.7,-0.6,894,827,0
R,,10248,0.159,0.025,1.015,1.0,-4.0,-0.1,894,828,0
R,,10308,0.154,0.032,1.017,0.1,-3.5,-0.6,896,828,0
R,,10368,0.155,0.029,1.016,0.5,-3.7,-0.5,898,831,0
R,,10428,0.156,0.031,1.017,0.7,-3.5,-0.9,894,831,0
R,,10488,0.156,0.028,1.016,0.4,-3.2,-0.7,891,828,0
R,,10547,0.154,0.030,1.017,0.4,-3.5,-0.6,892,830,0
R,,10608,0.156,0.028,1.016,0.4,-3.7,-0.7,892,831,0
R,,10667,0.156,0.032,1.018,0.2,-3.5,-0.8,892,830,0
R,,10728,0.157,0.034,1.017,0.6,-3.4,-0.7,891,829,0
R,,10788,0.157,0.030,1.018,0.5,-3.4,-0.7,891,829,0
R,,10848,0.154,0.030,1.013,0.9,-3.2,-0.7,891,828,0
R,,10908,0.155,0.028,1.013,0.2,-3.5,-0.8,894,831,0
R,,10968,0.156,0.033,1.019,0.0,-3.7,-0.4,890,827,0
R,,11028,0.153,0.034,1.016,0.4,-3.5,-0.6,889,825,0
R,,11087,0.156,0.029,1.015,0.4,-3.5,-0.7,887,824,0
R,,11178,0.155,0.029,1.016,0.7,-3.5,-0.8,886,824,0
R,,11238,0.154,0.032,1.016,0.4,-3.5,-0.6,886,823,0
R,,11297,0.158,0.028,1.018,0.2,-3.5,-0.5,883,820,0
R,,11358,0.156,0.034,1.017,0.4,-3.7,-0.6,883,818,0
R,,11417,0.157,0.032,1.015,0.9,-3.1,-0.4,882,815,0
R,,11478,0.155,0.029,1.015,0.1,-3.7,-0.9,878,814,0
R,,11538,0.152,0.031,1.017,0.1,-3.7,-0.5,880,814,0
R,,11598,0.155,0.029,1.018,0.7,-3.1,-0.7,876,812,0
R,,11658,0.157,0.029,1.016,0.4,-3.8,-0.9,878,811,0
R,,11748,0.156,0.032,1.016,0.7,-3.5,-0.6,872,804,0
R,,11808,0.153,0.031,1.017,0.4,-3.4,-0.6,870,801,0
R,,11868,0.157,0.029,1.017,0.5,-3.7,-0.8,866,801,0
R,,11928,0.155,0.034,1.012,0.7,-3.5,-0.7,867,797,0
R,,11988,0.155,0.031,1.018,0.4,-3.9,-0.4,865,798,0
R,,12047,0.154,0.031,1.020,0.7,-3.3,-1.1,867,797,0
R,,12108,0.157,0.031,1.016,0.8,-3.5,-0.7,868,797,0
R,,12167,0.153,0.029,1.014,0.2,-3.7,-0.5,869,797,0
R,,12228,0.151,0.033,1.018,0.2,-3.9,-0.6,869,795,0
R,,12288,0.157,0.027,1.016,0.6,-3.3,-0.6,869,795,0
R,,12348,0.158,0.030,1.018,0.6,-3.2,-0.9,870,792,0
R,,12408,0.156,0.030,1.016,0.4,-3.2,-0.7,876,797,0
R,,12468,0.156,0.029,1.015,0.1,-3.4,-0.4,876,793,0
R,,12537,0.154,0.030,1.020,0.2,-3.7,-0.7,876,791,0
R,,12587,0.155,0.032,1.018,0.4,-3.7,-0.6,878,792,0
R,,12648,0.155,0.030,1.015,0.7,-2.9,-1.1,881,794,0
R,,12708,0.154,0.034,1.019,0.8,-3.5,-0.5,882,790,0
R,,12768,0.156,0.033,1.018,0.2,-3.8,-0.3,880,787,0
R,,12828,0.155,0.031,1.017,0.4,-3.7,-0.6,884,785,0
R,,12917,0.153,0.029,1.016,0.4,-3.5,-0.7,882,773,0
R,,12982,0.154,0.030,1.019,0.5,-3.7,-0.9,882,777,0
R,,13038,0.154,0.030,1.017,0.4,-3.7,-0.5,882,779,0
R,,13098,0.155,0.030,1.016,0.7,-3.5,-0.8,878,780,0
R,,13158,0.157,0.029,1.016,0.6,-3.2,-0.6,880,782,0
R,,13218,0.154,0.029,1.017,0.4,-3.5,-0.7,877,781,0
R,,13278,0.153,0.034,1.017,0.4,-3.4,-0.7,880,785,0
R,,13337,0.154,0.029,1.015,0.4,-3.6,-0.6,879,786,0
R,,13398,0.153,0.032,1.019,0.3,-3.8,-0.5,880,785,0
R,,13458,0.154,0.032,1.013,0.5,-3.2,-0.7,879,787,0
R,,13518,0.155,0.028,1.013,0.7,-3.0,-0.7,880,786,0
R,,13578,0.155,0.031,1.015,0.4,-3.5,-0.9,879,787,0
R,,13638,0.154,0.032,1.019,0.7,-3.5,-0.7,878,788,0
R,,13698,0.152,0.035,1.018,0.4,-3.9,-0.5,882,789,0
R,,13758,0.155,0.029,1.015,0.6,-3.7,-0.7,876,785,0
R,,13818,0.152,0.030,1.013,0.7,-3.5,-0.5,874,784,0
R,,13877,0.155,0.034,1.016,0.5,-3.4,-0.9,876,785,0
R,,13938,0.152,0.034,1.017,0.8,-3.5,-0.8,876,783,0
R,,13998,0.153,0.032,1.016,0.7,-3.4,-0.6,876,782,0
R,,14058,0.156,0.032,1.017,0.4,-3.7,-0.8,874,777,0
R,,14118,0.155,0.031,1.016,0.8,-3.5,-0.7,873,776,0
R,,14178,0.153,0.030,1.018,0.6,-3.5,-0.9,874,776,0
R,,14238,0.153,0.033,1.020,0.4,-3.6,-0.8,874,774,0
R,,14298,0.156,0.030,1.018,0.9,-3.2,-0.7,866,766,0
R,,14358,0.156,0.032,1.022,0.3,-3.7,-0.5,867,764,0
R,,14417,0.156,0.031,1.016,0.2,-3.9,-0.6,864,758,0
R,,14478,0.154,0.032,1.016,0.2,-3.5,-0.6,866,754,0
R,,14538,0.150,0.032,1.017,0.7,-3.5,-0.8,864,751,0
R,,14598,0.155,0.032,1.017,0.4,-3.5,-0.4,864,734,0
R,,14658,0.154,0.032,1.018,0.3,-3.7,-0.7,862,733,0
R,,14718,0.155,0.031,1.018,0.2,-3.5,-0.6,861,737,0
R,,14778,0.155,0.034,1.017,0.5,-3.5,-0.5,869,747,0
R,,14838,0.153,0.030,1.015,0.2,-3.6,-0.6,863,756,0
R,,14898,0.155,0.032,1.019,0.4,-3.5,-0.7,863,759,0
R,,14958,0.152,0.033,1.019,0.1,-3.9,-0.4,862,758,0
R,,15048,0.154,0.034,1.013,1.0,-3.9,-0.9,876,780,0
R,,15108,0.156,0.035,1.019,1.0,-3.5,-0.8,880,784,0
R,,15167,0.160,0.033,1.016,0.9,-3.6,-0.3,882,785,0
R,,15228,0.154,0.032,1.015,0.2,-3.8,-0.9,880,788,0
R,,15288,0.157,0.029,1.016,0.5,-3.5,-0.6,882,789,0
R,,15348,0.155,0.031,1.016,0.7,-3.6,-0.7,882,790,0
R,,15408,0.155,0.031,1.017,0.4,-3.5,-0.9,880,792,0
R,,15468,0.155,0.031,1.016,0.7,-3.5,-0.8,884,796,0
R,,15528,0.155,0.032,1.019,0.6,-3.6,-0.7,887,798,0
R,,15588,0.148,0.037,1.015,0.2,-3.7,-0.7,885,802,0
R,,15648,0.153,0.027,1.018,0.9,-3.2,-0.4,888,801,0
R,,15708,0.155,0.032,1.017,0.7,-3.7,-0.9,890,803,0
R,,15768,0.154,0.030,1.016,0.4,-3.7,-0.7,893,806,0
R,,15836,0.156,0.032,1.017,0.7,-3.6,-0.8,891,809,0
R,,15888,0.155,0.030,1.017,0.4,-3.5,-0.8,892,805,0
R,,15948,0.153,0.028,1.017,0.7,-3.4,-0.7,892,807,0
R,,16008,0.155,0.034,1.010,-0.6,-5.3,-0.7,892,808,0
R,,16068,0.340,0.206,1.500,12.1,31.9,-13.0,885,719,0
R,,16128,0.199,-0.031,0.806,0.7,-9.0,13.5,866,716,0
R,,16188,0.135,0.173,1.278,34.6,24.7,6.4,738,730,0
R,,16248,0.201,-0.081,1.004,-37.8,35.5,-13.1,737,729,0
R,,16307,0.232,-0.151,1.390,-65.2,55.7,0.0,745,735,0
R,,16368,-0.057,-0.031,1.011,-18.2,99.0,7.8,857,788,0
R,,16428,-0.150,0.203,0.890,-32.4,69.1,6.7,879,884,0
R,,16488,-0.182,-0.081,0.957,83.9,50.1,-21.8,885,893,0
R,,16548,-0.160,0.046,0.897,13.0,68.3,-2.7,876,881,0
R,,16608,-0.130,0.048,0.742,5.9,-1.2,37.3,804,820,0
R,,16667,-0.176,0.127,0.729,-3.0,-30.1,0.9,842,851,0
R,,16728,-0.111,0.141,0.895,-13.5,-114.3,5.6,745,566,0
R,,16788,-0.051,-0.091,1.113,-55.6,-83.7,-2.4,928,903,0
R,,16848,0.019,0.136,0.846,92.4,-122.9,-11.4,923,899,0
R,,16908,0.327,-0.379,2.100,64.7,-18.3,0.9,871,726,0
R,,16968,0.064,0.119,0.640,-17.7,-9.9,-6.5,841,818,0
R,,17028,0.154,-0.035,1.170,6.5,-4.0,2.1,849,826,0
R,,17088,0.148,0.064,0.976,1.7,6.0,1.6,885,826,0
R,,17148,0.136,0.037,1.012,6.0,-7.9,-1.4,885,782,0
R,,17208,0.132,0.031,1.038,1.3,-3.1,-0.3,888,835,0
R,,17268,0.131,0.032,1.045,2.6,6.3,-0.2,890,845,0
R,,17328,0.158,-0.016,1.226,5.0,42.4,0.1,878,848,0
R,,17388,0.089,-0.027,1.187,-21.7,53.2,12.6,759,856,0
R,,17448,-0.040,0.054,1.007,-37.5,38.8,-0.4,869,848,0
R,,17508,-0.030,0.052,0.853,27.2,34.5,3.1,891,879,0
R,,17568,-0.051,0.044,1.010,-8.6,38.5,7.0,848,856,0
R,,17628,-0.114,-0.002,1.050,2.7,-0.4,7.5,850,833,0
R,,17688,-0.130,0.057,1.008,-11.6,9.8,-10.0,854,801,0
R,,17748,-0.065,0.006,0.915,14.1,-24.3,-6.0,850,793,0
R,,17808,0.000,-0.009,0.657,13.8,-60.3,-5.3,851,869,0
R,,17868,-0.275,0.251,1.011,32.9,-160.5,3.0,820,897,0
R,,17928,0.150,-0.312,1.734,-73.8,-12.3,3.3,758,845,0
R,,17988,0.104,0.100,0.767,4.2,-10.5,-10.0,765,841,0
R,,18048,0.073,-0.077,1.150,4.6,-7.7,-3.5,768,871,0
R,,18108,0.053,0.068,1.069,-10.7,27.1,-8.4,753,869,0
R,,18168,0.084,-0.029,0.967,11.7,9.2,-1.9,772,845,0
R,,18228,0.059,-0.029,1.048,-9.2,4.3,-0.2,780,807,0
R,,18288,0.065,0.017,0.984,0.0,-3.0,-0.7,779,809,0
R,,18348,0.062,0.000,1.054,4.0,-7.0,-0.2,790,800,0
R,,18408,0.061,-0.003,1.029,1.4,-2.5,-1.1,797,781,0
R,,18468,0.068,0.017,1.040,-1.4,-1.8,-3.4,800,771,0
R,,18528,0.062,-0.028,1.026,-1.2,2.3,-1.3,809,768,0
R,,18596,0.039,-0.011,1.040,3.5,0.0,0.0,805,795,0
R,,18648,0.052,-0.015,1.026,3.9,0.0,0.7,801,801,0
R,,18708,0.049,-0.021,1.068,-7.4,6.1,-2.4,838,836,0
R,,18768,0.015,-0.011,0.995,-17.6,1.4,-3.0,852,868,0
R,,18828,0.021,-0.020,1.028,6.4,-4.3,-0.6,855,879,0
R,,18888,0.029,-0.027,0.998,3.9,-12.7,0.0,858,884,0
R,,18948,0.036,-0.017,1.046,-0.4,-10.7,-0.7,857,880,0
R,,19010,0.034,-0.010,1.020,2.5,-6.2,-1.1,866,876,0
R,,19098,0.054,-0.012,1.027,-3.7,-4.4,-1.8,871,879,0
R,,19158,0.049,-0.030,1.037,-2.1,-3.0,-0.7,870,880,0
R,,19218,0.062,-0.051,1.022,7.1,-9.6,2.6,869,874,0
R,,19278,0.058,0.118,1.016,-26.9,-8.1,-12.1,846,857,0
R,,19338,-0.013,-0.266,0.982,-4.4,-4.4,0.7,861,852,0
R,,19398,0.113,-0.050,1.008,6.0,0.1,1.8,874,857,0
R,,19458,0.061,-0.074,1.036,-6.9,-3.5,-0.7,876,859,0
R,,19518,0.062,-0.056,0.874,6.7,-6.5,1.2,879,911,0
R,,19578,0.070,-0.037,1.045,0.2,-8.6,-1.3,876,860,0
R,,19637,0.053,-0.079,1.024,-1.1,-3.7,-0.4,876,859,0
R,,19698,0.074,-0.055,1.018,-5.1,-3.6,-0.3,858,892,0
R,,19758,0.062,-0.024,1.017,-13.5,-5.3,-3.9,878,884,0
R,,19818,0.047,-0.109,1.037,6.7,-5.8,-0.2,881,911,0
R,,19878,0.068,-0.071,1.029,3.2,-5.2,-0.1,875,888,0
R,,19968,0.077,-0.073,1.014,1.1,-3.8,-0.7,880,889,0
R,,20028,0.073,-0.068,1.032,0.2,-3.0,-1.1,877,892,0
R,,20088,0.080,-0.063,1.016,0.6,-3.2,-0.7,881,899,0
R,,20148,0.073,-0.066,1.030,0.1,-3.3,-1.0,883,915,0
R,,20208,0.071,-0.071,1.016,0.4,-3.2,-0.6,876,914,0
R,,20268,0.076,-0.070,1.020,0.4,-3.4,-0.7,878,913,0
R,,20328,0.081,-0.068,1.037,1.6,-2.8,-0.7,879,916,0
R,,20388,0.076,-0.069,1.025,2.2,-3.7,-0.3,878,916,0
R,,20448,0.077,-0.061,1.023,1.6,-3.2,-0.7,878,916,0
R,,20508,0.075,-0.070,1.017,-0.9,-2.5,-0.8,878,915,0
R,,20568,0.073,-0.072,1.024,0.7,-2.1,-0.4,875,915,0
R,,20628,0.073,-0.070,1.022,-0.8,-3.2,-1.5,870,916,0
R,,20688,0.075,-0.064,1.025,1.7,-4.1,-0.7,868,922,0
R,,20749,0.078,-0.060,1.026,1.6,-4.2,-1.0,864,919,0
R,,20808,0.080,-0.063,1.014,1.8,-5.6,-0.9,853,915,0
R,,20868,0.073,-0.066,1.042,-1.0,-2.7,-1.0,841,904,0
R,,20927,0.080,-0.066,1.017,-0.4,-3.0,-0.7,832,915,0
R,,20988,0.076,-0.069,1.027,0.9,-3.1,-0.2,838,914,0
R,,21048,0.078,-0.068,1.017,1.8,-2.8,-0.3,842,914,0
R,,21108,0.066,-0.063,1.033,-0.1,-2.1,-1.2,847,917,0
R,,21168,0.053,-0.086,1.027,-4.2,-0.1,-0.3,851,913,0
R,,21228,0.081,-0.166,1.027,0.2,8.1,4.8,909,905,0
R,,21288,0.064,0.063,1.040,52.1,0.2,1.2,884,862,0
R,,21348,0.076,-0.016,0.999,-14.4,-2.0,-1.8,868,857,0
R,,21408,0.058,0.016,1.054,-1.1,-4.9,-0.1,873,856,0
R,,21468,0.062,0.011,1.028,1.6,-2.8,-0.2,871,856,0
R,,21528,0.063,0.007,1.027,1.5,-3.5,-0.4,873,855,0
R,,21588,0.071,0.015,1.030,2.1,-3.9,-1.0,874,861,0
R,,21648,0.071,0.005,1.013,6.9,-5.1,-0.6,894,835,0
R,,21708,0.053,-0.006,1.031,2.5,-4.6,-1.4,893,836,0
R,,21768,0.058,0.000,1.016,2.1,-4.6,-0.7,895,837,0
R,,21828,0.070,0.009,1.025,0.7,-4.8,-0.6,893,836,0
R,,21897,0.061,0.007,1.029,1.1,-3.1,-0.2,895,837,0
R,,21948,0.063,0.006,1.023,0.7,-3.2,-0.6,895,839,0
R,,22008,0.063,0.009,1.023,0.4,-3.7,-0.9,894,836,0
R,,22068,0.060,0.008,1.028,0.3,-3.5,-0.7,895,838,0
R,,22128,0.062,0.008,1.024,0.7,-3.7,-0.6,894,837,0
R,,22188,0.062,0.008,1.026,0.4,-3.5,-0.7,895,844,0
R,,22249,0.061,0.008,1.026,0.8,-3.5,-0.6,894,843,0
R,,22308,0.061,0.007,1.027,0.4,-3.5,-0.8,896,844,0
R,,22368,0.062,0.007,1.028,0.5,-3.5,-0.8,897,843,0
R,,22428,0.062,0.010,1.028,0.4,-3.5,-0.6,895,847,0
R,,22488,0.061,0.008,1.025,0.4,-3.5,-0.9,895,847,0
R,,22548,0.063,0.007,1.025,0.7,-3.5,-0.6,897,846,0
R,,22608,0.065,0.003,1.023,0.9,-4.4,0.2,897,840,0
R,,22668,0.064,0.001,1.035,-0.2,-3.5,-0.8,898,842,0
R,,22728,0.061,0.007,1.021,0.2,-3.3,-0.4,903,844,0
R,,22789,0.062,0.010,1.023,1.0,-2.8,-0.9,898,855,0
R,,22848,0.059,0.010,1.023,0.9,-3.5,-0.5,895,848,0
R,,22908,0.062,0.010,1.029,0.4,-3.4,-0.7,895,850,0
R,,22968,0.061,0.011,1.026,0.5,-3.7,-0.7,897,849,0
R,,23028,0.064,0.011,1.021,0.2,-3.2,-0.7,895,843,0
R,,23088,0.062,0.009,1.028,0.3,-3.4,-0.7,895,837,0
R,,23148,0.062,0.011,1.025,0.5,-3.7,-0.9,897,840,0
R,,23208,0.061,0.009,1.026,0.6,-3.5,-0.6,897,842,0
R,,23268,0.064,0.013,1.026,0.3,-3.6,-0.7,897,842,0
R,,23329,0.065,0.011,1.022,0.2,-3.5,-0.6,894,841,0
R,,23388,0.062,0.008,1.029,0.6,-3.4,-0.5,895,842,0
R,,23478,0.063,0.012,1.028,0.4,-3.5,-0.6,900,847,0
R,,23539,0.062,0.012,1.025,0.4,-3.6,-0.9,896,842,0
R,,23598,0.063,0.011,1.028,0.0,-3.3,-0.6,896,838,0
R,,23658,0.064,0.008,1.027,0.4,-3.7,-0.6,893,842,0
R,,23718,0.059,0.010,1.025,-0.1,-3.6,-0.5,895,848,0
R,,23778,0.060,0.013,1.029,0.2,-3.6,-0.4,895,851,0
R,,23838,0.062,0.012,1.019,0.7,-4.1,-0.8,892,854,0
R,,23898,0.066,0.010,1.029,0.6,-4.2,-0.5,894,856,0
R,,23958,0.063,0.011,1.025,0.4,-4.4,-0.6,895,862,0
R,,24018,0.062,0.009,1.025,0.5,-3.9,-0.8,897,865,0
R,,24079,0.063,0.009,1.028,0.6,-3.5,-0.5,895,866,0
R,,24138,0.065,0.012,1.026,0.6,-3.5,-0.6,893,867,0
R,,24198,0.067,0.013,1.027,0.4,-3.2,-0.8,894,869,0
R,,24258,0.063,0.012,1.026,0.3,-3.6,-0.4,894,871,0
R,,24318,0.066,0.011,1.025,0.3,-3.2,-0.7,895,869,0
R,,24378,0.058,0.009,1.023,0.2,-3.5,-0.6,894,870,0
R,,24438,0.062,0.001,1.030,-0.1,-2.8,-1.1,891,870,0
R,,24499,0.065,0.000,1.027,0.7,-3.2,0.0,880,865,0
R,,24558,0.057,0.014,1.013,-2.0,-2.3,-1.2,900,868,0
R,,24618,0.063,0.004,1.034,-2.1,-4.7,-0.8,900,867,0
R,,24687,0.067,0.005,1.029,0.1,-2.9,-0.4,900,864,0
R,,24738,0.066,0.010,1.022,0.4,-3.8,-0.3,900,864,0
R,,24798,0.062,0.007,1.025,-1.8,-1.4,-1.4,900,865,0
R,,24858,0.096,0.012,1.040,6.2,-5.1,-0.9,898,861,0
R,,24918,0.073,0.004,1.023,2.1,-3.8,-0.7,900,860,0
R,,24978,0.063,0.004,1.033,0.7,-3.1,-0.9,899,859,0
R,,25039,0.064,0.008,1.024,1.1,-3.0,-0.7,898,860,0
R,,25102,0.061,0.009,1.022,0.9,-3.8,-0.7,899,860,0
R,,25158,0.061,0.010,1.032,0.3,-3.5,-0.6,900,859,0
R,,25218,0.063,0.010,1.025,0.3,-2.8,-0.7,900,861,0
R,,25278,0.063,0.010,1.027,0.5,-3.7,-0.9,899,859,0
R,,25338,0.061,0.009,1.028,0.7,-3.2,-0.6,900,859,0
R,,25398,0.062,0.012,1.025,0.4,-3.6,-0.7,902,859,0
R,,25458,0.061,0.011,1.025,0.4,-3.6,-0.7,899,861,0
R,,25518,0.062,0.009,1.027,0.4,-3.5,-0.6,903,861,0
R,,25579,0.061,0.010,1.026,0.3,-3.5,-0.7,899,860,0
R,,25638,0.063,0.007,1.027,0.3,-3.5,-0.7,901,859,0
R,,25698,0.062,0.010,1.025,0.3,-3.5,-0.5,900,860,0
R,,25758,0.061,0.011,1.027,0.6,-3.7,-0.8,900,857,0
R,,25818,0.061,0.009,1.026,0.4,-3.3,-0.6,900,858,0
R,,25878,0.061,0.011,1.024,0.3,-3.7,-0.9,900,857,0
R,,25938,0.061,0.008,1.030,0.5,-3.4,-0.7,901,858,0
R,,25999,0.061,0.008,1.023,0.7,-3.0,-0.9,900,857,0
R,,26058,0.062,0.013,1.032,0.2,-4.3,-0.6,903,859,0
R,,26119,0.065,0.009,1.025,0.3,-3.6,-0.4,900,856,0
R,,26178,0.062,0.009,1.027,0.4,-3.2,-0.9,902,855,0
R,,26238,0.061,0.012,1.027,1.0,-3.0,-1.0,900,859,0
R,,26298,0.060,0.011,1.031,0.3,-3.9,-0.5,903,857,0
R,,26358,0.062,0.007,1.026,-0.2,-3.8,-0.5,900,858,0
R,,26418,0.062,0.010,1.025,0.2,-3.4,-0.5,902,858,0
R,,26478,0.061,0.009,1.028,0.4,-3.3,-0.8,900,857,0
R,,26539,0.065,0.011,1.023,0.1,-3.5,-0.7,902,858,0
R,,26598,0.062,0.008,1.027,0.5,-3.1,-0.8,905,861,0
R,,26659,0.064,0.010,1.028,0.5,-3.9,-0.6,902,858,0
R,,26718,0.064,0.010,1.024,0.6,-3.5,-0.7,900,860,0
R,,26778,0.061,0.010,1.022,0.6,-2.5,-1.0,902,859,0
R,,26837,0.061,0.010,1.030,1.8,-3.8,-0.9,903,857,0
R,,26898,0.040,0.011,1.025,2.0,-4.4,0.0,880,856,0
R,,26958,0.054,0.013,1.028,-1.6,-4.3,-1.1,883,847,0
R,,27018,0.064,0.016,1.020,0.0,-4.6,-0.5,881,837,0
R,,27079,0.062,0.008,1.032,0.4,-3.6,-0.5,880,833,0
R,,27138,0.062,0.012,1.021,0.8,-3.2,-1.1,880,834,0
R,,27198,0.064,0.010,1.025,0.7,-3.2,-0.8,881,833,0
R,,27258,0.061,0.012,1.026,0.6,-3.6,-0.4,881,833,0
R,,27318,0.060,0.012,1.026,0.5,-3.7,-0.7,883,834,0
R,,27378,0.063,0.011,1.026,0.5,-3.5,-0.4,879,834,0
R,,27438,0.059,0.010,1.025,0.0,-3.4,-0.9,880,835,0
R,,27499,0.060,0.008,1.028,0.4,-3.5,-0.6,881,837,0
R,,27558,0.060,0.012,1.025,0.4,-3.4,-0.7,892,841,0
R,,27619,0.064,0.010,1.028,0.2,-3.7,-0.7,889,838,0
R,,27678,0.065,0.007,1.033,0.2,-2.8,-0.8,887,839,0
R,,27738,0.063,0.014,1.019,0.4,-3.5,-0.7,891,874,0
R,,27798,0.065,0.015,1.030,1.0,-3.5,-0.7,889,865,0
R,,27858,0.065,0.012,1.031,4.8,0.1,-2.3,889,889,0
R,,27926,0.057,0.013,1.013,1.1,-3.2,-0.9,889,888,0
R,,27978,0.058,0.006,1.027,0.6,-4.1,-0.6,890,883,0
R,,28039,0.059,0.013,1.022,0.8,-3.5,-1.0,891,871,0
R,,28098,0.061,0.017,1.024,1.1,-4.0,-0.8,892,840,0
R,,28159,0.063,0.015,1.032,0.6,-3.9,-0.4,890,840,0
R,,28218,0.064,0.014,1.023,0.7,-3.7,-0.7,891,840,0
R,,28278,0.062,0.013,1.023,0.8,-3.8,-0.5,888,850,0
R,,28338,0.068,0.013,1.028,0.5,-4.1,-0.3,887,856,0
R,,28398,0.065,0.014,1.023,0.4,-3.2,-0.8,887,858,0
R,,28458,0.060,0.016,1.023,1.0,-3.2,-0.7,885,892,0
R,,28518,0.064,0.015,1.030,0.2,-3.6,-0.7,883,891,0
R,,28579,0.060,0.012,1.026,0.3,-3.6,-0.5,880,891,0
R,,28638,0.061,0.014,1.023,0.2,-3.5,-0.7,884,891,0
R,,28699,0.065,0.011,1.030,0.2,-3.5,-0.7,878,888,0
R,,28758,0.062,0.012,1.025,0.2,-3.3,-0.4,876,889,0
R,,28818,0.061,0.013,1.024,0.2,-3.7,-0.7,877,880,0
R,,28878,0.065,0.011,1.029,0.4,-3.5,-0.7,878,883,0
R,,28938,0.062,0.013,1.022,0.6,-3.3,-0.6,879,880,0
R,,28999,0.064,0.016,1.024,0.3,-3.8,-0.9,878,881,0
R,,29058,0.062,0.012,1.027,0.4,-3.5,-0.6,880,888,0
R,,29119,0.065,0.016,1.029,0.4,-3.5,-0.8,882,888,0
R,,29178,0.061,0.016,1.025,0.0,-4.1,-0.6,886,889,0
R,,29239,0.066,0.012,1.029,0.1,-3.7,-0.4,883,888,0
R,,29298,0.062,0.012,1.029,0.3,-3.4,-0.7,886,887,0
R,,29358,0.063,0.014,1.025,0.6,-3.7,-0.7,884,888,0
R,,29418,0.063,0.013,1.029,0.2,-3.5,-0.6,886,884,0
R,,29478,0.069,0.013,1.028,0.2,-3.6,-0.6,886,886,0
R,,29539,0.062,0.011,1.026,0.0,-3.2,-0.4,887,880,0
R,,29598,0.061,0.013,1.025,0.2,-3.5,-0.9,886,880,0
R,,29659,0.066,0.013,1.027,0.3,-3.5,-0.5,886,880,0
R,,29718,0.068,0.015,1.025,0.7,-3.6,-0.6,888,882,0
R,,29778,0.063,0.013,1.028,0.4,-3.4,-0.9,887,886,0
R,,29838,0.061,0.012,1.025,0.8,-3.1,-0.5,886,887,0
R,,29898,0.063,0.014,1.024,0.4,-3.6,-0.7,883,885,0
R,,29958,0.065,0.012,1.025,0.4,-3.7,-0.7,884,884,0
R,,30018,0.069,0.015,1.033,0.0,-3.3,-0.7,885,885,0
R,,30079,0.061,0.013,1.025,0.4,-3.4,-0.8,884,887,0
R,,30138,0.065,0.016,1.025,0.9,-3.6,-0.7,890,891,0
R,,30199,0.065,0.019,1.031,0.0,-3.2,-0.7,884,886,0
R,,30258,0.062,0.016,1.026,-0.4,-3.7,-0.5,883,886,0
R,,30318,0.068,0.013,1.021,0.6,-4.0,-0.4,882,889,0
R,,30378,0.062,0.016,1.033,-0.2,-3.4,-0.9,885,888,0
R,,30438,0.061,0.012,1.024,0.4,-3.4,-0.7,883,888,0
R,,30499,0.070,0.011,1.023,0.6,-4.2,-0.4,882,890,0
R,,30558,0.064,0.012,1.029,0.6,-3.8,-0.7,883,890,0
R,,30619,0.064,0.013,1.026,0.2,-3.7,-0.8,882,889,0
R,,30687,0.064,0.015,1.024,0.4,-3.7,-0.7,882,888,0
R,,30739,0.064,0.014,1.028,0.2,-3.5,-0.7,882,888,0
R,,30798,0.065,0.014,1.024,0.3,-3.3,-0.7,864,888,0
R,,30858,0.061,0.014,1.027,0.5,-3.4,-0.7,853,889,0
R,,30918,0.062,0.012,1.030,0.7,-3.3,-0.7,852,890,0
R,,30978,0.066,0.013,1.026,0.2,-3.2,-0.7,852,889,0
R,,31039,0.063,0.012,1.027,0.3,-3.7,-0.7,852,889,0
R,,31100,0.063,0.014,1.027,0.2,-3.6,-0.7,854,883,0
R,,31159,0.065,0.013,1.026,0.4,-3.6,-0.8,852,882,0
R,,31218,0.064,0.013,1.026,0.4,-3.7,-0.6,852,884,0
R,,31279,0.061,0.013,1.027,0.3,-3.3,-0.9,851,883,0
R,,31338,0.063,0.011,1.022,0.7,-3.7,-0.6,853,880,0
R,,31398,0.062,0.013,1.024,0.2,-3.7,-0.5,853,883,0
R,,31458,0.064,0.015,1.027,0.0,-3.9,-0.8,853,882,0
R,,31518,0.062,0.015,1.025,0.0,-3.4,-0.6,852,878,0
R,,31579,0.066,0.014,1.026,0.8,-3.6,-0.7,853,879,0
R,,31638,0.067,0.017,1.028,0.7,-3.5,-0.8,852,880,0
R,,31699,0.070,0.016,1.025,0.7,-3.8,-0.4,854,879,0
R,,31758,0.069,0.014,1.029,0.1,-3.7,-0.8,852,884,0
R,,31819,0.064,0.012,1.026,0.4,-3.4,-0.5,853,880,0
R,,31878,0.063,0.013,1.024,0.3,-3.7,-0.7,853,880,0
R,,31938,0.063,0.013,1.027,0.3,-3.6,-0.6,854,880,0
R,,31999,0.061,0.011,1.022,0.4,-3.4,-0.7,853,881,0
R,,32058,0.063,0.013,1.024,0.5,-3.7,-0.9,854,882,0
R,,32119,0.065,0.013,1.027,0.4,-3.4,-0.7,856,880,0
R,,32178,0.061,0.011,1.026,0.4,-3.4,-0.7,853,880,0
R,,32239,0.063,0.012,1.025,0.5,-3.7,-0.7,854,881,0
R,,32298,0.061,0.015,1.026,0.2,-3.5,-0.6,854,887,0
R,,32358,0.065,0.010,1.025,0.4,-3.5,-0.8,853,889,0
R,,32418,0.061,0.009,1.026,0.6,-3.2,-0.6,855,891,0
R,,32478,0.062,0.010,1.024,0.2,-3.7,-0.7,854,890,0
R,,32539,0.065,0.013,1.027,0.3,-3.4,-0.8,855,890,0
R,,32598,0.066,0.014,1.028,0.3,-3.4,-0.6,855,890,0
R,,32659,0.062,0.014,1.024,0.4,-3.4,-0.9,855,891,0
R,,32718,0.066,0.013,1.025,0.6,-3.2,-0.8,862,893,0
R,,32779,0.063,0.014,1.026,0.5,-3.5,-0.5,880,890,0
R,,32838,0.067,0.011,1.027,0.4,-3.6,-0.7,878,886,0
R,,32898,0.062,0.011,1.027,0.6,-3.2,-0.7,882,884,0
R,,32958,0.065,0.013,1.027,0.1,-3.4,-0.7,882,883,0
R,,33018,0.063,0.014,1.025,0.4,-3.7,-0.5,885,885,0
R,,33079,0.065,0.016,1.029,0.4,-3.5,-0.7,883,883,0
R,,33138,0.067,0.013,1.026,0.7,-3.6,-0.7,882,884,0
R,,33199,0.065,0.011,1.025,0.5,-3.6,-0.7,884,883,0
R,,33258,0.063,0.012,1.027,0.7,-3.5,-0.7,888,890,0
R,,33319,0.065,0.014,1.029,0.4,-3.3,-0.6,884,886,0
R,,33378,0.062,0.014,1.023,0.4,-3.5,-0.5,886,884,0
R,,33438,0.067,0.016,1.027,0.3,-3.8,-0.8,887,886,0
R,,33499,0.065,0.013,1.024,0.5,-3.4,-0.6,889,886,0
R,,33558,0.064,0.013,1.025,0.5,-3.4,-0.7,890,886,0
R,,33619,0.065,0.015,1.027,0.7,-3.4,-0.8,892,888,0
R,,33678,0.065,0.013,1.027,0.6,-3.3,-0.7,891,888,0
R,,33739,0.060,0.017,1.027,0.1,-3.4,-0.9,891,887,0
R,,33798,0.062,0.013,1.025,0.3,-3.5,-0.5,892,887,0
R,,33859,0.062,0.014,1.026,0.4,-3.9,-0.6,893,889,0
R,,33927,0.063,0.013,1.027,0.4,-3.1,-0.5,894,888,0
R,,33978,0.063,0.013,1.024,0.6,-3.3,-0.7,895,889,0
R,,34039,0.068,0.013,1.026,0.3,-3.5,-0.7,894,890,0
R,,34098,0.066,0.015,1.024,0.4,-3.5,-0.7,893,888,0
R,,34159,0.068,0.010,1.029,0.0,-3.6,-0.6,895,892,0
R,,34218,0.062,0.011,1.024,0.5,-3.5,-0.7,895,893,0
R,,34279,0.068,0.016,1.022,0.4,-3.6,-0.7,895,890,0
R,,34338,0.064,0.013,1.028,0.4,-3.3,-0.7,897,895,0
R,,34399,0.068,0.012,1.024,0.3,-3.6,-0.7,895,889,0
R,,34458,0.065,0.014,1.024,0.4,-3.5,-0.6,898,889,0
R,,34518,0.063,0.012,1.023,0.9,-3.9,-0.4,896,889,0
R,,34578,0.067,0.016,1.030,1.6,-3.4,-0.7,896,889,0
R,,34638,0.066,0.016,1.024,0.6,-3.4,-0.9,899,885,0
R,,34699,0.066,0.013,1.029,0.4,-3.3,-0.7,896,882,0
R,,34758,0.061,0.016,1.025,0.7,-3.9,-0.6,895,881,0
R,,34819,0.063,0.013,1.025,0.4,-3.9,-0.6,898,881,0
R,,34878,0.062,0.014,1.027,0.2,-3.5,-0.4,898,882,0
R,,34938,0.064,0.008,1.019,0.5,-3.3,-0.9,896,880,0
R,,34999,0.064,0.015,1.029,0.4,-3.2,-0.6,897,879,0
R,,35058,0.062,0.016,1.023,0.7,-3.9,-0.7,896,882,0
R,,35119,0.065,0.015,1.026,0.1,-3.2,-0.9,898,881,0
R,,35178,0.063,0.013,1.027,1.1,-3.1,-0.5,898,881,0
R,,35239,0.061,0.012,1.026,0.9,-3.3,-0.8,895,883,0
R,,35298,0.062,0.015,1.023,1.1,-3.3,-0.7,902,885,0
R,,35359,0.059,0.023,1.038,-0.2,-3.5,0.0,897,882,0
R,,35418,0.061,0.017,1.017,0.7,-3.3,-0.7,895,882,0
R,,35478,0.062,0.016,1.032,0.4,-3.7,-0.6,897,882,0
R,,35539,0.064,0.014,1.026,0.8,-3.4,-0.7,895,882,0
R,,35598,0.064,0.015,1.019,0.7,-3.2,-0.7,895,882,0
R,,35659,0.064,0.018,1.027,0.9,-3.7,-0.7,896,882,0
R,,35718,0.065,0.018,1.025,0.6,-3.5,-0.7,896,882,0
R,,35779,0.068,0.017,1.024,0.4,-3.6,-0.5,897,881,0
R,,35838,0.063,0.017,1.027,0.6,-3.4,-0.9,895,882,0
R,,35899,0.065,0.018,1.027,0.4,-3.5,-0.6,897,881,0
R,,35958,0.061,0.008,1.036,-0.5,-2.9,-0.4,894,882,0
R,,36018,0.057,0.016,1.020,1.1,-3.9,-0.7,895,881,0
R,,36079,0.062,0.013,1.026,-0.2,-3.5,-0.9,895,882,0
R,,36138,0.061,0.014,1.030,0.2,-3.4,-0.7,898,882,0
R,,36199,0.061,0.013,1.029,0.3,-3.2,-0.5,897,881,0
R,,36258,0.063,0.017,1.022,0.8,-3.4,-0.8,897,882,0
R,,36319,0.064,0.020,1.027,1.1,-3.1,-0.9,896,882,0
R,,36378,0.066,0.013,1.034,1.1,-2.5,-0.9,899,884,0
R,,36439,0.065,0.021,1.021,0.9,-3.1,-0.6,898,879,0
R,,36499,0.063,0.011,1.023,-17.9,-3.4,-0.7,895,881,0
R,,36558,0.067,0.017,1.026,0.3,-3.3,-0.8,898,882,0
R,,36619,0.061,0.014,1.023,0.9,-3.5,-0.7,894,879,0
R,,36687,0.061,0.013,1.033,0.9,-2.5,-0.6,893,879,0
R,,36739,0.063,0.014,1.019,0.9,-3.4,-0.6,893,881,0
R,,36798,0.063,0.017,1.028,0.3,-3.9,-0.8,896,881,0
R,,36859,0.062,0.017,1.029,0.4,-3.3,-0.4,895,883,0
R,,36918,0.062,0.018,1.019,0.2,-3.5,-0.6,898,886,0
R,,36979,0.064,0.017,1.028,0.2,-3.6,-0.7,894,882,0
R,,37039,0.058,0.013,1.020,-0.2,-2.7,-0.8,894,879,0
R,,37102,0.061,0.015,1.028,-1.8,-3.0,-0.5,894,880,0
R,,37159,0.058,0.016,1.032,0.0,-3.6,0.0,893,884,0
R,,37218,0.063,0.011,1.020,0.1,-4.4,0.3,894,882,0
R,,37279,0.069,0.014,1.031,2.4,-3.6,0.0,895,882,0
R,,37338,0.061,0.015,1.021,0.4,-3.1,-0.7,893,879,0
R,,37399,0.062,0.005,1.025,0.0,-3.5,-0.7,894,881,0
R,,37458,0.061,0.015,1.026,0.4,-3.5,-0.5,894,882,0
R,,37519,0.061,0.015,1.022,0.4,-3.7,-0.7,894,879,0
R,,37579,0.061,0.016,1.027,0.2,-4.0,-0.6,891,881,0
R,,37638,0.064,0.015,1.028,0.5,-3.2,-0.8,894,879,0
R,,37699,0.064,0.011,1.026,0.6,-3.2,-0.9,893,880,0
R,,37758,0.061,0.012,1.024,0.2,-3.2,-0.7,892,877,0
R,,37819,0.062,0.015,1.026,0.3,-3.7,-0.7,893,878,0
R,,37878,0.062,0.017,1.022,0.6,-3.9,-0.6,894,877,0
R,,37939,0.062,0.015,1.024,0.5,-3.2,-0.9,892,878,0
R,,37999,0.062,0.021,1.029,0.6,-3.7,-0.8,895,879,0
R,,38059,0.061,0.012,1.028,-0.4,-3.5,-0.7,892,878,0
R,,38119,0.062,0.015,1.034,-1.0,-4.0,-0.2,893,877,0
R,,38178,0.065,0.013,1.016,0.2,-3.0,-0.8,891,895,0
R,,38238,0.098,0.007,1.034,4.9,-5.4,2.5,894,895,0
R,,38298,0.052,0.014,1.018,1.1,-3.8,0.3,891,882,0
R,,38359,0.062,0.025,1.047,-0.1,-3.5,-0.4,894,848,0
R,,38418,0.063,0.014,1.016,0.4,-3.5,-1.0,891,848,0
R,,38479,0.066,0.015,1.026,0.4,-3.8,-0.8,893,850,0
R,,38539,0.063,0.013,1.023,0.2,-4.2,-0.7,894,848,0
R,,38599,0.066,0.014,1.029,0.0,-3.4,-0.5,892,840,0
R,,38659,0.067,0.017,1.024,0.3,-3.9,-0.7,891,840,0
R,,38718,0.061,0.008,1.023,0.2,-3.0,-0.8,891,835,0
R,,38778,0.054,0.013,1.017,0.7,-4.6,-2.1,894,838,0
R,,38838,0.080,0.041,1.031,2.8,-4.4,-2.4,892,831,0
R,,38899,0.057,0.011,1.018,-0.2,-4.7,-1.4,892,834,0
R,,38958,0.059,0.007,1.025,1.1,-3.5,-1.0,892,849,0
R,,39019,0.065,0.009,1.020,0.5,-3.5,-0.9,890,856,0
R,,39079,0.063,0.010,1.030,0.2,-3.6,-0.5,893,857,0
R,,39138,0.067,0.012,1.025,0.0,-3.5,-0.6,891,855,0
R,,39199,0.063,0.013,1.025,0.1,-3.6,-0.4,892,857,0
R,,39258,0.063,0.012,1.028,0.3,-3.4,-0.8,892,856,0
R,,39319,0.065,0.015,1.023,0.5,-3.4,-0.7,891,857,0
R,,39378,0.065,0.014,1.027,0.4,-3.9,-0.8,891,855,0
R,,39439,0.064,0.013,1.026,0.4,-3.6,-0.6,892,856,0
R,,39499,0.068,0.013,1.026,0.6,-3.4,-0.7,893,861,0
R,,39559,0.064,0.014,1.026,0.2,-3.5,-0.7,891,862,0
R,,39619,0.062,0.012,1.027,0.4,-3.3,-0.7,891,863,0
R,,39678,0.061,0.012,1.028,0.3,-3.7,-0.7,892,862,0
R,,39739,0.061,0.014,1.030,0.0,-3.3,-0.5,891,862,0
R,,39798,0.066,0.017,1.024,0.3,-3.3,-0.9,892,863,0
R,,39859,0.062,0.014,1.028,0.4,-3.7,-0.6,891,861,0
R,,39927,0.063,0.013,1.029,0.3,-3.5,-0.6,892,866,0
R,,39979,0.061,0.015,1.023,0.4,-3.5,-0.5,890,863,0
R,,40039,0.062,0.013,1.024,0.0,-3.7,-0.6,892,866,0
R,,40099,0.063,0.015,1.028,0.3,-3.7,-0.8,892,868,0
R,,40159,0.062,0.014,1.023,0.2,-3.4,-0.7,892,866,0
R,,40218,0.063,0.014,1.029,0.4,-3.7,-0.7,892,868,0
R,,40279,0.062,0.013,1.029,0.4,-3.4,-0.7,892,868,0
R,,40338,0.066,0.012,1.024,0.2,-3.5,-0.5,892,867,0
R,,40399,0.064,0.015,1.028,0.5,-3.6,-0.8,891,867,0
R,,40458,0.064,0.013,1.026,0.8,-3.5,-0.7,891,868,0
R,,40519,0.058,0.012,1.024,-0.4,-3.1,-1.2,893,868,0
R,,40579,0.066,0.009,1.025,0.7,-3.2,-0.5,889,867,0
R,,40639,0.066,0.017,1.024,1.0,-3.7,-0.6,892,861,0
R,,40699,0.071,0.008,1.038,2.8,-6.6,1.2,856,817,0
R,,40758,0.055,0.018,1.015,1.3,-2.1,-1.0,855,816,0
R,,40819,0.066,0.019,1.032,-0.6,-4.1,-0.4,854,819,0
R,,40878,0.067,0.013,1.027,-0.3,-3.5,-0.4,854,819,0
R,,40939,0.068,0.021,1.026,0.0,-4.2,-0.2,854,819,0
R,,40999,0.068,0.020,1.037,0.4,-3.2,-0.5,855,819,0
R,,41059,0.062,0.021,1.016,0.4,-3.4,-0.7,852,823,0
R,,41119,0.065,0.019,1.027,0.5,-3.8,-0.5,854,824,0
R,,41179,0.063,0.014,1.030,0.7,-3.0,-0.7,854,826,0
R,,41239,0.066,0.017,1.020,0.4,-3.1,-0.8,853,826,0
R,,41298,0.065,0.018,1.028,0.1,-3.3,-0.6,855,828,0
R,,41359,0.065,0.021,1.027,0.4,-3.2,-0.9,853,825,0
R,,41418,0.064,0.017,1.027,3.1,-3.2,-0.4,851,823,0
R,,41479,0.061,0.016,1.023,0.9,-4.0,-0.7,852,825,0
R,,41539,0.064,0.017,1.027,0.8,-3.2,-0.7,854,826,0
R,,41599,0.060,0.020,1.021,0.1,-3.7,-0.8,854,827,0
R,,41659,0.062,0.018,1.025,0.3,-4.1,-0.6,856,827,0
R,,41719,0.066,0.020,1.027,0.4,-3.4,-0.6,852,827,0
R,,41779,0.067,0.017,1.024,0.2,-3.3,-0.9,852,829,0
R,,41838,0.065,0.019,1.025,0.8,-3.2,-0.5,851,827,0
R,,41899,0.065,0.019,1.027,0.5,-3.4,-0.8,850,829,0
R,,41958,0.067,0.018,1.024,0.4,-3.5,-0.5,852,827,0
R,,42019,0.063,0.018,1.027,0.5,-3.7,-0.5,851,828,0
R,,42079,0.063,0.020,1.024,0.2,-3.8,-0.7,852,829,0
R,,42139,0.064,0.020,1.025,0.2,-3.7,-0.6,850,829,0
R,,42199,0.064,0.020,1.030,0.5,-3.3,-0.8,849,830,0
R,,42259,0.063,0.021,1.024,0.4,-3.3,-0.7,849,829,0
R,,42319,0.068,0.019,1.030,0.9,-3.6,-0.7,850,831,0
R,,42378,0.066,0.022,1.024,0.4,-3.4,-0.8,850,833,0
R,,42439,0.065,0.020,1.022,0.4,-3.5,-0.8,851,831,0
R,,42499,0.062,0.020,1.028,0.3,-3.7,-0.7,851,830,0
R,,42559,0.062,0.019,1.023,0.5,-3.4,-0.7,851,832,0
R,,42619,0.063,0.019,1.027,0.4,-3.7,-0.7,851,832,0
R,,42687,0.064,0.020,1.027,0.4,-3.3,-0.6,853,831,0
R,,42739,0.064,0.018,1.026,0.3,-3.6,-0.8,854,833,0
R,,42799,0.065,0.018,1.026,0.4,-3.5,-0.5,851,831,0
R,,42859,0.065,0.020,1.025,0.2,-3.7,-0.7,852,836,0
R,,42918,0.064,0.021,1.027,0.6,-3.2,-0.7,853,846,0
R,,42979,0.064,0.018,1.024,0.4,-3.5,-0.7,850,844,0
R,,43039,0.065,0.017,1.028,0.5,-3.6,-0.6,852,845,0
R,,43103,0.065,0.022,1.023,0.4,-3.5,-0.7,851,847,0
R,,43159,0.063,0.020,1.025,0.4,-3.8,-0.6,852,849,0
R,,43219,0.063,0.022,1.027,0.6,-3.2,-0.7,852,853,0
R,,43279,0.067,0.019,1.021,0.4,-3.4,-0.6,855,854,0
R,,43339,0.068,0.018,1.025,0.2,-3.9,-0.7,853,853,0
R,,43399,0.065,0.019,1.027,0.6,-3.0,-0.5,852,852,0
R,,43458,0.066,0.019,1.023,0.4,-3.4,-0.8,853,853,0
R,,43519,0.067,0.019,1.027,0.4,-3.7,-0.6,853,854,0
R,,43579,0.064,0.020,1.027,0.3,-3.7,-0.8,852,854,0
R,,43639,0.065,0.018,1.022,0.1,-3.9,-0.6,853,859,0
R,,43699,0.068,0.018,1.028,0.2,-3.7,-0.7,850,861,0
R,,43759,0.064,0.016,1.023,0.2,-3.9,-0.7,852,865,0
R,,43819,0.064,0.020,1.027,0.4,-3.5,-0.6,854,870,0
R,,43879,0.067,0.021,1.026,0.4,-3.3,-0.9,850,871,0
R,,43939,0.065,0.018,1.028,0.4,-3.6,-0.6,851,867,0
R,,43999,0.064,0.020,1.026,0.2,-3.7,-0.7,852,868,0
R,,44059,0.067,0.017,1.028,0.4,-3.5,-0.7,851,870,0
R,,44119,0.065,0.020,1.025,0.4,-3.5,-0.6,850,867,0
R,,44179,0.065,0.020,1.025,0.2,-3.7,-0.8,852,869,0
R,,44239,0.067,0.018,1.027,0.4,-3.8,-0.7,851,869,0
R,,44299,0.065,0.019,1.028,0.4,-3.5,-0.8,852,871,0
R,,44359,0.066,0.021,1.027,0.5,-3.5,-0.7,852,872,0
R,,44419,0.065,0.019,1.026,0.4,-3.3,-0.7,851,871,0
R,,44479,0.065,0.018,1.027,0.6,-3.7,-0.8,849,871,0
R,,44539,0.065,0.019,1.027,0.4,-3.5,-0.6,847,871,0
R,,44599,0.065,0.019,1.028,0.3,-3.5,-0.8,849,870,0
R,,44659,0.065,0.019,1.028,0.4,-3.5,-0.7,847,871,0
R,,44719,0.064,0.019,1.025,0.4,-3.5,-0.6,848,870,0
R,,44779,0.065,0.020,1.026,0.4,-3.7,-0.9,848,872,0
R,,44839,0.065,0.021,1.025,0.3,-3.5,-0.8,847,871,0
R,,44899,0.065,0.021,1.027,0.6,-3.1,-0.9,846,874,0
R,,44958,0.066,0.021,1.024,0.6,-3.4,-0.7,848,871,0
R,,45019,0.067,0.020,1.027,0.5,-3.4,-0.6,845,872,0
R,,45079,0.064,0.020,1.025,0.3,-3.7,-0.8,846,875,0
R,,45139,0.064,0.019,1.026,0.4,-3.7,-0.5,844,873,0
R,,45199,0.063,0.021,1.026,0.3,-3.7,-0.8,847,874,0
R,,45259,0.063,0.020,1.026,0.4,-3.7,-0.6,845,875,0
R,,45319,0.067,0.019,1.024,0.4,-3.5,-0.7,850,877,0
R,,45379,0.066,0.018,1.027,0.5,-3.3,-0.8,846,875,0
R,,45439,0.065,0.019,1.026,0.4,-3.5,-0.7,846,874,0
R,,45499,0.063,0.020,1.027,0.2,-3.6,-0.7,848,872,0
R,,45559,0.063,0.021,1.025,0.4,-3.5,-0.7,846,876,0
R,,45619,0.065,0.021,1.027,0.5,-3.5,-0.7,845,874,0
R,,45679,0.064,0.020,1.024,0.5,-3.7,-0.9,845,875,0
R,,45739,0.065,0.021,1.027,0.4,-3.5,-0.6,847,874,0
R,,45799,0.066,0.020,1.027,0.6,-3.4,-0.5,847,876,0
R,,45859,0.066,0.019,1.024,0.4,-3.5,-0.7,846,877,0
R,,45927,0.066,0.020,1.026,0.4,-3.6,-0.7,848,876,0
R,,45979,0.065,0.019,1.027,0.6,-3.5,-0.7,848,874,0
R,,46039,0.066,0.019,1.025,0.7,-3.3,-0.7,848,875,0
R,,46099,0.063,0.020,1.027,0.6,-3.5,-0.6,846,874,0
R,,46159,0.065,0.021,1.026,0.7,-3.5,-0.7,848,876,0
R,,46219,0.064,0.021,1.025,0.7,-3.5,-0.6,847,875,0
R,,46279,0.062,0.021,1.027,0.7,-3.5,-0.8,849,875,0
R,,46339,0.066,0.020,1.025,0.6,-3.5,-0.5,847,873,0
R,,46399,0.063,0.022,1.024,0.5,-3.5,-0.7,846,875,0
R,,46459,0.064,0.019,1.026,0.5,-3.7,-0.7,849,875,0
R,,46519,0.066,0.020,1.025,0.6,-3.5,-0.7,849,876,0
R,,46579,0.065,0.021,1.025,0.4,-3.7,-0.9,849,876,0
R,,46638,0.065,0.022,1.024,0.4,-3.4,-0.7,849,876,0
R,,46699,0.066,0.020,1.029,0.4,-3.5,-0.7,850,876,0
R,,46759,0.066,0.021,1.024,0.3,-3.6,-0.7,850,875,0
R,,46819,0.064,0.022,1.027,0.4,-3.5,-0.7,850,875,0
R,,46879,0.065,0.021,1.026,0.5,-3.4,-0.8,847,877,0
R,,46939,0.065,0.020,1.027,0.2,-3.2,-0.7,849,878,0
R,,46999,0.065,0.020,1.026,0.4,-3.5,-0.5,847,876,0
R,,47059,0.063,0.021,1.025,0.2,-4.3,-0.7,848,876,0
R,,47119,0.066,0.022,1.029,0.3,-3.5,-0.6,846,877,0
R,,47179,0.064,0.019,1.022,0.5,-3.5,-0.8,846,877,0
R,,47239,0.065,0.019,1.027,0.3,-3.3,-0.6,845,877,0
R,,47299,0.066,0.020,1.027,0.4,-3.3,-0.7,846,876,0
R,,47359,0.061,0.021,1.023,0.3,-3.7,-0.6,847,875,0
R,,47419,0.067,0.021,1.028,0.4,-3.8,-0.5,848,877,0
R,,47479,0.065,0.019,1.025,0.6,-3.2,-0.9,848,878,0
R,,47539,0.065,0.021,1.028,0.7,-3.4,-0.9,845,874,0
R,,47599,0.063,0.020,1.027,0.6,-3.4,-0.7,848,878,0
R,,47659,0.066,0.021,1.024,0.5,-3.6,-0.7,846,878,0
R,,47719,0.063,0.020,1.028,0.6,-3.4,-0.7,846,878,0
R,,47779,0.063,0.020,1.025,0.4,-3.4,-0.9,847,877,0
R,,47839,0.064,0.023,1.028,0.4,-3.3,-0.5,848,876,0
R,,47899,0.062,0.021,1.026,0.3,-3.5,-0.6,854,878,0
R,,47959,0.061,0.020,1.025,0.4,-3.7,-0.7,847,878,0
R,,48019,0.065,0.021,1.026,0.4,-3.5,-0.6,844,875,0
R,,48079,0.066,0.020,1.028,0.3,-3.4,-0.8,844,878,0
R,,48139,0.064,0.019,1.024,0.4,-3.5,-0.7,847,876,0
R,,48199,0.064,0.021,1.029,0.3,-3.5,-0.5,851,874,0
R,,48259,0.063,0.020,1.023,0.2,-3.6,-0.8,848,876,0
R,,48319,0.062,0.022,1.026,0.2,-3.5,-0.7,846,876,0
R,,48379,0.063,0.020,1.025,0.4,-3.5,-0.8,848,876,0
R,,48439,0.065,0.023,1.025,0.2,-3.6,-0.8,850,877,0
R,,48500,0.064,0.019,1.027,0.5,-3.4,-0.4,848,878,0
R,,48559,0.066,0.020,1.024,0.4,-3.5,-0.8,847,872,0
R,,48619,0.065,0.020,1.026,0.4,-3.5,-0.7,846,876,0
R,,48688,0.064,0.021,1.026,0.4,-3.5,-0.7,849,877,0
R,,48739,0.065,0.019,1.026,0.4,-3.5,-0.7,849,877,0
R,,48799,0.065,0.020,1.026,0.3,-3.5,-0.6,850,876,0
R,,48859,0.067,0.019,1.027,0.5,-3.6,-0.8,847,878,0
R,,48919,0.066,0.022,1.023,0.4,-3.5,-0.7,847,875,0
R,,48979,0.065,0.021,1.027,0.4,-3.2,-0.7,850,874,0
R,,49040,0.064,0.021,1.026,0.4,-3.6,-0.7,847,874,0
R,,49101,0.066,0.019,1.028,0.4,-3.5,-0.6,846,876,0
R,,49158,0.064,0.020,1.024,0.3,-3.7,-0.8,845,876,0
R,,49218,0.064,0.019,1.028,0.5,-3.5,-0.7,846,874,0
R,,49279,0.063,0.021,1.024,0.4,-3.5,-0.6,845,876,0
R,,49339,0.065,0.021,1.029,0.2,-3.5,-0.6,845,876,0
R,,49399,0.063,0.021,1.024,0.4,-3.4,-0.6,846,878,0
R,,49459,0.064,0.019,1.025,0.5,-3.7,-0.7,846,875,0
R,,49519,0.062,0.021,1.028,0.4,-3.5,-0.7,845,875,0
R,,49579,0.063,0.022,1.023,0.4,-3.6,-0.6,844,875,0
R,,49669,0.062,0.018,1.025,0.6,-3.5,-0.9,845,873,0
R,,49729,0.063,0.019,1.023,0.4,-3.6,-0.7,845,875,0
R,,49790,0.065,0.020,1.028,0.7,-3.5,-0.7,845,874,0
R,,49849,0.064,0.022,1.023,0.4,-3.5,-0.7,845,876,0
R,,49909,0.065,0.020,1.026,0.5,-3.5,-0.5,844,874,0
R,,49969,0.065,0.020,1.027,0.3,-3.7,-0.9,845,876,0
R,,50029,0.064,0.019,1.026,0.4,-3.5,-0.7,844,875,0
R,,50089,0.067,0.021,1.022,0.2,-3.7,-0.5,845,875,0
R,,50149,0.065,0.019,1.028,0.2,-3.5,-0.8,841,873,0
R,,50209,0.066,0.020,1.025,0.4,-3.5,-0.6,842,875,0
R,,50269,0.062,0.020,1.026,0.3,-3.5,-0.9,844,878,0
R,,50330,0.063,0.022,1.026,0.4,-3.5,-0.7,843,874,0
R,,50389,0.064,0.020,1.026,0.4,-3.6,-0.6,843,876,0
R,,50449,0.064,0.021,1.024,0.5,-3.6,-0.9,842,873,0
R,,50508,0.064,0.019,1.025,0.5,-3.3,-0.5,845,874,0
R,,50569,0.064,0.020,1.025,0.5,-3.6,-0.8,843,873,0
R,,50629,0.065,0.020,1.024,0.4,-3.5,-0.7,846,876,0
R,,50689,0.066,0.020,1.026,0.2,-3.5,-0.7,848,874,0
R,,50750,0.063,0.019,1.028,0.5,-3.5,-0.7,845,875,0
R,,50809,0.064,0.020,1.025,0.4,-3.5,-0.7,847,877,0
R,,50869,0.064,0.021,1.029,0.4,-3.5,-0.9,846,873,0
R,,50929,0.065,0.020,1.028,0.4,-3.5,-0.7,847,873,0
R,,50989,0.063,0.020,1.029,0.4,-3.5,-0.7,846,873,0
R,,51049,0.065,0.020,1.026,0.4,-3.5,-0.7,845,875,0
R,,51109,0.063,0.021,1.027,0.5,-3.6,-0.7,847,875,0
R,,51169,0.065,0.022,1.028,0.3,-3.4,-0.9,848,874,0
R,,51229,0.066,0.021,1.027,0.6,-3.6,-0.6,847,875,0
R,,51290,0.064,0.020,1.024,0.4,-3.6,-0.6,847,873,0
R,,51349,0.062,0.020,1.027,0.3,-3.7,-0.7,846,876,0
R,,51409,0.063,0.021,1.027,0.4,-3.5,-0.5,846,875,0
R,,51469,0.064,0.021,1.022,0.4,-3.4,-0.9,844,874,0
R,,51529,0.065,0.020,1.026,0.4,-3.5,-0.5,847,874,0
R,,51589,0.063,0.020,1.028,0.3,-3.6,-0.6,846,873,0
R,,51649,0.064,0.018,1.028,0.5,-3.5,-0.8,846,874,0
R,,51709,0.067,0.020,1.024,0.4,-3.6,-0.7,847,875,0
R,,51769,0.065,0.020,1.029,0.4,-3.7,-0.7,851,875,0
R,,51830,0.065,0.020,1.026,0.6,-3.5,-0.7,846,874,0
R,,51889,0.065,0.022,1.023,0.5,-3.4,-0.6,845,872,0
R,,51958,0.065,0.021,1.025,0.4,-3.5,-0.6,849,875,0
R,,52009,0.062,0.020,1.026,0.6,-3.3,-0.6,848,873,0
R,,52099,0.064,0.020,1.026,0.4,-3.3,-0.6,845,873,0
R,,52159,0.064,0.020,1.026,0.3,-3.7,-0.8,846,875,0
R,,52219,0.065,0.018,1.027,0.4,-3.5,-0.7,845,873,0
R,,52279,0.063,0.023,1.023,0.4,-3.5,-0.7,848,873,0
R,,52339,0.067,0.021,1.025,0.4,-3.5,-0.7,849,871,0
R,,52399,0.064,0.018,1.027,0.5,-3.5,-0.6,847,873,0
R,,52459,0.065,0.020,1.026,0.7,-3.7,-1.0,848,871,0
R,,52519,0.066,0.020,1.027,0.4,-3.6,-0.7,852,876,0
R,,52580,0.063,0.020,1.025,0.5,-3.4,-0.7,847,873,0
R,,52639,0.064,0.021,1.027,0.4,-3.5,-0.7,848,870,0
R,,52699,0.065,0.021,1.024,0.6,-3.6,-0.4,846,871,0
R,,52759,0.064,0.022,1.028,0.2,-3.7,-0.7,847,872,0
R,,52819,0.065,0.020,1.029,0.4,-3.5,-0.7,846,872,0
R,,52879,0.064,0.020,1.026,0.4,-3.5,-0.7,845,870,0
R,,52939,0.065,0.022,1.026,0.4,-3.5,-0.7,846,872,0
R,,53000,0.064,0.022,1.023,0.4,-3.6,-0.5,845,872,0
R,,53059,0.064,0.022,1.027,0.3,-3.5,-0.9,847,877,0
R,,53120,0.062,0.022,1.026,0.4,-3.5,-0.7,844,873,0
R,,53179,0.066,0.020,1.028,0.4,-3.6,-0.7,844,871,0
R,,53239,0.064,0.020,1.027,0.4,-3.6,-0.7,846,872,0
R,,53299,0.065,0.020,1.025,0.4,-3.4,-0.6,848,871,0
R,,53359,0.062,0.022,1.025,0.5,-3.6,-0.8,845,872,0
R,,53419,0.066,0.020,1.026,0.5,-3.4,-0.8,845,871,0
R,,53479,0.065,0.020,1.025,0.4,-3.4,-0.7,845,870,0
R,,53540,0.065,0.021,1.024,0.4,-3.7,-0.8,846,873,0
R,,53599,0.062,0.020,1.027,0.6,-3.6,-0.7,849,874,0
R,,53660,0.065,0.020,1.025,0.3,-3.5,-0.9,846,872,0
R,,53719,0.064,0.024,1.025,0.2,-3.5,-0.6,846,872,0
R,,53779,0.063,0.020,1.027,0.2,-3.6,-0.5,844,872,0
R,,53839,0.064,0.020,1.024,0.2,-3.4,-0.8,846,874,0
R,,53899,0.066,0.018,1.024,0.3,-3.5,-0.6,846,874,0
R,,53959,0.065,0.022,1.028,0.2,-3.7,-0.9,846,874,0
R,,54019,0.064,0.020,1.026,0.4,-3.5,-0.6,847,872,0
R,,54080,0.065,0.019,1.026,0.2,-3.3,-0.5,846,873,0
R,,54139,0.064,0.020,1.027,0.3,-3.7,-0.9,847,876,0
R,,54200,0.064,0.020,1.024,0.3,-3.4,-0.6,851,873,0
R,,54259,0.065,0.020,1.028,0.2,-3.6,-0.7,851,873,0
R,,54319,0.066,0.019,1.027,0.4,-3.4,-0.7,857,872,0
R,,54379,0.064,0.020,1.025,0.4,-3.5,-0.5,857,874,0
R,,54439,0.065,0.019,1.024,0.5,-3.5,-0.9,856,875,0
R,,54500,0.063,0.023,1.024,0.4,-3.4,-0.7,860,874,0
R,,54559,0.066,0.020,1.025,0.3,-3.5,-0.8,865,873,0
R,,54620,0.066,0.020,1.027,0.4,-3.5,-0.6,871,876,0
R,,54679,0.065,0.021,1.025,0.4,-3.3,-0.7,871,875,0
R,,54748,0.061,0.020,1.024,0.6,-3.5,-0.6,876,877,0
R,,54799,0.063,0.020,1.026,0.6,-3.5,-0.5,872,873,0
R,,54859,0.065,0.020,1.028,0.5,-3.6,-0.7,870,874,0
R,,54950,0.064,0.020,1.026,0.4,-3.5,-0.9,875,874,0
R,,55040,0.063,0.022,1.024,0.4,-3.5,-0.9,877,874,0
R,,55129,0.064,0.021,1.025,0.5,-3.6,-0.8,875,873,0
R,,55189,0.065,0.022,1.027,0.3,-3.5,-0.6,876,876,0
R,,55253,0.064,0.022,1.027,0.4,-3.5,-0.6,874,876,0
R,,55309,0.063,0.020,1.024,0.4,-3.5,-0.7,877,874,0
R,,55370,0.062,0.020,1.026,0.6,-3.5,-0.6,876,876,0
R,,55429,0.065,0.020,1.024,0.4,-3.5,-0.9,877,878,0
R,,55490,0.063,0.021,1.025,0.4,-3.4,-0.5,875,875,0
R,,55549,0.063,0.020,1.029,0.4,-3.6,-0.9,874,874,0
R,,55609,0.065,0.023,1.024,0.4,-3.4,-0.6,875,873,0
R,,55669,0.066,0.021,1.025,0.4,-3.7,-0.7,875,873,0
R,,55729,0.065,0.021,1.029,0.4,-3.5,-0.7,874,875,0
R,,55790,0.065,0.019,1.027,0.5,-3.4,-0.7,873,874,0
R,,55849,0.062,0.021,1.026,0.5,-3.6,-0.7,875,874,0
R,,55910,0.063,0.020,1.027,0.5,-3.7,-0.6,876,874,0
R,,55969,0.061,0.019,1.026,0.4,-3.7,-0.6,875,873,0
R,,56029,0.064,0.019,1.025,0.2,-3.7,-0.9,873,876,0
R,,56089,0.062,0.020,1.028,0.4,-3.5,-0.7,874,875,0
R,,56149,0.064,0.022,1.024,0.4,-3.6,-0.8,875,873,0
R,,56209,0.065,0.022,1.026,0.3,-3.5,-0.6,875,875,0
R,,56269,0.061,0.022,1.027,0.6,-3.3,-0.6,876,875,0
R,,56330,0.059,0.021,1.026,0.4,-3.6,-0.7,875,875,0
R,,56389,0.063,0.021,1.025,0.5,-3.5,-0.6,881,879,0
R,,56450,0.063,0.021,1.026,0.5,-3.5,-0.9,876,873,0
R,,56509,0.065,0.020,1.027,0.5,-3.5,-0.7,872,876,0
R,,56569,0.064,0.019,1.024,0.4,-3.5,-0.7,876,873,0
R,,56629,0.063,0.022,1.027,0.4,-3.5,-0.7,876,874,0
R,,56689,0.064,0.021,1.025,0.5,-3.3,-0.6,875,875,0
R,,56750,0.064,0.021,1.028,0.4,-3.7,-0.9,876,875,0
R,,56809,0.063,0.019,1.026,0.5,-3.5,-0.8,877,874,0
R,,56870,0.067,0.020,1.027,0.4,-3.5,-0.6,875,876,0
R,,56929,0.063,0.023,1.026,0.4,-3.5,-0.7,881,879,0
R,,56990,0.063,0.020,1.028,0.4,-3.5,-0.6,878,875,0
R,,57049,0.066,0.020,1.026,0.4,-3.5,-0.9,876,876,0
R,,57109,0.066,0.020,1.026,0.3,-3.6,-0.6,878,875,0
R,,57169,0.063,0.021,1.027,0.4,-3.6,-0.7,877,874,0
R,,57229,0.064,0.021,1.027,0.4,-3.6,-0.7,876,874,0
R,,57290,0.063,0.023,1.026,0.5,-3.5,-0.6,877,875,0
R,,57349,0.063,0.023,1.026,0.5,-3.6,-0.8,880,875,0
R,,57410,0.066,0.021,1.026,0.5,-3.5,-0.7,877,875,0
R,,57469,0.065,0.020,1.025,0.5,-3.6,-0.6,880,877,0
R,,57530,0.064,0.022,1.026,0.7,-3.5,-0.7,875,875,0
R,,57589,0.061,0.020,1.025,0.6,-3.4,-0.7,877,875,0
R,,57649,0.062,0.024,1.025,0.4,-3.6,-0.9,875,875,0
R,,57709,0.061,0.020,1.025,0.4,-3.6,-0.7,875,878,0
R,,57769,0.065,0.022,1.031,0.3,-3.3,-0.7,878,875,0
R,,57830,0.066,0.021,1.026,0.4,-3.5,-0.7,875,876,0
R,,57889,0.062,0.022,1.026,0.5,-3.6,-0.7,876,877,0
R,,57950,0.062,0.020,1.026,0.3,-3.7,-0.9,877,877,0
R,,58009,0.066,0.021,1.026,0.3,-3.5,-0.7,879,875,0
R,,58078,0.063,0.024,1.027,0.4,-3.3,-0.9,878,875,0
R,,58129,0.063,0.021,1.023,0.3,-3.7,-0.7,878,879,0
R,,58189,0.062,0.021,1.028,0.4,-3.4,-0.7,877,876,0
R,,58250,0.065,0.021,1.026,0.5,-3.5,-0.9,877,875,0
R,,58309,0.063,0.021,1.023,0.4,-3.5,-0.6,876,876,0
R,,58370,0.064,0.021,1.024,0.4,-3.7,-0.7,876,876,0
R,,58429,0.064,0.019,1.029,0.4,-3.6,-0.7,875,876,0
R,,58490,0.062,0.022,1.029,0.4,-3.5,-0.4,877,875,0
R,,58549,0.063,0.020,1.024,0.2,-3.7,-0.7,876,874,0
R,,58609,0.062,0.022,1.029,0.2,-3.6,-0.7,877,871,0
R,,58669,0.062,0.022,1.030,0.0,-3.4,-0.7,876,872,0
R,,58729,0.065,0.021,1.025,0.4,-3.5,-0.7,878,871,0
R,,58790,0.062,0.021,1.027,0.4,-3.2,-0.7,876,874,0
R,,58849,0.061,0.021,1.023,0.7,-3.4,-0.9,876,874,0
R,,58910,0.067,0.021,1.028,1.4,-3.7,-0.6,875,872,0
R,,58969,0.061,0.020,1.025,0.1,-3.9,-0.5,880,874,0
R,,59030,0.066,0.022,1.031,-0.1,-3.7,-0.7,875,869,0
R,,59089,0.060,0.023,1.021,0.4,-3.1,-0.8,875,867,0
R,,59149,0.069,0.022,1.031,1.4,-3.0,-0.7,876,866,0
R,,59209,0.066,0.027,1.021,0.4,-3.7,-0.5,875,865,0
R,,59269,0.061,0.024,1.029,0.3,-3.5,-0.8,877,867,0
R,,59330,0.062,0.023,1.026,0.6,-3.3,-0.7,876,866,0
R,,59389,0.064,0.022,1.027,0.8,-3.7,-0.4,875,864,0
R,,59450,0.065,0.022,1.027,1.0,-3.7,-1.0,875,866,0
R,,59509,0.062,0.025,1.023,0.4,-3.5,-0.7,881,867,0
R,,59570,0.067,0.022,1.028,0.4,-3.4,-0.8,877,866,0
R,,59629,0.064,0.020,1.025,0.8,-3.5,-0.8,875,863,0
R,,59689,0.064,0.020,1.026,0.5,-3.6,-0.6,877,885,0
R,,59750,0.066,0.020,1.028,0.4,-3.5,-0.8,876,897,0
R,,59809,0.063,0.021,1.022,0.5,-3.5,-0.7,877,895,0
R,,59870,0.067,0.023,1.030,0.5,-3.3,-0.7,875,863,0
R,,59929,0.065,0.021,1.024,0.4,-3.6,-0.4,877,863,0
R,,59990,0.062,0.023,1.027,0.4,-3.5,-0.7,875,888,0
R,,60049,0.061,0.022,1.024,0.6,-3.6,-0.9,879,866,0
R,,60110,0.065,0.022,1.022,0.4,-3.7,-0.7,876,865,0
R,,60169,0.066,0.019,1.032,0.3,-2.9,-0.9,877,868,0
R,,60229,0.066,0.019,1.022,0.7,-3.4,-0.6,877,865,0
R,,60289,0.063,0.021,1.021,0.4,-3.9,-0.5,877,867,0
R,,60349,0.063,0.022,1.030,0.3,-4.2,-0.7,876,865,0
R,,60410,0.063,0.024,1.020,-0.1,-4.0,-0.7,875,865,0
R,,60469,0.064,0.020,1.025,-0.2,-4.2,-0.6,876,865,0
R,,60530,0.065,0.022,1.029,0.2,-3.6,-0.7,876,866,0
R,,60589,0.066,0.021,1.025,0.4,-3.5,-0.7,878,867,0
R,,60649,0.064,0.019,1.031,0.5,-3.5,-0.9,874,865,0
R,,60709,0.063,0.019,1.025,0.0,-3.2,-0.4,874,867,0
R,,60769,0.065,0.021,1.031,0.5,-4.2,-0.6,876,866,0
R,,60837,0.066,0.023,1.024,0.2,-3.2,-0.9,875,867,0
R,,60889,0.065,0.019,1.023,0.3,-3.5,-0.7,876,868,0
R,,60950,0.068,0.019,1.027,0.9,-3.7,-0.6,876,869,0
R,,61009,0.079,0.030,1.055,0.7,-0.5,-1.6,881,876,0
R,,61070,0.064,0.021,1.013,1.2,-3.1,0.0,878,873,0
R,,61129,0.061,0.025,1.033,0.7,-3.4,-0.8,876,873,0
R,,61189,0.059,0.025,1.026,0.6,-3.5,-0.6,876,872,0
R,,61251,0.065,0.024,1.024,0.0,-3.7,-0.8,876,872,0
R,,61309,0.068,0.022,1.031,0.3,-3.8,-0.7,876,874,0
R,,61370,0.067,0.020,1.026,0.4,-3.4,-0.5,877,874,0
R,,61429,0.065,0.021,1.022,0.7,-3.6,-0.7,878,877,0
R,,61490,0.065,0.020,1.029,0.3,-3.5,-0.7,879,874,0
R,,61549,0.064,0.020,1.026,0.5,-3.2,-0.7,877,876,0
R,,61610,0.062,0.024,1.029,0.0,-2.8,-0.7,879,876,0
R,,61669,0.064,0.025,1.021,0.4,-3.4,-0.7,881,874,0
R,,61729,0.064,0.024,1.028,0.2,-3.9,-0.7,879,876,0
R,,61790,0.063,0.020,1.026,0.3,-3.4,-0.7,879,876,0
R,,61849,0.064,0.021,1.025,0.2,-3.7,-0.7,879,876,0
R,,61910,0.065,0.021,1.030,0.5,-3.5,-0.5,880,876,0
R,,61969,0.062,0.020,1.026,0.2,-3.2,-0.5,879,877,0
R,,62059,0.067,0.026,1.024,0.7,-3.5,-0.4,879,877,0
R,,62120,0.067,0.024,1.021,0.2,-3.9,-0.6,879,878,0
R,,62179,0.062,0.020,1.030,0.2,-3.8,-0.6,878,877,0
R,,62240,0.067,0.021,1.030,0.2,-3.3,-0.9,878,878,0
R,,62299,0.066,0.020,1.025,0.5,-3.8,-0.7,878,877,0
R,,62360,0.067,0.016,1.033,0.2,-2.9,-0.7,880,877,0
R,,62419,0.065,0.025,1.028,1.6,-3.2,-0.7,875,876,0
R,,62479,0.068,0.024,1.026,0.7,-3.3,-0.7,877,879,0
R,,62540,0.065,0.020,1.025,0.9,-3.7,-0.8,878,877,0
R,,62599,0.064,0.022,1.026,0.5,-3.4,-0.9,879,880,0
R,,62660,0.068,0.020,1.028,0.4,-3.5,-0.9,877,879,0
R,,62719,0.066,0.022,1.023,0.7,-3.5,-0.7,880,879,0
R,,62780,0.069,0.017,1.032,0.4,-3.0,-0.6,879,879,0
R,,62839,0.065,0.022,1.022,0.7,-3.5,-0.6,879,879,0
R,,62900,0.066,0.023,1.024,0.0,-3.6,-0.7,876,879,0
R,,62959,0.063,0.022,1.023,0.4,-3.7,-0.6,876,881,0
R,,63019,0.068,0.021,1.026,0.3,-3.4,-0.7,877,880,0
R,,63080,0.066,0.021,1.025,0.4,-3.3,-0.6,878,880,0
R,,63139,0.069,0.024,1.025,0.4,-3.7,-0.8,877,879,0
R,,63200,0.065,0.023,1.024,0.4,-3.5,-0.7,876,879,0
R,,63259,0.067,0.022,1.025,0.4,-3.5,-0.8,878,880,0
R,,63320,0.066,0.021,1.026,0.3,-3.9,-0.6,878,879,0
R,,63379,0.063,0.021,1.028,0.4,-3.5,-0.8,880,882,0
R,,63440,0.067,0.026,1.025,0.7,-3.3,-1.0,877,882,0
R,,63500,0.064,0.024,1.028,0.4,-3.7,-0.5,876,880,0
R,,63559,0.064,0.024,1.027,0.4,-3.5,-0.7,876,881,0
R,,63619,0.066,0.025,1.022,0.4,-3.7,-0.6,876,880,0
R,,63679,0.063,0.021,1.028,0.2,-3.3,-0.6,877,880,0
R,,63740,0.064,0.023,1.028,0.4,-3.7,-0.9,877,881,0
R,,63799,0.063,0.021,1.023,0.4,-3.5,-0.7,877,882,0
R,,63860,0.067,0.022,1.028,0.4,-3.5,-0.7,878,882,0
R,,63919,0.067,0.020,1.026,0.3,-3.5,-0.6,880,882,0
R,,63979,0.067,0.022,1.024,0.4,-3.5,-0.4,878,881,0
R,,64040,0.068,0.019,1.026,0.3,-3.7,-0.7,878,883,0
R,,64108,0.066,0.020,1.026,0.3,-3.5,-0.6,880,884,0
R,,64160,0.065,0.020,1.025,0.4,-3.4,-0.7,879,883,0
R,,64219,0.067,0.022,1.025,0.4,-3.6,-0.7,878,879,0
R,,64280,0.066,0.023,1.025,0.4,-3.4,-0.5,880,881,0
R,,64339,0.064,0.022,1.024,0.3,-3.7,-0.8,879,881,0
R,,64400,0.066,0.022,1.027,0.4,-3.5,-0.7,879,881,0
R,,64459,0.065,0.021,1.029,0.3,-3.6,-0.7,879,882,0
R,,64519,0.067,0.020,1.027,0.3,-3.5,-0.7,880,880,0
R,,64580,0.064,0.024,1.026,0.4,-3.4,-0.7,879,881,0
R,,64639,0.066,0.023,1.024,0.2,-3.7,-0.9,879,881,0
R,,64730,0.064,0.021,1.027,0.4,-3.5,-0.8,880,882,0
R,,64790,0.066,0.021,1.025,0.7,-3.3,-0.6,879,880,0
R,,64849,0.062,0.023,1.023,0.4,-3.7,-0.9,880,882,0
R,,64909,0.068,0.022,1.028,0.4,-3.6,-0.7,881,882,0
R,,64969,0.066,0.022,1.025,0.4,-3.2,-0.7,880,880,0
R,,65030,0.068,0.021,1.023,0.2,-3.7,-0.7,880,881,0
R,,65089,0.069,0.024,1.028,0.4,-3.6,-0.7,879,881,0
R,,65179,0.066,0.019,1.025,0.6,-3.5,-0.6,880,882,0
R,,65240,0.066,0.020,1.026,0.6,-3.4,-0.9,882,882,0
R,,65299,0.063,0.019,1.026,0.5,-3.5,-0.6,879,884,0
R,,65360,0.067,0.019,1.027,0.0,-3.0,-0.7,870,882,0
R,,65419,0.064,0.024,1.025,0.3,-3.7,-0.4,875,885,0
R,,65480,0.065,0.023,1.027,0.1,-3.7,-0.5,875,882,0
R,,65540,0.067,0.020,1.022,0.2,-3.6,-0.7,874,880,0
R,,65599,0.067,0.020,1.029,0.4,-3.5,-0.7,874,881,0
R,,65660,0.064,0.021,1.027,0.5,-3.2,-0.7,875,884,0
R,,65719,0.068,0.023,1.028,0.4,-3.7,-0.6,875,883,0
R,,65780,0.067,0.023,1.025,0.3,-3.5,-0.5,874,884,0
R,,65839,0.064,0.023,1.026,0.4,-3.4,-0.9,876,882,0
R,,65900,0.065,0.023,1.025,0.6,-3.5,-0.6,874,883,0
R,,65959,0.064,0.023,1.027,0.4,-3.9,-0.7,876,886,0
R,,66020,0.067,0.024,1.028,0.6,-3.2,-0.9,874,882,0
R,,66080,0.068,0.023,1.026,0.3,-3.7,-0.7,873,880,0
R,,66139,0.068,0.023,1.028,0.2,-3.5,-0.8,874,883,0
R,,66199,0.067,0.022,1.026,0.7,-3.2,-0.7,873,884,0
R,,66259,0.066,0.021,1.023,0.8,-3.6,-0.9,873,882,0
R,,66320,0.065,0.021,1.028,0.6,-3.0,-0.9,874,882,0
R,,66379,0.067,0.025,1.024,0.8,-3.2,-0.9,873,883,0
R,,66440,0.061,0.037,1.028,1.8,-4.2,0.2,874,884,0
R,,66530,0.065,0.028,1.021,2.3,-4.4,-0.7,873,882,0
R,,66589,0.061,0.027,1.035,1.1,-2.9,-2.1,835,883,0
R,,66650,0.062,0.014,1.013,2.7,-5.2,0.2,824,884,0
R,,66709,0.067,0.020,1.037,-0.9,-4.3,-0.7,825,881,0
R,,66770,0.058,0.026,1.023,0.2,-3.6,-0.5,832,882,0
R,,66830,0.064,0.028,1.030,0.0,-3.8,-0.5,832,880,0
R,,66889,0.065,0.032,1.024,0.2,-3.3,-0.5,831,877,0
R,,66958,0.059,0.030,1.033,0.4,-3.4,-0.6,832,878,0
R,,67009,0.067,0.027,1.021,0.4,-3.4,-0.7,830,878,0
R,,67070,0.073,0.032,1.019,1.7,-4.1,0.0,834,878,0
R,,67129,0.064,0.028,1.023,0.4,-3.7,-0.7,831,877,0
R,,67190,0.066,0.028,1.033,0.2,-3.1,-0.7,830,872,0
R,,67250,0.065,0.027,1.025,0.1,-4.0,-0.6,832,873,0
R,,67310,0.068,0.026,1.027,-0.6,-3.4,-0.4,832,870,0
R,,67374,0.061,0.028,1.017,0.4,-5.1,-0.5,833,870,0
R,,67429,0.064,0.029,1.016,0.4,-5.4,0.0,852,864,0
R,,67489,0.067,0.028,1.020,0.0,-4.2,-0.7,852,865,0
R,,67549,0.070,0.028,1.040,-0.6,-3.8,-0.7,851,865,0
R,,67610,0.063,0.029,1.025,-0.6,-5.7,0.8,854,867,0
R,,67669,0.064,0.020,1.023,-3.7,-4.9,1.5,853,864,0
R,,67730,0.055,0.021,1.010,0.7,-5.9,0.4,851,866,0
R,,67790,0.116,0.036,1.032,-1.9,-5.6,0.7,854,868,0
R,,67849,0.067,0.012,1.011,0.7,-4.9,-0.5,851,864,0
R,,67910,0.090,0.020,1.044,0.4,-4.8,0.4,855,865,0
R,,67969,0.074,0.020,1.018,-0.7,-3.9,-0.1,858,868,0
R,,68030,0.073,0.021,1.020,0.9,-3.7,0.0,860,866,0
R,,68089,0.064,-0.006,1.015,-3.2,-2.8,0.0,858,866,0
R,,68150,0.086,0.024,1.030,0.0,-4.4,0.3,861,861,0
R,,68209,0.078,0.025,1.018,0.7,-3.1,-0.6,862,858,0
R,,68270,0.077,0.026,1.031,0.2,-2.7,-1.4,863,859,0
R,,68330,0.071,0.027,1.029,1.6,-1.8,-1.6,864,857,0
R,,68389,0.076,0.020,1.025,1.2,-3.1,-1.1,863,859,0
R,,68450,0.072,0.014,1.027,0.7,-3.2,-0.7,863,858,0
R,,68509,0.074,0.020,1.024,0.6,-3.5,-0.3,864,857,0
R,,68570,0.074,0.019,1.024,1.1,-3.8,-0.7,864,855,0
R,,68629,0.072,0.019,1.023,0.9,-3.8,-0.7,865,858,0
R,,68690,0.077,0.019,1.030,0.5,-3.7,-0.9,867,851,0
R,,68750,0.074,0.020,1.021,0.6,-3.0,-0.9,869,852,0
R,,68810,0.073,0.019,1.025,0.6,-3.3,-0.7,866,852,0
R,,68870,0.073,0.019,1.026,0.9,-3.4,-0.8,864,855,0
R,,68929,0.075,0.020,1.025,0.6,-3.2,-0.7,867,854,0
R,,68990,0.074,0.020,1.025,0.6,-3.2,-1.0,868,852,0
R,,69049,0.074,0.021,1.024,0.4,-3.2,-0.9,867,851,0
R,,70738,0.079,0.025,1.023,1.1,-3.7,-1.0,866,853,0
R,,70748,0.070,0.018,1.022,-0.4,-3.5,-0.6,866,856,0
R,,70820,0.077,0.017,1.021,0.5,-3.6,-0.7,864,855,0
R,,70879,0.074,0.020,1.024,0.0,-3.6,-0.6,865,856,0
R,,70969,0.075,0.024,1.021,0.9,-3.2,-0.7,867,855,0
R,,71030,0.075,0.021,1.024,0.3,-3.1,-0.7,865,856,0
R,,71089,0.075,0.021,1.026,0.9,-3.3,-0.9,868,856,0
R,,71150,0.077,0.016,1.035,-0.7,-2.5,-0.7,871,854,0
R,,71209,0.068,0.026,1.020,2.8,-2.8,-0.8,871,855,0
R,,71270,0.068,0.018,1.029,0.7,-3.4,-0.7,871,856,0
R,,71330,0.074,0.020,1.021,0.3,-4.0,-0.8,876,858,0
R,,71390,0.073,0.019,1.023,0.0,-4.1,-0.7,874,855,0
R,,71450,0.075,0.020,1.028,0.4,-3.2,-0.7,872,856,0
R,,71509,0.073,0.021,1.020,0.6,-3.5,-0.7,871,855,0
R,,71570,0.072,0.022,1.026,0.4,-3.5,-0.7,873,854,0
R,,71660,0.074,0.020,1.025,0.2,-3.7,-0.6,872,856,0
R,,71719,0.074,0.019,1.029,0.4,-3.5,-0.8,873,853,0
R,,71780,0.073,0.020,1.023,0.5,-3.2,-0.7,872,856,0
R,,71848,0.072,0.021,1.025,0.6,-3.5,-0.7,873,855,0
R,,71900,0.074,0.020,1.024,0.2,-3.5,-0.7,872,856,0
R,,71959,0.072,0.018,1.026,0.4,-3.7,-0.6,871,856,0
R,,72020,0.073,0.018,1.025,0.3,-3.7,-0.9,872,856,0
R,,72080,0.074,0.018,1.028,0.7,-3.5,-0.7,872,855,0
R,,72140,0.070,0.019,1.026,0.6,-3.2,-0.8,872,853,0
R,,72230,0.073,0.020,1.026,0.3,-3.6,-0.8,871,853,0
R,,72290,0.073,0.021,1.028,0.5,-3.4,-0.7,871,852,0
R,,72350,0.073,0.021,1.029,0.4,-3.5,-0.7,872,853,0
R,,72410,0.072,0.021,1.027,0.6,-3.7,-0.8,875,857,0
R,,72470,0.073,0.022,1.027,0.3,-3.2,-0.6,872,856,0
R,,72530,0.072,0.021,1.024,0.2,-3.4,-0.7,873,851,0
R,,72589,0.070,0.020,1.027,0.6,-3.5,-0.5,872,854,0
R,,72649,0.073,0.020,1.022,0.4,-3.2,-0.7,872,855,0
R,,72709,0.073,0.021,1.027,0.4,-3.5,-0.8,871,853,0
R,,72770,0.072,0.020,1.022,0.6,-3.5,-0.7,870,853,0
R,,72830,0.073,0.019,1.026,0.4,-3.6,-0.8,870,853,0
R,,72890,0.074,0.021,1.027,0.5,-3.6,-0.7,872,854,0
R,,72950,0.073,0.021,1.027,0.3,-3.5,-0.8,873,856,0
R,,73009,0.072,0.022,1.026,0.4,-3.6,-0.6,872,854,0
R,,73070,0.071,0.022,1.024,0.2,-3.4,-0.7,873,853,0
R,,73129,0.072,0.022,1.028,0.2,-3.5,-0.7,872,855,0
R,,73190,0.071,0.020,1.026,0.4,-3.4,-0.7,872,853,0
R,,73250,0.072,0.020,1.025,0.3,-3.5,-0.6,870,853,0
R,,73310,0.073,0.020,1.026,0.3,-3.5,-0.7,870,854,0
R,,73370,0.072,0.021,1.025,0.4,-3.4,-0.5,874,858,0
R,,73430,0.071,0.021,1.025,0.4,-3.5,-0.7,869,855,0
R,,73490,0.073,0.020,1.026,0.3,-3.6,-0.7,874,854,0
R,,73549,0.071,0.019,1.025,0.3,-3.2,-0.7,872,853,0
R,,73610,0.072,0.022,1.025,0.6,-3.5,-0.9,872,855,0
R,,73669,0.070,0.021,1.023,0.4,-3.5,-0.6,869,854,0
R,,73730,0.072,0.019,1.028,0.5,-3.7,-0.9,869,854,0
R,,73790,0.074,0.022,1.025,0.4,-3.2,-0.7,871,854,0
R,,73850,0.072,0.021,1.026,0.2,-3.4,-0.7,873,853,0
R,,73939,0.071,0.022,1.026,0.2,-3.6,-0.8,870,854,0
R,,74000,0.072,0.022,1.026,0.4,-3.6,-0.7,870,853,0
R,,74060,0.069,0.020,1.028,0.3,-3.5,-0.6,871,854,0
R,,74120,0.071,0.021,1.025,0.4,-3.5,-0.7,871,853,0
R,,74180,0.072,0.020,1.028,0.4,-3.5,-0.7,873,855,0
R,,74240,0.070,0.020,1.023,0.4,-3.3,-0.7,873,853,0
R,,74299,0.070,0.020,1.027,0.5,-3.7,-0.7,872,853,0
R,,74360,0.073,0.020,1.026,0.6,-3.3,-0.6,871,853,0
R,,74419,0.073,0.020,1.027,0.5,-3.7,-0.9,872,855,0
R,,74480,0.071,0.020,1.028,0.5,-3.5,-0.5,873,855,0
R,,74540,0.072,0.023,1.028,0.4,-3.4,-0.7,872,854,0
R,,74600,0.074,0.020,1.022,0.4,-3.6,-0.6,871,854,0
R,,74668,0.074,0.021,1.025,0.3,-3.5,-0.8,872,854,0
R,,74720,0.073,0.022,1.026,0.4,-3.3,-0.9,873,852,0
R,,74780,0.072,0.018,1.023,0.2,-3.3,-0.7,872,854,0
R,,74839,0.073,0.021,1.027,0.4,-3.5,-0.6,874,850,0
R,,74900,0.073,0.021,1.025,0.2,-3.5,-0.8,873,851,0
R,,74959,0.072,0.020,1.023,0.4,-3.2,-0.6,874,851,0
R,,75020,0.071,0.020,1.024,0.4,-3.5,-0.9,872,853,0
R,,75083,0.072,0.020,1.022,0.5,-3.5,-0.7,874,854,0
R,,75140,0.072,0.022,1.026,0.3,-3.5,-0.7,873,853,0
R,,75200,0.069,0.019,1.024,0.6,-3.7,-0.6,875,855,0
R,,75260,0.072,0.020,1.026,0.3,-3.6,-0.7,873,855,0
R,,75320,0.070,0.020,1.026,0.4,-3.6,-0.8,871,853,0
R,,75379,0.072,0.020,1.027,0.4,-3.6,-0.6,872,854,0
R,,75440,0.072,0.022,1.027,0.4,-3.6,-0.7,872,854,0
R,,75500,0.073,0.019,1.026,0.4,-3.5,-0.6,874,853,0
R,,75560,0.072,0.020,1.026,0.4,-3.7,-0.5,873,854,0
R,,75620,0.070,0.020,1.027,0.3,-3.9,-0.7,872,855,0
R,,75680,0.075,0.019,1.025,0.4,-3.5,-0.6,873,852,0
R,,75740,0.073,0.020,1.023,0.4,-3.7,-0.9,877,851,0
R,,75800,0.074,0.021,1.025,0.4,-3.5,-0.6,872,850,0
R,,75860,0.072,0.020,1.027,0.3,-3.4,-0.7,873,853,0
R,,75919,0.073,0.020,1.026,0.6,-3.6,-0.7,871,853,0
R,,75980,0.071,0.018,1.027,0.5,-3.2,-0.5,872,855,0
R,,76040,0.072,0.018,1.034,0.0,-3.2,-0.7,873,856,0
R,,76100,0.073,0.018,1.020,0.3,-3.6,-0.6,874,854,0
R,,76160,0.073,0.021,1.026,0.4,-3.6,-0.8,874,856,0
R,,76220,0.074,0.019,1.026,0.2,-3.4,-0.8,874,855,0
R,,76280,0.072,0.020,1.026,0.4,-3.5,-0.7,873,855,0
R,,76370,0.072,0.020,1.025,0.2,-3.5,-0.7,871,856,0
R,,76430,0.073,0.016,1.028,0.4,-3.6,-0.8,872,854,0
R,,76490,0.073,0.020,1.025,0.4,-3.3,-0.7,875,857,0
R,,76550,0.071,0.017,1.024,0.6,-3.7,-0.8,872,854,0
R,,76610,0.072,0.020,1.029,0.6,-3.4,-0.9,873,851,0
R,,76669,0.073,0.021,1.026,0.5,-3.2,-0.8,875,856,0
R,,76730,0.072,0.020,1.023,0.8,-3.5,-0.8,875,853,0
R,,76790,0.070,0.022,1.027,0.2,-3.7,-0.7,874,855,0
R,,76850,0.074,0.020,1.028,0.4,-3.7,-0.7,873,851,0
R,,76910,0.074,0.022,1.024,0.2,-3.5,-0.7,872,854,0
R,,76970,0.074,0.020,1.024,0.2,-3.6,-0.7,874,852,0
R,,77030,0.075,0.020,1.024,0.5,-3.4,-0.7,875,854,0
R,,77090,0.075,0.020,1.026,0.4,-3.2,-0.7,873,856,0
R,,77150,0.072,0.024,1.024,0.4,-3.5,-0.8,874,855,0
R,,77209,0.069,0.022,1.026,0.3,-3.3,-0.7,871,852,0
R,,77269,0.073,0.020,1.026,0.5,-3.3,-0.7,873,852,0
R,,77360,0.073,0.020,1.028,0.4,-3.4,-0.8,871,852,0
R,,77419,0.070,0.020,1.025,0.6,-3.2,-0.6,871,856,0
R,,77480,0.073,0.022,1.023,0.4,-3.5,-0.8,872,853,0
R,,77540,0.071,0.021,1.028,0.4,-3.4,-1.0,873,855,0
R,,77600,0.072,0.020,1.027,0.4,-3.4,-0.8,872,854,0
R,,77660,0.072,0.020,1.026,0.5,-3.4,-0.9,873,854,0
R,,77720,0.071,0.023,1.028,0.3,-3.6,-0.7,874,853,0
R,,77780,0.071,0.022,1.025,0.3,-3.4,-0.5,873,853,0
R,,77840,0.073,0.022,1.025,0.4,-3.6,-0.9,873,854,0
R,,77900,0.070,0.023,1.026,0.4,-3.5,-0.7,873,854,0
R,,77968,0.070,0.021,1.030,0.4,-3.4,-0.8,875,857,0
R,,78020,0.071,0.021,1.024,0.4,-3.6,-0.7,874,855,0
R,,78080,0.069,0.021,1.025,0.4,-3.4,-0.7,875,856,0
R,,78140,0.071,0.022,1.028,0.4,-3.6,-0.9,874,851,0
R,,78200,0.072,0.021,1.023,0.4,-3.5,-0.7,874,854,0
R,,78260,0.072,0.022,1.027,0.4,-3.5,-0.7,873,854,0
R,,78320,0.072,0.021,1.025,0.4,-3.5,-0.7,874,855,0
R,,78380,0.074,0.022,1.026,0.4,-3.6,-0.5,872,853,0
R,,78440,0.070,0.021,1.026,0.4,-3.5,-0.8,873,855,0
R,,78500,0.073,0.020,1.024,0.5,-3.6,-0.6,872,854,0
R,,78559,0.072,0.020,1.024,0.5,-3.5,-0.9,873,853,0
R,,78620,0.070,0.019,1.026,0.4,-3.6,-0.7,874,855,0
R,,78680,0.072,0.019,1.028,0.4,-3.4,-0.6,872,854,0
R,,78740,0.073,0.019,1.023,0.2,-3.5,-0.7,873,852,0
R,,78800,0.072,0.020,1.025,0.3,-3.6,-0.7,876,853,0
R,,78860,0.070,0.020,1.024,0.3,-3.7,-0.8,874,855,0
R,,78919,0.071,0.020,1.026,0.5,-3.3,-0.8,871,854,0
R,,78980,0.070,0.020,1.026,0.7,-3.5,-0.7,871,853,0
R,,79040,0.070,0.020,1.023,0.6,-3.6,-0.8,875,854,0
R,,79100,0.071,0.022,1.026,0.5,-3.2,-0.7,875,854,0
R,,79160,0.072,0.022,1.024,0.3,-3.6,-0.7,873,853,0
R,,79220,0.074,0.020,1.026,0.4,-3.6,-0.6,873,852,0
R,,79280,0.071,0.016,1.024,0.0,-3.3,-0.6,875,856,0
R,,79340,0.072,0.016,1.027,0.4,-4.1,-0.9,872,852,0
R,,79400,0.071,0.019,1.026,0.7,-3.4,-0.7,874,856,0
R,,79459,0.070,0.019,1.025,0.5,-3.6,-0.8,874,854,0
R,,79520,0.071,0.021,1.025,0.7,-3.5,-0.7,873,854,0
R,,79580,0.071,0.022,1.027,0.4,-3.5,-0.6,874,854,0
R,,79640,0.074,0.019,1.026,0.4,-3.4,-0.9,873,853,0
R,,79700,0.068,0.021,1.025,0.7,-3.5,-0.6,873,854,0
R,,79790,0.071,0.020,1.025,0.4,-3.4,-0.7,873,853,0
R,,79850,0.071,0.020,1.026,0.5,-3.4,-0.7,872,851,0
R,,79910,0.072,0.020,1.023,0.4,-3.5,-0.7,874,853,0
R,,79970,0.072,0.024,1.027,0.3,-3.7,-0.7,874,854,0
R,,80030,0.072,0.021,1.029,0.2,-3.5,-0.9,874,854,0
R,,80090,0.072,0.021,1.025,0.6,-3.3,-0.5,873,853,0
R,,80150,0.070,0.020,1.023,0.5,-3.7,-0.9,876,855,0
R,,80209,0.072,0.020,1.028,0.4,-3.4,-0.7,871,855,0
R,,80270,0.069,0.022,1.025,0.2,-3.7,-0.9,873,854,0
R,,80330,0.074,0.026,1.032,1.1,-3.4,-0.7,873,853,0
R,,80390,0.073,0.023,1.021,0.4,-3.7,-0.6,873,853,0
R,,80450,0.070,0.017,1.031,-0.3,-4.1,-0.3,872,855,0
R,,80510,0.068,0.025,1.020,-0.1,-3.7,-0.7,874,854,0
R,,80570,0.071,0.022,1.029,0.2,-3.7,-0.7,878,855,0
R,,80630,0.070,0.020,1.028,0.4,-3.4,-0.7,874,857,0
R,,80690,0.074,0.019,1.024,0.1,-3.3,-0.5,871,857,0
R,,80758,0.074,0.023,1.025,0.7,-3.9,-0.8,879,856,0
R,,80810,0.073,0.020,1.026,0.4,-3.4,-0.7,875,851,0
R,,80870,0.073,0.017,1.027,0.4,-3.6,-0.7,873,849,0
R,,80930,0.074,0.019,1.023,0.4,-3.7,-0.6,874,846,0
R,,80990,0.074,0.020,1.025,0.4,-3.5,-0.7,874,843,0
R,,82830,0.077,0.024,1.024,0.8,-3.6,-0.7,875,882,0
R,,82840,0.070,0.022,1.021,0.4,-3.6,-0.8,875,883,0
R,,82882,0.076,0.022,1.022,0.7,-3.6,-0.5,874,881,0
R,,82940,0.078,0.022,1.023,0.6,-3.4,-0.7,878,884,0
R,,83000,0.077,0.023,1.023,1.0,-3.5,-0.8,875,882,0
R,,83060,0.076,0.020,1.023,0.4,-3.2,-0.9,875,882,0
R,,83120,0.074,0.020,1.027,0.4,-3.0,-0.8,874,882,0
R,,83180,0.074,0.020,1.022,0.6,-3.2,-0.9,874,884,0
R,,83240,0.071,0.019,1.022,0.7,-3.4,-0.7,876,884,0
R,,83300,0.072,0.022,1.025,0.6,-3.4,-1.0,876,883,0
R,,83360,0.075,0.023,1.023,0.7,-3.5,-0.7,875,884,0
R,,83420,0.074,0.022,1.025,0.4,-3.6,-0.7,876,885,0
R,,83480,0.072,0.022,1.024,0.4,-3.9,-0.6,876,883,0
R,,83541,0.073,0.022,1.023,-0.1,-3.4,-0.7,875,883,0
R,,83600,0.072,0.019,1.027,0.4,-3.8,-0.7,876,882,0
R,,83660,0.069,0.020,1.025,0.4,-3.3,-0.7,875,881,0
R,,83720,0.074,0.020,1.023,0.4,-3.5,-0.9,873,879,0
R,,83810,0.071,0.020,1.025,0.2,-3.9,-0.6,877,879,0
R,,83900,0.071,0.022,1.024,0.4,-3.7,-0.6,876,883,0
R,,83960,0.076,0.021,1.024,0.4,-3.5,-0.8,875,883,0
R,,84020,0.075,0.021,1.026,0.2,-3.7,-0.7,875,884,0
R,,84080,0.075,0.021,1.027,0.4,-3.9,-0.4,875,886,0
R,,84140,0.076,0.021,1.027,0.5,-3.7,-0.4,877,884,0
R,,84200,0.075,0.020,1.022,0.7,-3.7,-0.7,875,883,0
R,,84260,0.076,0.021,1.024,1.1,-3.5,-0.6,876,883,0
R,,84320,0.073,0.033,1.027,1.6,-2.8,-0.5,876,885,0
R,,84380,0.077,0.027,1.029,0.3,-3.3,-0.9,877,884,0
R,,84440,0.077,0.024,1.025,0.4,-3.4,-0.5,875,886,0
R,,84500,0.073,0.021,1.029,0.0,-3.8,-0.7,875,883,0
R,,84560,0.073,0.024,1.023,0.0,-3.4,-0.4,872,883,0
R,,84620,0.074,0.021,1.023,0.0,-3.8,-0.3,876,882,0
R,,84680,0.077,0.017,1.016,0.3,-1.5,-1.1,876,884,0
R,,84740,0.102,0.016,1.014,2.5,0.3,-4.2,875,883,0
R,,84800,0.030,0.023,1.031,14.1,-0.4,-4.6,877,884,0
R,,84860,0.043,0.061,1.073,2.3,-17.7,-2.4,878,888,0
R,,84920,0.074,0.039,1.010,1.3,-5.3,-0.2,880,887,0
R,,84980,0.073,0.032,1.041,0.3,-5.0,0.1,884,890,0
R,,85041,0.076,0.032,1.011,0.3,-3.5,-0.6,879,888,0
R,,85100,0.075,0.034,1.027,0.3,-2.7,-1.1,881,887,0
R,,85160,0.074,0.035,1.029,1.1,-1.6,-1.8,880,886,0
R,,85220,0.060,0.038,1.029,0.6,-3.3,-1.3,879,886,0
R,,85280,0.069,0.039,1.029,0.2,-4.4,-0.3,880,888,0
R,,85340,0.069,0.035,1.023,-0.1,-4.5,0.0,880,886,0
R,,85400,0.071,0.038,1.022,0.3,-4.2,-0.4,878,887,0
R,,85460,0.071,0.033,1.022,0.2,-3.6,-0.4,879,885,0
R,,85520,0.069,0.034,1.025,0.3,-3.6,-0.9,882,890,0
R,,85581,0.069,0.036,1.025,0.3,-4.1,-0.3,879,887,0
R,,85640,0.074,0.036,1.024,0.2,-4.3,0.0,880,888,0
R,,85700,0.071,0.035,1.026,0.6,-4.1,-0.1,880,886,0
R,,85768,0.078,0.033,1.027,0.2,-4.4,0.0,882,889,0
R,,85820,0.077,0.035,1.023,0.0,-3.9,-0.5,878,887,0
R,,85880,0.076,0.035,1.025,0.3,-3.8,-0.5,880,887,0
R,,85940,0.075,0.033,1.027,0.4,-3.2,-0.7,880,886,0
R,,86000,0.074,0.034,1.024,0.5,-3.3,-0.7,879,885,0
R,,86060,0.074,0.035,1.025,0.4,-3.3,-0.7,880,888,0
R,,86120,0.074,0.035,1.024,0.5,-3.5,-0.7,880,886,0
R,,86180,0.073,0.035,1.026,0.5,-3.2,-0.7,880,888,0
R,,86240,0.072,0.033,1.026,0.2,-3.5,-0.9,881,887,0
R,,86300,0.073,0.035,1.028,0.5,-3.4,-0.7,879,885,0
R,,86360,0.074,0.036,1.025,0.4,-3.5,-0.7,879,886,0
R,,86420,0.070,0.034,1.028,0.4,-3.6,-0.9,879,887,0
R,,86480,0.071,0.034,1.022,0.4,-3.5,-0.7,886,889,0
R,,86541,0.073,0.032,1.026,0.3,-3.7,-0.7,881,886,0
R,,86600,0.074,0.033,1.029,0.4,-3.5,-0.5,882,886,0
R,,86660,0.071,0.032,1.022,0.4,-3.5,-0.7,881,887,0
R,,86720,0.073,0.036,1.025,0.3,-3.7,-0.8,881,887,0
R,,86780,0.075,0.035,1.027,0.4,-3.5,-0.8,880,888,0
R,,86840,0.071,0.036,1.024,0.4,-3.5,-0.7,879,885,0
R,,86900,0.074,0.036,1.025,0.4,-3.6,-0.6,882,887,0
R,,86960,0.072,0.034,1.025,0.4,-3.5,-0.6,882,886,0
R,,87020,0.076,0.034,1.024,0.4,-3.4,-0.8,885,889,0
R,,87081,0.071,0.035,1.019,0.4,-3.7,-0.6,881,886,0
R,,87140,0.074,0.029,1.029,0.2,-3.6,-0.9,883,885,0
R,,87200,0.075,0.034,1.024,0.4,-3.9,-0.7,880,883,0
R,,87260,0.040,0.021,1.007,-4.3,-0.4,-0.5,856,877,0
R,,87320,0.117,0.081,1.040,6.9,-4.6,0.0,889,792,0
R,,87380,0.081,0.010,1.030,3.4,-2.9,-1.6,886,837,0
R,,87440,0.069,0.022,1.021,1.9,-4.4,-0.6,834,856,0
R,,87500,0.068,0.027,1.024,0.4,-3.8,-0.7,860,854,0
R,,87560,0.075,0.027,1.024,-0.2,-3.4,-1.1,865,850,0
R,,87621,0.069,0.023,1.030,-0.2,-2.5,-1.4,866,858,0
R,,87680,0.072,0.030,1.020,2.5,-2.7,-0.8,871,860,0
R,,87740,0.071,0.030,1.031,-0.7,-3.8,-0.8,873,858,0
R,,87800,0.062,0.027,1.022,0.9,-3.9,-0.5,872,858,0
R,,87860,0.063,0.023,1.018,1.5,-2.7,-1.1,873,862,0
R,,87920,0.077,0.022,1.042,-0.7,-3.2,-17.7,873,865,0
R,,87980,0.063,0.027,1.020,-1.9,-2.7,-0.2,884,870,0
R,,88041,0.072,0.028,1.024,-1.1,-3.9,-0.6,883,876,0
R,,88100,0.070,0.026,1.027,-0.3,-4.4,0.4,886,884,0
R,,88161,0.062,0.025,1.021,-0.7,-5.1,0.0,883,881,0
R,,88220,0.068,0.025,1.027,0.6,-4.1,-0.2,881,869,0
R,,88280,0.073,0.031,1.024,1.0,-3.8,-0.7,883,870,0
R,,88340,0.068,0.025,1.024,1.8,-3.3,-1.1,883,869,0
R,,88400,0.069,0.024,1.024,3.1,-2.8,-1.1,893,874,0
R,,88460,0.073,0.026,1.026,1.6,-3.2,-1.1,892,884,0
R,,88529,0.071,0.027,1.028,1.3,-2.9,-1.1,897,889,0
R,,88581,0.066,0.031,1.027,-0.1,-2.9,-0.9,894,890,0
R,,88640,0.072,0.030,1.027,0.8,-3.0,-0.8,896,889,0
R,,88700,0.071,0.032,1.023,0.3,-3.9,-0.4,895,889,0
R,,88760,0.069,0.030,1.023,0.0,-4.4,-0.4,897,887,0
R,,88820,0.066,0.032,1.028,0.2,-3.9,-0.7,894,888,0
R,,88880,0.072,0.031,1.028,0.2,-3.2,-0.7,895,887,0
R,,88944,0.067,0.035,1.021,0.5,-3.7,-0.4,897,890,0
R,,89000,0.069,0.033,1.025,0.5,-3.7,-0.6,896,889,0
R,,89060,0.072,0.032,1.026,0.4,-3.7,-0.5,901,893,0
R,,89121,0.077,0.038,1.028,0.9,-3.8,-0.9,895,890,0
R,,89180,0.066,0.032,1.023,0.2,-3.3,-0.7,894,889,0
R,,89240,0.067,0.028,1.029,0.5,-3.3,-0.9,895,892,0
R,,89300,0.070,0.032,1.025,1.1,-3.3,-0.7,895,889,0
R,,89360,0.071,0.034,1.027,0.3,-3.9,-0.8,895,891,0
R,,89420,0.071,0.032,1.028,0.6,-3.5,-0.5,895,888,0
R,,89480,0.041,0.009,1.010,-3.2,-0.3,-1.2,896,889,0
R,,89541,0.061,0.006,1.039,-3.4,-1.1,1.4,894,891,0
R,,89600,0.071,0.057,1.010,1.5,-2.2,-0.6,895,895,0
R,,89661,0.077,0.026,1.033,0.1,-4.4,-1.0,892,889,0
R,,89720,0.070,0.022,1.028,1.3,-3.5,-0.6,892,889,0
R,,89780,0.067,0.025,1.022,0.5,-3.5,-0.7,891,891,0
R,,89840,0.068,0.024,1.026,0.6,-4.2,-0.5,891,889,0
R,,89900,0.078,0.029,1.025,2.1,-5.1,0.0,892,889,0
R,,89960,0.067,0.018,1.018,-1.0,-5.0,0.5,895,891,0
R,,90020,0.113,0.045,1.034,10.3,-11.8,-1.2,895,889,0
R,,90081,0.071,0.017,1.004,2.3,-2.8,-2.3,893,891,0
R,,90140,0.076,0.015,1.027,-0.4,-4.3,-0.9,899,894,0
R,,90201,0.077,0.024,1.029,0.8,-3.0,-0.5,896,889,0
R,,90291,0.076,0.040,1.035,0.5,-3.2,-0.7,895,889,0
R,,90350,0.074,0.037,1.022,0.4,-3.5,-0.7,901,893,0
R,,90411,0.074,0.036,1.027,0.4,-3.7,-0.5,896,889,0
R,,90470,0.075,0.039,1.030,0.4,-3.7,-0.8,894,889,0
R,,90530,0.079,0.043,1.023,0.4,-4.0,-0.7,897,888,0
R,,90590,0.080,0.036,1.028,0.1,-3.5,-0.6,896,891,0
R,,90649,0.078,0.038,1.027,0.6,-3.3,-0.8,900,890,0
R,,90710,0.076,0.034,1.025,0.7,-3.4,-0.7,897,892,0
R,,90770,0.077,0.037,1.022,0.7,-3.7,-0.9,896,891,0
R,,90831,0.077,0.036,1.025,0.4,-3.6,-0.7,897,891,0
R,,90890,0.075,0.033,1.027,0.2,-3.6,-0.7,902,896,0
R,,90951,0.073,0.036,1.026,0.3,-3.7,-0.7,897,889,0
R,,91010,0.075,0.035,1.026,0.4,-3.4,-0.7,898,887,0
R,,91070,0.073,0.038,1.025,0.4,-3.4,-0.9,897,892,0
R,,91130,0.074,0.039,1.025,0.6,-3.6,-0.5,897,892,0
R,,91190,0.077,0.037,1.030,0.5,-3.5,-0.8,897,889,0
R,,91250,0.076,0.035,1.020,0.4,-3.4,-0.7,896,890,0
R,,91310,0.079,0.035,1.025,0.2,-3.4,-0.4,897,892,0
R,,91371,0.075,0.037,1.028,0.7,-3.4,-0.8,895,890,0
R,,91430,0.076,0.037,1.023,0.2,-3.4,-0.7,899,893,0
R,,91491,0.074,0.035,1.023,0.3,-3.7,-0.5,899,892,0
R,,91550,0.076,0.035,1.027,0.2,-3.6,-0.7,895,891,0
R,,91610,0.077,0.035,1.024,0.5,-3.4,-0.7,897,890,0
R,,91669,0.073,0.036,1.024,0.5,-3.5,-0.8,898,890,0
R,,91730,0.074,0.036,1.022,0.6,-3.5,-0.6,897,891,0
R,,91798,0.077,0.036,1.026,0.6,-3.5,-0.6,898,892,0
R,,91850,0.076,0.036,1.022,0.4,-3.5,-0.8,899,890,0
R,,91911,0.080,0.039,1.028,0.4,-3.7,-0.9,897,891,0
R,,91970,0.075,0.037,1.028,0.1,-3.7,-0.9,898,890,0
R,,92030,0.077,0.034,1.027,0.9,-3.5,-0.5,897,890,0
R,,92090,0.078,0.038,1.026,0.6,-3.4,-0.9,895,892,0
R,,92150,0.075,0.039,1.025,0.5,-3.5,-0.7,897,890,0
R,,92210,0.076,0.038,1.023,0.3,-3.5,-0.5,895,892,0
R,,92270,0.076,0.038,1.026,0.4,-3.7,-0.9,898,891,0
R,,92360,0.074,0.035,1.027,0.4,-3.4,-0.8,898,891,0
R,,92420,0.075,0.037,1.022,0.4,-3.5,-0.6,898,891,0
R,,92480,0.077,0.034,1.025,0.4,-3.7,-0.9,898,892,0
R,,92541,0.076,0.038,1.024,0.4,-3.5,-0.6,895,892,0
R,,92600,0.076,0.037,1.022,0.3,-3.7,-0.8,895,892,0
R,,92661,0.076,0.036,1.025,0.4,-3.5,-0.7,895,891,0
R,,92720,0.076,0.035,1.024,0.4,-3.4,-0.6,901,893,0
R,,92781,0.075,0.038,1.025,0.5,-3.6,-0.7,899,893,0
R,,92840,0.076,0.036,1.026,0.4,-3.6,-0.8,896,892,0
R,,92900,0.076,0.036,1.028,0.5,-3.5,-0.7,895,892,0
R,,92960,0.074,0.034,1.022,0.3,-3.6,-0.7,896,891,0
R,,93020,0.075,0.037,1.026,0.3,-3.7,-0.6,898,894,0
R,,93081,0.076,0.037,1.027,0.3,-3.6,-0.9,898,891,0
R,,93140,0.075,0.037,1.022,0.7,-3.4,-0.7,899,892,0
R,,93201,0.078,0.036,1.024,0.3,-3.5,-0.9,897,893,0
R,,93260,0.077,0.035,1.027,0.2,-3.5,-0.7,897,891,0
R,,93320,0.075,0.036,1.024,0.4,-3.5,-0.6,897,891,0
R,,93380,0.075,0.036,1.026,0.5,-3.5,-0.7,896,893,0
R,,93440,0.077,0.034,1.028,0.2,-3.3,-0.7,897,891,0
R,,93531,0.075,0.038,1.026,0.4,-3.4,-0.5,900,892,0
R,,93590,0.078,0.035,1.025,0.4,-3.6,-0.9,897,890,0
R,,93650,0.076,0.034,1.026,0.4,-3.5,-0.7,897,893,0
R,,93710,0.078,0.038,1.023,0.4,-3.5,-0.7,897,891,0
R,,93770,0.076,0.037,1.025,0.4,-3.5,-0.7,898,891,0
R,,93831,0.074,0.038,1.027,0.6,-3.3,-0.7,899,892,0
R,,93890,0.079,0.035,1.027,0.7,-3.3,-0.9,897,892,0
R,,93951,0.077,0.034,1.024,0.5,-3.4,-0.7,897,892,0
R,,94010,0.073,0.038,1.024,0.4,-3.8,-0.8,900,893,0
R,,94071,0.076,0.036,1.028,0.4,-3.3,-0.7,897,891,0
R,,94130,0.074,0.037,1.023,0.4,-3.5,-0.7,899,891,0
R,,94190,0.073,0.038,1.024,0.3,-3.5,-0.8,898,892,0
R,,94250,0.076,0.038,1.026,0.4,-3.5,-0.7,895,891,0
R,,94310,0.075,0.037,1.024,0.4,-3.5,-0.7,897,892,0
R,,94371,0.074,0.035,1.025,0.4,-3.4,-0.7,898,892,0
R,,94430,0.074,0.037,1.026,0.4,-3.5,-0.6,897,891,0
R,,94491,0.076,0.035,1.024,0.4,-3.6,-0.7,897,892,0
R,,94550,0.071,0.036,1.024,0.4,-3.4,-0.6,900,892,0
R,,94619,0.078,0.038,1.021,0.4,-3.6,-0.7,903,898,0
R,,94670,0.075,0.035,1.024,0.3,-3.4,-0.7,897,892,0
R,,94730,0.075,0.035,1.026,0.6,-3.5,-0.8,899,892,0
R,,94791,0.074,0.036,1.024,0.4,-3.5,-0.7,898,893,0
R,,94850,0.075,0.040,1.025,0.4,-3.5,-0.7,898,892,0
R,,94911,0.075,0.039,1.027,0.4,-3.5,-0.9,897,891,0
R,,94970,0.078,0.037,1.022,0.5,-3.4,-0.6,903,896,0
R,,95033,0.075,0.036,1.025,0.4,-3.7,-0.7,899,894,0
R,,95090,0.076,0.037,1.029,0.4,-3.5,-0.7,896,891,0
R,,95150,0.075,0.036,1.023,0.6,-3.2,-0.7,898,889,0
R,,95210,0.079,0.040,1.024,0.5,-3.5,-0.9,898,892,0
R,,95270,0.075,0.037,1.026,0.7,-3.5,-0.8,898,891,0
R,,95331,0.075,0.037,1.027,0.7,-3.5,-0.9,900,893,0
R,,95390,0.073,0.038,1.024,0.5,-3.6,-0.7,897,892,0
R,,95451,0.075,0.040,1.026,0.2,-3.7,-0.7,899,891,0
R,,95510,0.074,0.038,1.027,0.2,-3.5,-0.7,904,897,0
R,,95571,0.075,0.037,1.023,0.3,-3.4,-0.7,899,891,0
R,,95630,0.076,0.035,1.025,0.2,-3.6,-0.7,898,890,0
R,,95690,0.074,0.040,1.028,0.2,-3.5,-0.6,898,894,0
R,,95750,0.074,0.036,1.024,0.3,-3.6,-0.8,899,891,0
R,,95810,0.074,0.038,1.025,0.3,-3.4,-0.7,897,891,0
R,,95871,0.074,0.036,1.024,0.3,-3.7,-0.6,899,891,0
R,,95930,0.075,0.038,1.026,0.2,-3.6,-0.7,897,891,0
R,,95991,0.076,0.036,1.027,0.4,-3.5,-0.7,898,893,0
R,,96050,0.073,0.036,1.024,0.5,-3.7,-0.8,899,891,0
R,,96111,0.074,0.035,1.023,0.3,-3.7,-0.7,898,892,0
R,,96170,0.076,0.035,1.027,0.4,-3.5,-0.9,898,892,0
R,,96230,0.073,0.038,1.022,0.4,-3.7,-0.7,898,893,0
R,,96291,0.075,0.036,1.027,0.3,-3.4,-0.6,897,892,0
R,,96350,0.076,0.036,1.025,0.4,-3.5,-0.7,898,892,0
R,,96411,0.074,0.035,1.024,0.5,-3.6,-0.6,900,893,0
R,,96470,0.077,0.037,1.026,0.4,-3.7,-0.8,898,893,0
R,,96531,0.075,0.037,1.025,0.4,-3.4,-0.7,899,892,0
R,,96590,0.072,0.038,1.025,0.4,-3.6,-0.9,900,894,0
R,,96651,0.075,0.036,1.025,0.5,-3.5,-0.7,900,895,0
R,,96710,0.075,0.037,1.024,0.4,-3.7,-0.9,897,893,0
R,,96770,0.074,0.037,1.024,0.4,-3.5,-0.6,898,893,0
R,,96831,0.076,0.036,1.028,0.2,-3.4,-0.9,897,891,0
R,,96890,0.076,0.038,1.027,0.4,-3.4,-0.6,895,893,0
R,,96951,0.074,0.037,1.023,0.4,-3.5,-0.5,897,894,0
R,,97010,0.077,0.038,1.027,0.4,-3.6,-0.9,898,893,0
R,,97071,0.075,0.035,1.028,0.5,-3.5,-0.7,898,891,0
R,,97130,0.075,0.038,1.026,0.4,-3.5,-0.8,901,896,0
R,,97191,0.078,0.037,1.022,0.3,-3.4,-0.7,898,893,0
R,,97250,0.078,0.037,1.026,0.4,-3.6,-0.8,898,891,0
R,,97310,0.077,0.037,1.023,0.4,-3.5,-0.7,898,892,0
R,,97370,0.077,0.036,1.027,0.2,-3.5,-0.7,898,892,0
R,,97430,0.075,0.035,1.025,0.4,-3.5,-0.6,897,892,0
R,,97491,0.075,0.037,1.025,0.3,-3.5,-0.8,897,893,0
R,,97550,0.076,0.037,1.026,0.5,-3.5,-0.8,900,892,0
R,,97611,0.075,0.036,1.025,0.4,-3.5,-0.7,898,893,0
R,,97670,0.078,0.037,1.026,0.6,-3.6,-0.8,899,893,0
R,,97730,0.075,0.038,1.026,0.4,-3.5,-0.7,901,891,0
R,,97791,0.075,0.037,1.028,0.4,-3.5,-0.9,899,891,0
R,,97859,0.076,0.036,1.025,0.7,-3.5,-0.6,900,893,0
R,,97911,0.078,0.040,1.024,0.3,-3.5,-0.7,897,890,0
R,,97970,0.078,0.037,1.027,0.4,-3.5,-0.8,896,891,0
R,,98031,0.076,0.038,1.026,0.4,-3.5,-0.7,900,892,0
R,,98090,0.076,0.038,1.027,0.4,-3.7,-0.9,900,892,0
R,,98151,0.073,0.037,1.027,0.6,-3.3,-0.7,899,894,0
R,,98210,0.075,0.037,1.028,0.4,-3.5,-0.8,897,894,0
R,,98270,0.076,0.036,1.024,0.4,-3.3,-0.6,898,891,0
R,,98331,0.076,0.036,1.025,0.3,-3.5,-0.9,898,892,0
R,,98390,0.072,0.035,1.025,0.4,-3.4,-0.6,897,892,0
R,,98451,0.075,0.037,1.024,0.5,-3.5,-0.7,898,893,0
R,,98510,0.078,0.038,1.022,0.4,-3.7,-0.7,897,892,0
R,,98571,0.077,0.037,1.023,0.3,-3.6,-0.5,899,894,0
R,,98630,0.074,0.038,1.024,0.4,-3.6,-0.8,898,892,0
R,,98691,0.075,0.036,1.024,0.4,-3.5,-0.6,897,891,0
R,,98750,0.074,0.038,1.025,0.3,-3.5,-0.9,899,893,0
R,,98810,0.075,0.036,1.022,0.2,-3.5,-0.6,897,892,0
R,,98871,0.075,0.040,1.025,0.4,-3.7,-0.8,899,891,0
R,,98930,0.076,0.037,1.025,0.2,-3.4,-0.7,899,892,0
R,,98991,0.075,0.034,1.026,0.3,-3.5,-0.7,897,891,0
R,,99050,0.077,0.039,1.024,0.4,-3.5,-0.7,897,891,0
R,,99111,0.076,0.036,1.028,0.4,-3.6,-0.6,897,894,0
R,,99170,0.076,0.037,1.024,0.4,-3.6,-0.7,900,891,0
R,,99231,0.075,0.036,1.024,0.3,-3.4,-0.7,897,893,0
R,,99291,0.075,0.037,1.026,0.4,-3.6,-0.9,900,891,0
R,,99350,0.075,0.037,1.028,0.4,-3.5,-0.7,898,893,0
R,,99411,0.076,0.036,1.026,0.4,-3.5,-0.9,898,891,0
R,,99470,0.074,0.038,1.024,0.3,-3.5,-0.7,896,891,0
R,,99531,0.077,0.039,1.026,0.3,-3.5,-0.7,899,894,0
R,,99590,0.077,0.035,1.029,0.2,-3.5,-0.7,897,894,0
R,,99651,0.075,0.038,1.025,0.5,-3.6,-0.5,897,893,0
R,,99710,0.074,0.038,1.026,0.3,-3.5,-0.9,903,898,0
R,,99771,0.074,0.036,1.025,0.5,-3.5,-0.6,898,891,0
R,,99831,0.077,0.036,1.024,0.4,-3.6,-0.8,897,894,0
R,,99890,0.077,0.036,1.026,0.3,-3.5,-0.6,898,892,0
R,,99951,0.075,0.037,1.024,0.3,-3.5,-0.8,898,892,0
R,,100010,0.079,0.038,1.025,0.4,-3.5,-0.7,899,893,0
R,,100071,0.075,0.037,1.026,0.3,-3.5,-0.7,897,893,0
R,,100130,0.074,0.037,1.026,0.5,-3.5,-0.7,898,893,0
R,,100191,0.075,0.036,1.028,0.4,-3.6,-0.6,898,892,0
R,,100250,0.075,0.038,1.025,0.5,-3.5,-0.9,902,895,0
R,,100311,0.078,0.039,1.026,0.5,-3.3,-0.7,900,894,0
R,,100371,0.075,0.037,1.023,0.4,-3.5,-0.9,897,892,0
R,,100430,0.074,0.037,1.026,0.2,-3.5,-0.7,900,895,0
R,,100491,0.075,0.035,1.026,0.4,-3.7,-0.7,899,891,0
R,,100550,0.075,0.036,1.026,0.3,-3.5,-0.7,898,894,0
R,,100619,0.077,0.036,1.024,0.3,-3.5,-0.8,898,894,0
R,,100670,0.078,0.036,1.023,0.3,-3.7,-0.7,898,893,0
R,,100731,0.076,0.037,1.028,0.5,-3.5,-0.7,899,891,0
R,,100791,0.076,0.036,1.025,0.4,-3.5,-0.8,899,894,0
R,,100851,0.075,0.036,1.025,0.2,-3.5,-0.7,898,892,0
R,,100911,0.076,0.036,1.023,0.4,-3.8,-0.9,896,890,0
R,,100970,0.075,0.038,1.026,0.5,-3.5,-0.5,899,894,0
R,,101035,0.074,0.038,1.025,0.4,-3.7,-0.7,897,894,0
R,,101090,0.075,0.036,1.024,0.5,-3.5,-0.7,897,893,0
R,,101151,0.075,0.037,1.026,0.4,-3.5,-0.8,898,893,0
R,,101210,0.075,0.037,1.024,0.4,-3.3,-0.8,898,892,0
R,,101271,0.076,0.038,1.025,0.4,-3.5,-0.7,898,891,0
R,,101331,0.076,0.037,1.024,0.5,-3.7,-0.7,902,897,0
R,,101391,0.072,0.040,1.025,0.5,-3.4,-0.7,897,892,0
R,,101451,0.077,0.036,1.024,0.5,-3.4,-0.9,897,892,0
R,,101510,0.074,0.039,1.026,0.6,-3.2,-0.6,895,893,0
R,,101571,0.075,0.037,1.023,0.4,-3.7,-0.7,899,891,0
R,,101630,0.075,0.038,1.027,0.4,-3.8,-0.6,899,892,0
R,,101691,0.076,0.036,1.026,0.0,-4.2,-0.6,899,892,0
R,,101750,0.072,0.036,1.026,0.2,-3.5,-0.7,898,894,0
R,,101811,0.075,0.040,1.022,0.5,-3.4,-0.7,898,892,0
R,,101871,0.077,0.038,1.026,0.6,-3.7,-0.9,902,897,0
R,,101931,0.079,0.038,1.027,0.2,-3.9,-0.4,899,892,0
R,,101991,0.076,0.040,1.025,0.4,-4.4,-0.5,900,893,0
R,,102050,0.079,0.038,1.031,0.5,-3.5,-0.5,899,894,0
R,,102111,0.077,0.038,1.021,0.5,-3.5,-0.4,900,894,0
R,,102170,0.075,0.039,1.026,0.4,-3.8,-0.5,898,892,0
R,,102231,0.076,0.038,1.026,0.4,-3.4,-0.7,901,893,0
R,,102291,0.070,0.038,1.014,0.7,-4.1,-0.9,900,892,0
R,,102351,0.076,0.038,1.026,0.3,-3.9,-0.6,899,894,0
R,,102411,0.081,0.038,1.028,-0.4,-3.1,-0.8,902,893,0
R,,102471,0.076,0.036,1.020,0.2,-3.9,-0.4,900,892,0
R,,102531,0.075,0.036,1.024,0.2,-4.0,-0.8,899,892,0
R,,102590,0.079,0.036,1.030,0.6,-3.3,-0.5,899,892,0
R,,102650,0.077,0.040,1.021,0.0,-3.7,-0.9,901,894,0
R,,102710,0.075,0.038,1.026,0.4,-3.5,-0.7,900,892,0
R,,102771,0.074,0.039,1.023,0.5,-3.2,-0.7,901,892,0
R,,102831,0.076,0.038,1.026,0.9,-3.0,-0.9,899,892,0
R,,102891,0.078,0.039,1.023,0.5,-3.2,-0.7,899,892,0
R,,102951,0.075,0.036,1.026,0.3,-3.9,-0.9,901,895,0
R,,103011,0.073,0.038,1.026,0.4,-3.5,-0.7,900,893,0
R,,103071,0.075,0.037,1.025,0.7,-3.2,-0.9,898,891,0
R,,103130,0.076,0.038,1.022,0.8,-3.2,-0.8,900,891,0
R,,103190,0.076,0.036,1.025,0.4,-3.2,-0.9,900,894,0
R,,103250,0.078,0.037,1.025,0.4,-3.3,-0.7,902,892,0
R,,103311,0.074,0.038,1.023,0.3,-3.7,-0.5,901,894,0
R,,103371,0.076,0.039,1.024,0.3,-3.7,-0.8,899,893,0
R,,103431,0.078,0.039,1.025,0.4,-3.7,-0.5,902,894,0
R,,103491,0.076,0.038,1.025,0.4,-3.5,-0.7,900,892,0
R,,103550,0.074,0.039,1.024,0.7,-3.4,-0.6,900,893,0
R,,103641,0.076,0.037,1.025,0.6,-3.2,-0.6,900,893,0
R,,103701,0.076,0.039,1.022,0.4,-3.8,-0.9,900,893,0
R,,103761,0.076,0.039,1.029,0.4,-3.7,-0.7,899,893,0
R,,103821,0.077,0.037,1.028,0.7,-3.5,-0.8,900,892,0
R,,103889,0.077,0.036,1.028,0.5,-3.2,-0.8,902,895,0
R,,103941,0.077,0.040,1.025,0.4,-3.6,-0.7,899,894,0
R,,104000,0.073,0.038,1.024,0.4,-3.3,-0.8,899,891,0
R,,104061,0.076,0.037,1.026,0.5,-3.3,-0.7,900,893,0
R,,104121,0.077,0.039,1.025,0.4,-3.5,-0.9,900,893,0
R,,104181,0.074,0.036,1.025,0.4,-3.7,-0.6,901,893,0
R,,104241,0.074,0.037,1.024,0.2,-3.9,-0.8,906,897,0
R,,104301,0.075,0.037,1.024,0.7,-3.3,-0.7,900,893,0
R,,104361,0.078,0.034,1.027,0.2,-3.2,-0.8,901,892,0
R,,104420,0.072,0.040,1.021,0.4,-3.9,-0.6,898,892,0
R,,104481,0.078,0.037,1.031,0.4,-3.5,-0.7,899,893,0
R,,104541,0.076,0.037,1.025,0.4,-3.2,-0.8,901,893,0
R,,104601,0.074,0.037,1.026,0.4,-3.6,-0.7,900,893,0
R,,104661,0.077,0.035,1.027,0.3,-3.5,-0.9,900,894,0
R,,104721,0.078,0.038,1.025,0.4,-3.3,-0.6,900,894,0
R,,104781,0.077,0.038,1.027,0.5,-3.7,-0.7,901,895,0
R,,104841,0.077,0.038,1.024,0.2,-3.5,-0.7,901,895,0
R,,104901,0.075,0.036,1.027,0.4,-3.6,-0.7,902,893,0
R,,104960,0.077,0.038,1.021,0.3,-3.5,-0.7,900,892,0
R,,105020,0.075,0.038,1.023,0.2,-3.5,-0.6,901,893,0
R,,105081,0.077,0.038,1.027,0.3,-3.5,-0.8,899,892,0
R,,105141,0.075,0.039,1.027,0.4,-3.5,-0.5,900,894,0
R,,105201,0.078,0.039,1.026,0.2,-3.7,-0.9,900,896,0
R,,105261,0.077,0.039,1.024,0.5,-3.5,-0.7,899,894,0
R,,105321,0.077,0.039,1.025,0.4,-3.5,-0.8,902,895,0
R,,105380,0.077,0.038,1.023,0.4,-3.5,-0.7,900,893,0
R,,105441,0.075,0.036,1.025,0.4,-3.4,-0.7,899,893,0
R,,105500,0.075,0.039,1.023,0.5,-3.5,-0.8,899,892,0
R,,105561,0.078,0.039,1.025,0.4,-3.5,-0.7,902,894,0
R,,105621,0.075,0.041,1.027,0.4,-3.5,-0.9,901,893,0
R,,105681,0.077,0.040,1.025,0.4,-3.5,-0.6,899,893,0
R,,105741,0.074,0.038,1.024,0.4,-3.7,-0.7,902,894,0
R,,105801,0.074,0.037,1.027,0.5,-3.5,-0.7,900,892,0
R,,105861,0.076,0.036,1.025,0.4,-3.6,-0.5,902,893,0
R,,105920,0.072,0.039,1.023,0.4,-3.5,-0.7,900,893,0
R,,105981,0.076,0.036,1.026,0.4,-3.5,-0.7,899,894,0
R,,106041,0.078,0.037,1.024,0.4,-3.4,-0.9,900,893,0
R,,106101,0.074,0.038,1.027,0.5,-3.5,-0.6,900,892,0
R,,106161,0.076,0.038,1.023,0.3,-3.7,-0.8,900,894,0
R,,106221,0.079,0.037,1.024,0.4,-3.4,-0.7,900,893,0
R,,106281,0.077,0.036,1.029,0.4,-3.5,-0.6,906,897,0
R,,106341,0.078,0.038,1.027,0.4,-3.4,-0.7,898,893,0
R,,106401,0.076,0.037,1.024,0.3,-3.5,-0.7,902,895,0
R,,106460,0.076,0.039,1.027,0.2,-3.6,-0.7,902,894,0
R,,106521,0.077,0.037,1.025,0.4,-3.5,-0.7,901,893,0
R,,106581,0.076,0.040,1.024,0.4,-3.6,-0.8,901,891,0
R,,106649,0.076,0.037,1.023,0.4,-3.5,-0.7,899,893,0
R,,106701,0.074,0.036,1.025,0.4,-3.6,-0.9,901,894,0
R,,106761,0.077,0.038,1.023,0.4,-3.4,-0.7,899,893,0
R,,106821,0.076,0.040,1.028,0.4,-3.7,-0.7,903,897,0
R,,106881,0.077,0.039,1.026,0.3,-3.3,-0.7,899,893,0
R,,106941,0.076,0.038,1.026,0.4,-3.5,-0.7,897,893,0
R,,107000,0.077,0.039,1.024,0.3,-3.5,-0.6,902,893,0
R,,107065,0.077,0.038,1.023,0.2,-3.7,-0.6,901,891,0
R,,107121,0.077,0.036,1.026,0.3,-3.5,-1.0,900,893,0
R,,107181,0.076,0.037,1.023,0.6,-3.5,-0.7,902,893,0
R,,107241,0.075,0.037,1.025,0.4,-3.5,-0.8,900,893,0
R,,107301,0.075,0.038,1.025,0.4,-3.7,-0.7,900,893,0
R,,107361,0.076,0.039,1.026,0.3,-3.3,-0.7,903,895,0
R,,107421,0.079,0.039,1.024,0.4,-3.6,-0.7,900,895,0
R,,107481,0.078,0.038,1.023,0.4,-3.5,-0.5,902,891,0
R,,107541,0.075,0.039,1.026,0.6,-3.7,-0.9,902,893,0
R,,107601,0.076,0.038,1.027,0.3,-3.3,-0.7,899,893,0
R,,107661,0.077,0.037,1.023,0.5,-3.6,-0.5,899,893,0
R,,107721,0.075,0.040,1.024,0.3,-3.5,-0.7,899,893,0
R,,107811,0.075,0.037,1.024,0.4,-3.5,-0.7,900,893,0
R,,107871,0.079,0.036,1.025,0.3,-3.4,-0.7,901,893,0
R,,107961,0.075,0.037,1.028,0.4,-3.5,-0.7,900,891,0
R,,108021,0.075,0.040,1.025,0.4,-3.5,-0.7,899,893,0
R,,108081,0.078,0.040,1.023,0.2,-3.6,-0.6,900,893,0
R,,108141,0.076,0.038,1.023,0.4,-3.6,-0.9,901,892,0
R,,108201,0.078,0.036,1.029,0.2,-3.9,-0.6,901,893,0
R,,108261,0.072,0.040,1.026,0.4,-3.5,-0.9,898,892,0
R,,108321,0.077,0.039,1.024,0.4,-3.4,-0.7,900,892,0
R,,108381,0.074,0.040,1.022,0.4,-3.5,-0.7,899,892,0
R,,108441,0.075,0.036,1.027,0.4,-3.5,-0.8,902,893,0
R,,108501,0.076,0.036,1.024,0.5,-3.4,-0.7,901,893,0
R,,108561,0.073,0.039,1.028,0.4,-3.6,-0.9,899,893,0
R,,108621,0.074,0.037,1.025,0.6,-3.5,-0.7,901,894,0
R,,108681,0.076,0.040,1.023,0.4,-3.6,-0.7,900,894,0
R,,108741,0.077,0.035,1.027,0.4,-3.5,-0.7,899,892,0
R,,108801,0.074,0.038,1.025,0.4,-3.3,-0.7,900,891,0
R,,108861,0.076,0.037,1.023,0.4,-3.6,-0.8,899,894,0
R,,108921,0.072,0.037,1.024,0.3,-3.5,-0.7,901,893,0
R,,108981,0.074,0.037,1.024,0.4,-3.7,-0.8,901,894,0
R,,109041,0.076,0.037,1.029,0.4,-3.1,-0.7,899,893,0
R,,109101,0.077,0.038,1.019,0.4,-3.5,-0.5,899,893,0
R,,109161,0.075,0.037,1.026,0.3,-3.9,-0.9,900,893,0
R,,109221,0.075,0.040,1.027,0.4,-3.5,-0.6,900,892,0
R,,109281,0.076,0.036,1.023,0.5,-3.5,-0.9,899,892,0
R,,109341,0.078,0.039,1.027,0.5,-3.5,-0.6,900,893,0
R,,109401,0.077,0.039,1.025,0.4,-3.7,-0.7,903,898,0
R,,109461,0.080,0.038,1.024,0.5,-3.5,-0.7,899,893,0
R,,109521,0.076,0.038,1.025,0.6,-3.5,-0.7,899,893,0
R,,109581,0.076,0.037,1.025,0.4,-3.2,-0.9,900,894,0
R,,109641,0.075,0.036,1.022,0.5,-3.6,-0.7,899,894,0
R,,109701,0.075,0.039,1.026,0.4,-3.7,-0.7,900,891,0
R,,109761,0.075,0.037,1.025,0.4,-3.4,-0.7,899,893,0
R,,109821,0.073,0.041,1.018,0.4,-3.8,-0.7,900,893,0
R,,109881,0.075,0.036,1.025,0.2,-3.6,-0.8,902,894,0
R,,109950,0.073,0.038,1.027,0.4,-3.3,-0.8,900,893,0
R,,110001,0.075,0.037,1.020,0.5,-3.6,-0.7,899,895,0
R,,110061,0.076,0.038,1.026,0.4,-3.5,-0.7,901,890,0
R,,110121,0.076,0.038,1.024,0.4,-3.7,-0.9,901,893,0
R,,110181,0.074,0.040,1.029,0.3,-3.5,-0.8,900,892,0
R,,110271,0.074,0.038,1.021,0.5,-3.5,-0.7,900,894,0
R,,110331,0.076,0.038,1.025,0.4,-3.5,-0.7,900,894,0
R,,110391,0.075,0.038,1.026,0.4,-3.3,-0.8,898,891,0
R,,110451,0.075,0.039,1.022,0.5,-3.5,-0.6,899,893,0
R,,110511,0.076,0.038,1.027,0.4,-3.6,-0.9,902,894,0
R,,110571,0.075,0.039,1.026,0.5,-3.4,-0.5,899,892,0
R,,110631,0.077,0.039,1.025,0.4,-3.5,-0.8,900,891,0
R,,110691,0.074,0.036,1.023,0.5,-3.5,-0.7,905,895,0
R,,110751,0.078,0.040,1.026,0.4,-3.3,-0.7,899,894,0
R,,110811,0.077,0.039,1.025,0.3,-3.8,-0.8,897,892,0
R,,110871,0.076,0.040,1.026,0.3,-3.4,-0.6,900,892,0
R,,110931,0.075,0.039,1.024,0.4,-3.7,-0.9,899,893,0
R,,110991,0.075,0.039,1.027,0.5,-3.5,-0.6,899,894,0
R,,111051,0.076,0.037,1.023,0.3,-3.5,-0.7,900,896,0
R,,111111,0.074,0.038,1.026,0.3,-3.5,-0.7,900,895,0
R,,111171,0.077,0.038,1.025,0.3,-3.5,-0.6,899,891,0
R,,111231,0.075,0.036,1.025,0.2,-3.7,-0.9,903,897,0
R,,111291,0.076,0.037,1.024,0.4,-3.6,-0.7,899,894,0
R,,111351,0.076,0.037,1.025,0.4,-3.5,-0.7,900,890,0
R,,111411,0.077,0.037,1.027,0.4,-3.4,-0.7,901,893,0
R,,111471,0.075,0.038,1.026,0.6,-3.5,-0.7,900,894,0
R,,111531,0.078,0.038,1.026,0.2,-3.5,-0.9,901,893,0
R,,111591,0.075,0.037,1.025,0.7,-3.5,-0.6,899,894,0
R,,111651,0.076,0.037,1.023,0.2,-3.6,-0.8,901,893,0
R,,111711,0.073,0.038,1.029,0.4,-3.3,-0.7,899,895,0
R,,111771,0.076,0.039,1.021,0.6,-3.5,-0.7,902,894,0
R,,111832,0.077,0.039,1.026,0.4,-3.4,-0.8,899,893,0
R,,111891,0.075,0.039,1.023,0.4,-3.5,-0.6,901,894,0
R,,111951,0.077,0.039,1.025,0.3,-3.5,-0.9,898,892,0
R,,112010,0.075,0.037,1.025,0.4,-3.4,-0.6,901,892,0
R,,112071,0.075,0.035,1.023,0.3,-3.6,-0.7,901,894,0
R,,112131,0.073,0.037,1.026,0.4,-3.5,-0.7,900,893,0
R,,112191,0.076,0.038,1.025,0.3,-3.4,-0.7,901,894,0
R,,112251,0.077,0.038,1.023,0.4,-3.7,-0.8,899,891,0
R,,112311,0.077,0.039,1.027,0.3,-3.5,-0.7,901,895,0
R,,112371,0.075,0.040,1.026,0.5,-3.5,-0.7,900,895,0
R,,112431,0.077,0.038,1.024,0.5,-3.7,-0.7,901,894,0
R,,112491,0.075,0.037,1.027,0.3,-3.5,-0.7,900,894,0
R,,112551,0.075,0.036,1.024,0.4,-3.6,-0.7,901,894,0
R,,112611,0.074,0.039,1.024,0.4,-3.4,-0.6,898,891,0
R,,112671,0.076,0.039,1.022,0.4,-3.7,-0.9,901,893,0
R,,112738,0.073,0.040,1.025,0.4,-3.5,-0.7,901,893,0
R,,112791,0.076,0.039,1.025,0.4,-3.6,-0.7,900,893,0
R,,112851,0.076,0.040,1.025,0.4,-3.7,-0.7,900,896,0
R,,112911,0.073,0.037,1.024,0.4,-3.5,-0.7,902,893,0
R,,112971,0.073,0.038,1.023,0.3,-3.7,-0.9,900,892,0
R,,113031,0.075,0.038,1.027,0.4,-3.5,-0.6,900,892,0
R,,113091,0.074,0.040,1.026,0.4,-3.7,-0.7,899,893,0
R,,113153,0.075,0.039,1.024,0.2,-3.5,-0.7,900,891,0
R,,113211,0.074,0.037,1.022,0.3,-3.6,-0.7,899,893,0
R,,113271,0.076,0.036,1.023,0.3,-3.7,-0.7,900,893,0
R,,113332,0.074,0.038,1.028,0.4,-3.4,-0.7,901,891,0
R,,113391,0.074,0.041,1.024,0.4,-3.6,-0.9,898,893,0
R,,113451,0.075,0.037,1.026,0.4,-3.7,-0.7,899,892,0
R,,113511,0.077,0.038,1.026,0.4,-3.5,-0.7,900,894,0
R,,113571,0.074,0.040,1.027,0.4,-3.5,-0.8,899,894,0
R,,113631,0.076,0.039,1.026,0.6,-3.4,-0.6,901,894,0
R,,113691,0.076,0.038,1.026,0.3,-3.6,-1.0,899,894,0
R,,113751,0.075,0.039,1.024,0.7,-3.4,-0.6,899,892,0
R,,113811,0.076,0.040,1.024,0.4,-3.5,-0.8,904,898,0
R,,113872,0.077,0.038,1.022,0.3,-3.6,-0.7,900,894,0
R,,113931,0.076,0.038,1.025,0.3,-3.5,-0.7,901,892,0
R,,113991,0.075,0.038,1.025,0.3,-3.4,-0.9,899,894,0
R,,114051,0.076,0.039,1.025,0.6,-3.6,-0.7,901,893,0
R,,114111,0.075,0.038,1.022,0.4,-3.6,-0.8,901,893,0
R,,114171,0.075,0.035,1.024,0.5,-3.7,-0.7,902,895,0
R,,114231,0.073,0.039,1.024,0.3,-3.6,-0.8,901,895,0
R,,114291,0.078,0.038,1.026,0.5,-3.5,-0.7,900,894,0
R,,114351,0.077,0.039,1.022,0.5,-3.7,-0.7,902,896,0
R,,114412,0.077,0.038,1.026,0.3,-3.6,-0.9,900,893,0
R,,114471,0.073,0.038,1.020,0.4,-3.5,-0.7,900,892,0
R,,114531,0.073,0.037,1.024,0.2,-3.7,-0.7,900,893,0
R,,114590,0.074,0.039,1.028,0.6,-3.5,-0.6,901,892,0
R,,114651,0.076,0.039,1.025,0.4,-3.4,-0.7,901,893,0
R,,114711,0.076,0.039,1.023,0.3,-3.6,-0.8,901,892,0
R,,114771,0.075,0.040,1.027,0.4,-3.5,-0.7,900,893,0
R,,114832,0.076,0.038,1.024,0.4,-3.6,-0.8,900,892,0
R,,114891,0.075,0.039,1.026,0.3,-3.5,-0.7,901,895,0
R,,114951,0.071,0.038,1.022,0.4,-3.5,-0.7,899,894,0
R,,115011,0.076,0.038,1.027,0.3,-3.6,-0.7,899,894,0
R,,115071,0.076,0.039,1.027,0.3,-3.6,-0.7,899,893,0
R,,115131,0.078,0.038,1.023,0.4,-3.5,-0.8,899,894,0
R,,115191,0.075,0.040,1.024,0.4,-3.4,-0.6,899,893,0
R,,115251,0.073,0.038,1.027,0.4,-3.7,-0.9,901,892,0
R,,115311,0.073,0.041,1.023,0.5,-3.3,-0.6,905,896,0
R,,115372,0.078,0.036,1.023,0.4,-3.5,-0.7,900,893,0
R,,115431,0.077,0.038,1.027,0.2,-3.7,-0.8,900,894,0
R,,115491,0.076,0.037,1.028,0.4,-3.2,-0.7,902,892,0
R,,115551,0.076,0.039,1.023,0.4,-3.4,-0.9,900,893,0
R,,115611,0.074,0.040,1.023,0.4,-3.7,-0.5,902,892,0
R,,115671,0.075,0.041,1.028,0.3,-3.5,-0.8,900,893,0
R,,115731,0.077,0.037,1.024,0.4,-3.3,-0.7,900,893,0
R,,115791,0.075,0.040,1.025,0.6,-3.5,-0.6,902,892,0
R,,115851,0.075,0.039,1.025,0.2,-3.5,-0.8,902,893,0
R,,115912,0.073,0.039,1.023,0.6,-3.5,-0.7,904,895,0
R,,115980,0.074,0.037,1.028,0.4,-3.5,-0.7,902,896,0
R,,116031,0.076,0.038,1.027,0.5,-3.5,-0.6,900,891,0
R,,116091,0.074,0.040,1.024,0.3,-3.5,-0.7,901,894,0
R,,116151,0.075,0.039,1.029,0.3,-3.7,-0.7,899,893,0
R,,116211,0.072,0.040,1.027,0.5,-3.4,-0.7,901,892,0
R,,116271,0.076,0.036,1.023,0.4,-3.6,-1.0,899,894,0
R,,116332,0.076,0.038,1.024,0.4,-3.5,-0.5,900,893,0
R,,116391,0.074,0.038,1.026,0.2,-3.5,-0.9,903,894,0
R,,116452,0.074,0.038,1.025,0.4,-3.5,-0.7,901,894,0
R,,116511,0.078,0.038,1.026,0.0,-3.7,-0.7,904,893,0
R,,116571,0.074,0.036,1.029,0.4,-3.4,-0.7,899,892,0
R,,116631,0.074,0.038,1.024,0.4,-3.4,-0.7,899,893,0
R,,116691,0.074,0.038,1.024,0.5,-3.7,-0.8,900,892,0
R,,116751,0.076,0.039,1.027,0.3,-3.5,-0.8,899,893,0
R,,116811,0.075,0.039,1.025,0.4,-3.5,-0.7,901,894,0
R,,116872,0.076,0.037,1.023,0.2,-3.5,-0.8,902,894,0
R,,116931,0.072,0.036,1.026,0.4,-3.5,-0.5,902,895,0
R,,116992,0.077,0.038,1.025,0.3,-3.5,-0.8,901,894,0
R,,117051,0.074,0.038,1.024,0.6,-3.5,-0.6,901,895,0
R,,117111,0.076,0.040,1.025,0.4,-3.4,-0.8,900,894,0
R,,117170,0.075,0.039,1.023,0.5,-3.6,-0.7,898,892,0
R,,117231,0.074,0.038,1.030,0.3,-3.5,-0.7,898,893,0
R,,117291,0.074,0.038,1.027,0.7,-3.2,-0.8,900,893,0
R,,117351,0.074,0.039,1.021,0.5,-3.4,-0.6,900,894,0
R,,117412,0.073,0.039,1.027,0.2,-3.7,-0.9,900,892,0
R,,117471,0.072,0.039,1.028,0.6,-3.2,-0.6,899,893,0
R,,117531,0.076,0.038,1.024,0.4,-3.4,-0.7,899,894,0
R,,117591,0.073,0.039,1.022,0.4,-3.5,-0.7,900,892,0
R,,117651,0.075,0.039,1.025,0.4,-3.6,-0.7,900,893,0
R,,117711,0.075,0.039,1.027,0.3,-3.6,-0.8,900,892,0
R,,117771,0.076,0.038,1.023,0.4,-3.7,-0.5,899,892,0
R,,117832,0.075,0.039,1.025,0.3,-3.5,-0.9,900,894,0
R,,117891,0.076,0.039,1.028,0.4,-3.5,-0.7,905,897,0
R,,117952,0.074,0.037,1.022,0.3,-3.5,-0.8,901,893,0
R,,118011,0.073,0.038,1.024,0.4,-3.4,-0.6,900,895,0
R,,118071,0.076,0.037,1.029,0.4,-3.4,-0.7,899,893,0
R,,118131,0.076,0.037,1.025,0.4,-3.6,-0.8,904,895,0
R,,118191,0.075,0.039,1.027,0.4,-3.4,-0.7,900,894,0
R,,118251,0.078,0.038,1.025,0.4,-3.5,-0.7,901,894,0
R,,118311,0.074,0.040,1.022,0.5,-3.4,-0.9,901,894,0
R,,118372,0.077,0.038,1.024,0.6,-3.7,-0.7,901,894,0
R,,118431,0.076,0.039,1.026,0.5,-3.6,-0.7,904,896,0
R,,118492,0.076,0.039,1.024,0.6,-3.5,-0.7,898,894,0
R,,118551,0.075,0.038,1.025,0.4,-3.4,-0.8,901,893,0
R,,118611,0.075,0.036,1.023,0.5,-3.5,-0.6,899,894,0
R,,118671,0.072,0.037,1.023,0.5,-3.6,-0.7,899,893,0
R,,118740,0.075,0.039,1.028,0.3,-3.2,-0.7,901,893,0
R,,118791,0.075,0.035,1.024,0.4,-3.5,-0.6,900,895,0
R,,118851,0.075,0.038,1.027,0.3,-3.6,-0.9,901,894,0
R,,118912,0.075,0.036,1.024,0.3,-3.5,-0.6,901,894,0
R,,118971,0.074,0.037,1.026,0.2,-3.7,-0.9,905,896,0
R,,119032,0.075,0.037,1.028,0.4,-3.5,-0.7,901,894,0
R,,119091,0.076,0.035,1.024,0.3,-3.2,-0.7,900,894,0
R,,119155,0.074,0.038,1.020,0.5,-3.4,-0.7,901,893,0
R,,119211,0.075,0.038,1.025,0.4,-3.7,-0.6,901,894,0
R,,119271,0.076,0.037,1.027,0.4,-3.6,-0.7,900,893,0
R,,119332,0.075,0.038,1.023,0.5,-3.6,-0.8,902,892,0
R,,119391,0.074,0.040,1.026,0.5,-3.7,-0.7,899,895,0
R,,119452,0.076,0.039,1.027,0.3,-3.4,-0.8,902,894,0
R,,119511,0.074,0.038,1.026,0.6,-3.3,-0.6,901,896,0
R,,119572,0.075,0.038,1.025,0.4,-3.5,-0.9,902,893,0
R,,119631,0.075,0.037,1.028,0.6,-3.5,-0.7,901,893,0
R,,119691,0.073,0.040,1.027,0.2,-3.3,-0.8,900,895,0
R,,119751,0.074,0.040,1.022,0.4,-3.7,-0.7,900,893,0
R,,119811,0.076,0.037,1.022,0.2,-3.5,-0.6,900,893,0
R,,119872,0.075,0.040,1.028,0.2,-3.7,-0.7,899,894,0
R,,119931,0.077,0.039,1.023,0.3,-3.4,-0.5,901,893,0
R,,119992,0.076,0.038,1.025,0.5,-3.5,-0.9,900,894,0
R,,120051,0.074,0.039,1.023,0.5,-3.5,-0.7,900,894,0
R,,120111,0.077,0.037,1.026,0.2,-3.5,-0.9,901,894,0
R,,120171,0.074,0.038,1.027,0.4,-3.3,-0.7,900,894,0
R,,120231,0.076,0.040,1.024,0.4,-3.4,-0.6,899,893,0
R,,120291,0.078,0.039,1.025,0.4,-3.5,-0.7,899,893,0
R,,120351,0.074,0.038,1.024,0.5,-3.5,-0.8,900,892,0
R,,120412,0.075,0.038,1.024,0.4,-3.5,-0.9,902,891,0
R,,120471,0.075,0.039,1.023,0.4,-3.5,-0.8,906,895,0
R,,120532,0.075,0.037,1.027,0.4,-3.5,-0.7,901,893,0
R,,120591,0.074,0.038,1.027,0.5,-3.5,-0.7,898,894,0
R,,120651,0.073,0.040,1.023,0.6,-3.3,-0.7,900,894,0
R,,120711,0.076,0.039,1.021,0.4,-3.7,-0.8,900,895,0
R,,120771,0.076,0.038,1.025,0.1,-3.6,-0.6,901,894,0
R,,120832,0.075,0.039,1.026,0.5,-3.5,-0.8,900,895,0
R,,120891,0.074,0.038,1.025,0.3,-3.3,-0.8,901,895,0
R,,120952,0.075,0.038,1.023,0.3,-3.5,-0.5,900,893,0
R,,121011,0.074,0.037,1.023,0.4,-3.5,-0.7,901,894,0
R,,121072,0.077,0.039,1.027,0.4,-3.5,-0.7,902,895,0
R,,121131,0.078,0.037,1.025,0.6,-3.4,-0.9,901,891,0
R,,121191,0.075,0.037,1.021,0.7,-3.4,-0.7,902,893,0
R,,121251,0.076,0.039,1.024,0.2,-3.7,-0.8,900,894,0
R,,121311,0.075,0.037,1.024,0.4,-3.7,-0.6,902,893,0
R,,121372,0.075,0.040,1.026,0.4,-3.5,-0.7,902,893,0
R,,121431,0.074,0.038,1.024,0.2,-3.6,-0.7,901,894,0
R,,121492,0.076,0.039,1.025,0.3,-3.7,-0.7,900,894,0
R,,121551,0.075,0.037,1.024,0.4,-3.5,-0.7,903,900,0
R,,121612,0.077,0.036,1.027,0.4,-3.3,-0.7,901,894,0
R,,121671,0.077,0.039,1.027,0.4,-3.3,-0.7,902,894,0
R,,121731,0.073,0.039,1.020,0.4,-3.5,-0.9,901,893,0
R,,121791,0.076,0.037,1.024,0.6,-3.5,-0.7,901,894,0
R,,121851,0.076,0.039,1.027,0.3,-3.6,-0.9,901,893,0
R,,121912,0.075,0.038,1.024,0.6,-3.4,-0.7,899,893,0
R,,121980,0.077,0.037,1.023,0.4,-3.4,-0.7,901,895,0
R,,122032,0.075,0.040,1.024,0.3,-3.7,-0.8,900,892,0
R,,122091,0.075,0.040,1.026,0.6,-3.6,-0.7,902,898,0
R,,122151,0.075,0.039,1.026,0.4,-3.6,-0.9,901,893,0
R,,122211,0.075,0.039,1.022,0.3,-3.7,-0.7,901,893,0
R,,122271,0.072,0.037,1.028,0.5,-3.6,-0.8,901,894,0
R,,122332,0.077,0.039,1.025,0.4,-3.4,-0.7,904,896,0
R,,122391,0.073,0.038,1.024,0.5,-3.4,-0.7,903,893,0
R,,122452,0.077,0.039,1.025,0.2,-3.9,-0.8,902,893,0
R,,122511,0.077,0.035,1.027,0.4,-3.4,-0.6,899,893,0
R,,122572,0.076,0.040,1.023,0.3,-3.3,-0.9,902,894,0
R,,122631,0.073,0.039,1.028,0.2,-3.5,-0.6,902,892,0
R,,122691,0.074,0.038,1.022,0.3,-3.8,-0.6,902,895,0
R,,122751,0.077,0.038,1.028,0.3,-3.4,-0.8,902,895,0
R,,122811,0.076,0.038,1.019,0.5,-3.1,-0.7,902,894,0
R,,122872,0.073,0.037,1.029,0.2,-3.9,-0.7,900,893,0
R,,122931,0.080,0.037,1.024,0.4,-3.4,-0.6,901,895,0
R,,122992,0.077,0.037,1.023,0.6,-3.4,-0.9,901,894,0
R,,123051,0.072,0.041,1.024,0.6,-3.1,-0.7,902,895,0
R,,123112,0.075,0.037,1.024,0.2,-3.9,-0.5,903,894,0
R,,123202,0.076,0.036,1.022,0.6,-3.5,-0.9,901,897,0
R,,123261,0.075,0.040,1.023,0.7,-3.2,-0.9,901,894,0
R,,123322,0.075,0.039,1.027,0.5,-3.9,-0.5,901,891,0
R,,123381,0.074,0.040,1.027,0.6,-3.7,-0.8,902,894,0
R,,123441,0.074,0.040,1.023,0.9,-2.9,-0.9,903,893,0
R,,123501,0.075,0.039,1.022,0.6,-4.1,-0.8,900,894,0
R,,123561,0.074,0.037,1.025,0.7,-3.7,-0.8,901,893,0
R,,123622,0.077,0.037,1.022,0.4,-3.0,-1.0,902,893,0
R,,123681,0.076,0.037,1.028,0.2,-3.6,-0.5,900,892,0
R,,123742,0.070,0.037,1.024,0.7,-3.4,-0.7,901,892,0
R,,123801,0.076,0.038,1.022,0.4,-3.6,-1.1,900,893,0
R,,123862,0.073,0.040,1.026,0.7,-3.4,-0.7,901,895,0
R,,123921,0.075,0.040,1.023,0.2,-3.8,-0.8,902,895,0
R,,123981,0.075,0.039,1.028,0.4,-3.5,-0.7,902,893,0
R,,124041,0.073,0.040,1.027,0.3,-3.2,-0.7,900,893,0
R,,124101,0.074,0.039,1.022,0.3,-3.7,-0.7,901,893,0
R,,124162,0.075,0.039,1.027,0.2,-3.6,-0.6,902,894,0
R,,124221,0.078,0.038,1.025,0.4,-3.5,-0.9,900,894,0
R,,124282,0.075,0.041,1.025,0.4,-3.2,-0.7,900,893,0
R,,124341,0.074,0.039,1.023,0.3,-3.6,-0.7,905,897,0
R,,124402,0.077,0.038,1.024,0.4,-3.9,-0.5,901,894,0
R,,124461,0.077,0.037,1.024,0.1,-3.5,-0.7,901,892,0
R,,124521,0.079,0.037,1.022,0.4,-3.6,-0.9,902,894,0
R,,124582,0.074,0.038,1.025,0.4,-3.6,-0.7,902,894,0
R,,124641,0.074,0.038,1.028,0.2,-3.6,-0.7,899,891,0
R,,124702,0.077,0.039,1.023,0.4,-3.7,-0.6,901,894,0
R,,124770,0.076,0.038,1.022,0.4,-3.5,-0.7,899,895,0
R,,124822,0.074,0.038,1.026,0.5,-3.5,-0.7,901,894,0
R,,124881,0.074,0.037,1.026,0.4,-3.4,-0.7,903,892,0
R,,124942,0.074,0.039,1.025,0.4,-3.5,-0.8,901,895,0
R,,125032,0.074,0.039,1.022,0.4,-3.7,-0.7,900,895,0
R,,125091,0.077,0.038,1.029,0.3,-3.3,-0.7,901,894,0
R,,125152,0.074,0.040,1.024,0.6,-3.5,-0.9,900,894,0
R,,125213,0.076,0.038,1.026,0.5,-3.5,-0.7,899,894,0
R,,125271,0.071,0.038,1.026,0.6,-3.4,-0.7,901,893,0
R,,125332,0.073,0.037,1.024,0.4,-3.7,-0.7,900,894,0
R,,125391,0.074,0.038,1.024,0.3,-3.5,-0.6,903,895,0
R,,125452,0.074,0.039,1.024,0.3,-3.7,-0.9,901,894,0
R,,125511,0.073,0.040,1.024,0.4,-3.4,-0.8,899,893,0
R,,125572,0.075,0.040,1.023,0.4,-3.5,-0.7,900,893,0
R,,125631,0.074,0.038,1.025,0.2,-3.6,-0.7,902,894,0
R,,125692,0.075,0.039,1.025,0.1,-3.4,-0.6,899,893,0
R,,125751,0.074,0.040,1.023,0.3,-3.4,-0.9,901,892,0
R,,125811,0.074,0.038,1.027,0.3,-3.2,-0.7,904,894,0
R,,125872,0.072,0.040,1.026,0.6,-2.8,-1.1,901,894,0
R,,125931,0.073,0.037,1.026,0.4,-3.2,-0.9,899,892,0
R,,125992,0.072,0.038,1.020,0.5,-3.5,-0.6,899,894,0
R,,126051,0.078,0.039,1.027,0.4,-4.2,-0.6,901,893,0
R,,126112,0.081,0.043,1.024,-0.4,-5.6,-0.2,900,894,0
R,,126171,0.081,0.044,1.037,-1.4,-4.9,-0.9,903,895,0
R,,126232,0.075,0.037,1.026,1.3,-3.3,-0.7,902,892,0
R,,126291,0.074,0.041,1.025,1.3,-3.2,-0.5,901,892,0
R,,126351,0.075,0.039,1.028,0.7,-3.5,-0.6,900,893,0
R,,126412,0.077,0.040,1.024,0.0,-3.4,-0.7,901,893,0
R,,126471,0.079,0.042,1.026,-0.1,-3.9,-0.7,900,892,0
R,,126532,0.074,0.040,1.028,0.2,-3.5,-0.7,902,892,0
R,,126591,0.074,0.040,1.022,0.5,-3.4,-0.9,903,891,0
R,,126652,0.078,0.041,1.024,0.5,-3.5,-0.7,903,892,0
R,,126711,0.077,0.038,1.024,0.7,-3.3,-0.7,903,892,0
R,,126771,0.075,0.040,1.026,0.6,-3.3,-0.7,901,892,0
R,,126832,0.076,0.041,1.026,0.9,-3.2,-0.7,900,891,0
R,,126891,0.075,0.040,1.023,0.8,-3.5,-0.9,900,890,0
R,,126952,0.074,0.039,1.027,0.9,-3.0,-0.7,903,891,0
R,,127011,0.077,0.042,1.024,0.7,-3.1,-0.7,901,890,0
R,,127072,0.073,0.038,1.019,0.7,-3.6,-0.5,901,891,0
R,,127131,0.076,0.040,1.027,0.2,-3.7,-0.7,902,890,0
R,,127192,0.076,0.037,1.030,0.4,-3.2,-0.6,901,893,0
R,,127251,0.074,0.037,1.018,0.4,-3.3,-0.7,901,891,0
R,,127311,0.075,0.042,1.029,0.2,-3.9,-0.7,901,889,0
R,,127372,0.077,0.040,1.022,0.5,-3.7,-0.7,902,891,0
R,,127431,0.078,0.038,1.025,0.4,-3.6,-0.5,904,891,0
R,,127492,0.074,0.037,1.027,0.3,-3.3,-0.7,901,891,0
R,,127551,0.072,0.036,1.023,0.5,-3.2,-0.6,902,892,0
R,,127612,0.074,0.039,1.027,0.4,-3.2,-0.9,900,890,0
R,,127671,0.073,0.040,1.017,0.7,-3.6,-0.7,902,889,0
R,,127761,0.078,0.041,1.022,0.9,-3.0,-0.7,901,891,0
R,,127822,0.073,0.044,1.027,0.2,-3.5,-1.0,902,892,0
R,,127881,0.077,0.042,1.022,0.8,-3.5,-0.7,901,891,0
R,,127942,0.073,0.039,1.026,0.7,-3.9,-0.9,902,890,0
R,,128001,0.074,0.041,1.029,0.9,-3.6,-0.7,900,891,0
R,,128070,0.075,0.044,1.025,0.4,-3.8,-0.7,904,891,0
R,,128152,0.076,0.037,1.024,0.1,-3.7,-0.8,901,889,0
R,,128211,0.076,0.040,1.024,0.6,-3.7,-0.7,904,895,0
R,,128272,0.077,0.039,1.024,0.5,-3.5,-0.7,902,891,0
R,,128332,0.074,0.041,1.024,0.2,-3.9,-0.7,901,889,0
R,,128391,0.075,0.043,1.025,0.2,-3.5,-0.9,902,887,0
R,,128452,0.074,0.043,1.022,0.7,-3.5,-0.8,903,889,0
R,,128511,0.075,0.042,1.027,0.4,-3.2,-0.7,901,887,0
R,,128572,0.075,0.041,1.025,0.4,-3.5,-0.8,902,887,0
R,,128631,0.076,0.040,1.024,0.0,-3.4,-0.9,900,885,0
R,,128692,0.076,0.040,1.022,0.4,-3.5,-0.4,903,886,0
R,,128751,0.076,0.041,1.028,0.4,-3.5,-0.8,902,885,0
R,,128812,0.075,0.040,1.021,1.0,-3.9,-0.6,902,884,0
R,,128872,0.076,0.038,1.025,0.0,-3.7,-0.9,902,882,0
R,,128931,0.073,0.035,1.025,0.2,-3.6,-0.4,902,884,0
R,,128991,0.073,0.040,1.030,0.7,-2.9,-0.7,900,884,0
R,,129051,0.076,0.044,1.020,0.7,-3.2,-0.7,900,881,0
R,,129112,0.076,0.041,1.023,0.2,-3.2,-0.7,902,881,0
R,,129171,0.075,0.040,1.029,0.9,-3.1,-0.8,903,884,0
R,,129232,0.071,0.043,1.023,0.3,-3.4,-0.5,902,882,0
R,,129291,0.075,0.042,1.023,0.0,-3.5,-0.7,904,884,0
R,,129351,0.074,0.040,1.024,0.4,-3.8,-0.6,903,882,0
R,,129412,0.073,0.039,1.022,0.1,-3.7,-0.6,904,881,0
R,,129471,0.072,0.038,1.022,0.2,-3.5,-0.8,903,879,0
R,,129532,0.072,0.042,1.025,0.5,-3.2,-0.8,902,883,0
R,,129591,0.073,0.041,1.026,1.1,-3.3,-0.8,901,881,0
R,,129652,0.072,0.043,1.025,0.7,-3.0,-0.7,903,882,0
R,,129711,0.073,0.046,1.024,0.1,-3.4,-0.6,906,886,0
R,,129772,0.074,0.042,1.025,0.8,-3.2,-0.6,904,880,0
R,,129832,0.075,0.042,1.032,0.9,-3.0,-0.7,904,880,0
R,,129891,0.071,0.044,1.022,0.9,-3.3,-0.7,903,880,0
R,,129952,0.072,0.044,1.026,0.3,-3.6,-0.7,905,879,0
R,,130011,0.074,0.042,1.023,-0.2,-4.6,-0.4,903,879,0
R,,130072,0.076,0.042,1.024,-0.1,-4.0,-0.7,905,878,0
R,,130131,0.077,0.040,1.023,0.2,-3.0,-0.8,903,877,0
R,,130192,0.072,0.045,1.022,0.7,-3.5,-0.9,903,874,0
R,,130251,0.072,0.044,1.015,0.4,-4.3,-0.7,908,878,0
R,,130312,0.077,0.040,1.029,0.2,-3.8,-0.9,905,876,0
R,,130372,0.077,0.040,1.022,0.2,-2.9,-1.0,903,867,0
R,,130431,0.073,0.040,1.026,-0.8,-4.2,-0.6,904,863,0
R,,130492,0.077,0.041,1.020,-0.4,-4.3,-0.5,903,856,0
R,,130551,0.081,0.040,1.019,-0.2,-3.7,-0.9,904,855,0
R,,130612,0.077,0.037,1.038,0.8,-3.2,-0.6,904,859,0
R,,130671,0.075,0.044,1.019,0.6,-2.8,-0.7,905,862,0
R,,130732,0.078,0.041,1.023,0.1,-3.9,-0.9,906,860,0
R,,130791,0.075,0.044,1.035,0.0,-3.8,-0.4,907,861,0
R,,130860,0.073,0.039,1.028,0.6,-2.8,-0.7,905,864,0
R,,130912,0.075,0.040,1.018,0.6,-3.6,-0.7,905,863,0
R,,130971,0.072,0.042,1.029,0.4,-3.0,-0.9,903,864,0
R,,131032,0.075,0.038,1.022,0.9,-3.6,-0.7,905,865,0
R,,131091,0.071,0.040,1.023,0.4,-3.9,-0.7,901,866,0
R,,131152,0.075,0.039,1.025,0.5,-3.5,-0.9,905,864,0
R,,131211,0.071,0.044,1.030,0.8,-3.1,-0.7,905,865,0
R,,131276,0.071,0.044,1.018,1.0,-3.3,-0.7,904,864,0
R,,131332,0.075,0.044,1.023,0.3,-3.7,-0.9,904,866,0
R,,131392,0.074,0.040,1.027,0.4,-3.5,-0.7,904,864,0
R,,131452,0.068,0.035,1.025,0.9,-3.6,-0.5,903,864,0
R,,131511,0.073,0.037,1.020,0.2,-3.8,-0.8,904,865,0
R,,131572,0.077,0.037,1.026,0.1,-3.9,-0.9,905,866,0
R,,131631,0.075,0.038,1.018,0.6,-3.0,-0.9,906,866,0
R,,131692,0.076,0.039,1.024,0.5,-3.5,-0.6,906,864,0
R,,131751,0.074,0.040,1.025,0.5,-3.2,-0.9,904,864,0
R,,131812,0.077,0.042,1.022,0.7,-3.0,-0.8,903,866,0
R,,131872,0.074,0.043,1.026,0.7,-2.8,-1.2,905,863,0
R,,131931,0.079,0.040,1.026,0.6,-2.6,-1.0,904,861,0
R,,131992,0.077,0.039,1.024,-0.2,-2.8,-1.5,903,864,0
R,,132051,0.069,0.048,1.019,0.9,-2.9,-1.1,903,861,0
R,,132112,0.097,0.076,1.024,2.1,-4.0,-1.9,905,861,0
R,,132171,0.081,0.040,1.025,0.6,-2.6,-1.4,906,862,0
R,,132232,0.072,0.034,1.025,1.5,-3.6,-1.1,905,860,0
R,,132291,0.071,0.042,1.023,1.8,-4.6,-0.5,908,864,0
R,,132352,0.070,0.048,1.038,0.4,-2.6,-1.7,903,862,0
R,,132412,0.068,0.050,1.021,0.9,-2.4,-1.9,902,860,0
R,,132471,0.062,0.048,1.025,-0.6,-3.7,-0.7,905,860,0
R,,132532,0.065,0.048,1.027,0.5,-3.0,-0.7,905,862,0
R,,132591,0.065,0.050,1.023,0.4,-4.3,-0.6,904,862,0
R,,132652,0.070,0.047,1.021,0.0,-4.5,-0.4,904,862,0
R,,132711,0.072,0.043,1.029,0.0,-4.2,-0.5,904,863,0
R,,132772,0.069,0.046,1.023,0.4,-3.7,-0.7,906,864,0
R,,132832,0.065,0.045,1.025,0.2,-4.3,-0.1,911,868,0
R,,132892,0.074,0.043,1.022,0.2,-4.5,0.0,905,863,0
R,,132952,0.074,0.045,1.024,0.6,-3.7,-0.6,905,863,0
R,,133041,0.071,0.046,1.021,0.4,-4.2,-0.2,905,864,0
R,,133102,0.075,0.047,1.023,0.5,-3.5,-0.7,905,864,0
R,,133162,0.074,0.046,1.026,0.4,-3.1,-0.7,903,864,0
R,,133221,0.075,0.043,1.023,0.4,-3.7,-0.8,906,864,0
R,,133282,0.074,0.045,1.026,0.3,-3.9,-0.6,905,863,0
R,,133341,0.074,0.045,1.026,0.4,-4.3,-0.4,903,861,0
R,,133402,0.077,0.043,1.022,0.9,-3.2,-0.9,904,863,0
R,,133461,0.076,0.042,1.027,0.6,-3.0,-1.1,904,861,0
R,,133551,0.073,0.042,1.024,0.2,-3.7,-0.7,903,863,0
R,,133612,0.074,0.043,1.025,0.3,-3.9,-0.5,904,862,0
R,,133671,0.074,0.044,1.023,0.5,-3.5,-0.6,904,862,0
R,,133732,0.074,0.044,1.026,0.4,-3.6,-0.7,906,863,0
R,,133791,0.078,0.044,1.026,0.4,-3.6,-0.4,906,863,0
R,,133852,0.077,0.046,1.019,0.7,-3.4,-1.0,905,863,0
R,,133912,0.077,0.043,1.027,0.3,-3.5,-0.7,904,863,0
R,,133972,0.077,0.043,1.026,0.6,-3.5,-0.9,905,864,0
R,,134032,0.075,0.042,1.024,0.4,-3.6,-0.6,903,862,0
R,,134091,0.076,0.043,1.024,0.3,-3.5,-0.7,906,863,0
R,,134160,0.075,0.042,1.022,0.3,-3.8,-0.5,904,863,0
R,,134211,0.079,0.044,1.023,0.0,-3.5,-0.6,905,861,0
R,,134272,0.078,0.045,1.027,0.3,-3.3,-0.8,905,861,0
R,,134332,0.077,0.043,1.021,0.7,-3.2,-0.7,904,864,0
R,,134392,0.075,0.041,1.026,0.2,-3.7,-0.7,903,860,0
R,,134452,0.077,0.043,1.025,0.2,-3.6,-0.7,906,864,0
R,,134511,0.077,0.041,1.027,0.3,-3.3,-0.7,906,862,0
R,,134572,0.075,0.047,1.025,0.2,-3.7,-0.7,903,861,0
R,,134631,0.076,0.042,1.028,0.2,-3.5,-0.7,902,862,0
R,,134692,0.076,0.042,1.024,0.0,-3.4,-0.8,904,862,0
R,,134751,0.074,0.043,1.024,0.3,-3.5,-0.6,906,862,0
R,,134812,0.077,0.043,1.022,0.6,-3.4,-0.8,905,864,0
R,,134872,0.076,0.042,1.027,0.4,-3.7,-0.7,910,866,0
R,,134932,0.077,0.043,1.025,0.4,-3.5,-0.7,903,864,0
R,,134992,0.076,0.043,1.023,0.4,-3.7,-0.9,902,864,0
R,,135051,0.077,0.043,1.023,0.5,-3.5,-0.7,904,863,0
R,,135112,0.075,0.043,1.026,0.4,-3.5,-0.7,905,862,0
R,,135171,0.077,0.044,1.026,0.2,-3.6,-0.7,904,862,0
R,,135232,0.080,0.040,1.021,0.5,-3.2,-0.4,904,863,0
R,,135291,0.076,0.042,1.024,0.0,-3.4,-0.7,905,864,0
R,,135352,0.077,0.042,1.026,0.2,-3.2,-0.6,905,864,0
R,,135412,0.074,0.044,1.023,0.3,-3.5,-0.9,906,866,0
R,,135472,0.074,0.043,1.027,0.4,-3.4,-0.7,903,863,0
R,,135532,0.079,0.042,1.024,0.4,-3.6,-0.9,903,861,0
R,,135591,0.076,0.041,1.026,0.6,-3.4,-0.7,903,864,0
R,,135652,0.075,0.044,1.024,0.5,-3.5,-0.8,906,864,0
R,,135711,0.079,0.040,1.023,0.4,-3.5,-0.9,904,861,0
R,,135772,0.077,0.045,1.024,0.5,-3.5,-0.6,905,862,0
R,,135832,0.076,0.043,1.025,0.4,-3.3,-0.9,905,863,0
R,,135892,0.076,0.044,1.023,0.7,-3.3,-0.9,904,865,0
R,,135952,0.075,0.044,1.022,0.3,-3.7,-0.8,906,867,0
R,,136012,0.076,0.042,1.026,0.4,-3.6,-0.6,906,863,0
R,,136072,0.077,0.044,1.025,0.4,-3.5,-0.7,904,864,0
R,,136131,0.076,0.043,1.025,0.4,-3.7,-0.9,903,864,0
R,,136191,0.076,0.043,1.025,0.5,-3.5,-0.6,904,863,0
R,,136251,0.078,0.042,1.024,0.4,-3.5,-0.8,905,861,0
R,,136312,0.078,0.044,1.024,0.3,-3.6,-0.7,906,861,0
R,,136372,0.075,0.043,1.026,0.2,-3.5,-0.7,904,865,0
R,,136432,0.076,0.042,1.025,0.2,-3.7,-0.7,904,863,0
R,,136492,0.076,0.042,1.026,0.4,-3.3,-0.7,907,865,0
R,,136551,0.079,0.044,1.024,0.2,-3.4,-0.9,906,862,0
R,,136612,0.078,0.042,1.023,0.5,-3.4,-0.6,905,866,0
R,,136671,0.077,0.043,1.026,0.2,-3.5,-0.8,904,864,0
R,,136732,0.076,0.043,1.022,0.4,-3.5,-0.7,905,862,0
R,,136791,0.077,0.043,1.023,0.4,-3.4,-0.7,905,864,0
R,,136852,0.074,0.041,1.023,0.4,-3.5,-0.9,907,863,0
R,,136920,0.077,0.043,1.025,0.4,-3.5,-0.7,907,864,0
R,,136972,0.075,0.043,1.022,0.4,-3.6,-0.9,905,862,0
R,,137032,0.079,0.043,1.027,0.3,-3.6,-0.7,908,863,0
R,,137091,0.077,0.045,1.022,0.4,-3.7,-0.7,906,864,0
R,,137152,0.077,0.044,1.023,0.2,-3.2,-0.8,905,863,0
R,,137211,0.075,0.045,1.026,0.4,-3.5,-0.5,905,864,0
R,,137272,0.076,0.044,1.021,0.4,-3.6,-0.8,904,863,0
R,,137335,0.078,0.042,1.025,0.4,-3.6,-0.8,909,866,0
R,,137392,0.075,0.041,1.026,0.4,-3.6,-0.7,905,865,0
R,,137452,0.077,0.041,1.024,0.4,-3.5,-0.7,911,868,0
R,,137512,0.076,0.043,1.024,0.4,-3.4,-0.7,906,864,0
R,,137572,0.074,0.041,1.024,0.4,-3.5,-0.8,905,864,0
R,,137631,0.078,0.042,1.026,0.4,-3.5,-0.6,907,863,0
R,,137692,0.077,0.041,1.027,0.4,-3.5,-0.9,904,865,0
R,,137751,0.076,0.042,1.024,0.6,-3.5,-0.7,905,866,0
R,,137812,0.079,0.041,1.023,0.4,-3.4,-0.9,906,865,0
R,,137872,0.078,0.043,1.023,0.5,-3.5,-0.7,905,863,0
R,,137932,0.076,0.043,1.023,0.4,-3.5,-0.7,904,865,0
R,,137992,0.080,0.044,1.027,0.3,-3.5,-0.9,908,865,0
R,,138052,0.078,0.044,1.025,0.5,-3.4,-0.6,906,864,0
R,,138112,0.077,0.043,1.024,0.5,-3.6,-0.9,905,864,0
R,,138171,0.077,0.043,1.025,0.4,-3.5,-0.7,906,866,0
R,,138232,0.073,0.043,1.026,0.4,-3.5,-0.7,904,863,0
R,,138291,0.077,0.043,1.024,0.4,-3.5,-0.7,905,865,0
R,,138352,0.075,0.044,1.024,0.4,-3.6,-0.6,906,863,0
R,,138412,0.074,0.043,1.024,0.5,-3.7,-0.9,905,863,0
R,,138472,0.076,0.042,1.026,0.4,-3.4,-0.7,905,863,0
R,,138532,0.078,0.041,1.022,0.6,-3.6,-0.8,906,866,0
R,,138592,0.078,0.043,1.025,0.4,-3.3,-0.7,904,864,0
R,,138652,0.077,0.042,1.024,0.2,-3.5,-0.7,906,862,0
R,,138711,0.076,0.043,1.024,0.4,-3.7,-0.5,904,862,0
R,,138771,0.077,0.041,1.026,0.3,-3.7,-0.7,906,863,0
R,,138832,0.075,0.044,1.026,0.3,-3.6,-0.7,904,863,0
R,,138892,0.076,0.041,1.023,0.4,-3.6,-0.6,905,863,0
R,,138952,0.078,0.042,1.026,0.4,-3.7,-0.7,905,861,0
R,,139012,0.076,0.046,1.024,0.2,-3.5,-0.7,904,862,0
R,,139072,0.077,0.042,1.027,0.4,-3.4,-0.6,905,865,0
R,,139131,0.077,0.043,1.023,0.4,-3.5,-0.7,904,863,0
R,,139192,0.078,0.041,1.023,0.3,-3.5,-0.6,905,864,0
R,,139251,0.074,0.044,1.024,0.4,-3.4,-0.8,905,862,0
R,,139312,0.075,0.044,1.025,0.4,-3.5,-0.7,905,860,0
R,,139372,0.078,0.040,1.025,0.4,-3.6,-0.8,905,863,0
R,,139432,0.075,0.042,1.022,0.5,-3.5,-0.7,904,864,0
R,,139492,0.078,0.043,1.023,0.4,-3.5,-0.7,912,867,0
R,,139552,0.078,0.041,1.023,0.4,-3.5,-0.8,906,865,0
R,,139612,0.077,0.043,1.027,0.4,-3.4,-0.6,906,865,0
R,,139671,0.077,0.044,1.024,0.3,-3.7,-0.9,907,865,0
R,,139732,0.078,0.041,1.024,0.4,-3.4,-0.6,905,863,0
R,,139791,0.078,0.045,1.025,0.2,-3.5,-0.7,904,865,0
R,,139852,0.078,0.044,1.024,0.2,-3.4,-0.6,906,863,0
R,,139942,0.076,0.042,1.025,0.4,-3.5,-0.8,908,864,0
R,,140032,0.076,0.045,1.024,0.3,-3.5,-0.7,910,867,0
R,,140092,0.075,0.044,1.023,0.4,-3.6,-0.9,903,864,0
R,,140152,0.076,0.044,1.024,0.5,-3.5,-0.7,906,863,0
R,,140220,0.075,0.043,1.024,0.5,-3.6,-0.7,906,866,0
R,,140272,0.078,0.042,1.026,0.2,-3.6,-0.7,905,863,0
R,,140332,0.076,0.042,1.025,0.4,-3.5,-0.6,905,865,0
R,,140392,0.076,0.041,1.026,0.4,-3.6,-0.8,906,863,0
R,,140452,0.077,0.041,1.027,0.6,-3.5,-0.7,906,863,0
R,,140512,0.077,0.042,1.025,0.4,-3.5,-0.7,904,864,0
R,,140572,0.075,0.043,1.025,0.4,-3.5,-0.6,908,868,0
R,,140632,0.077,0.043,1.025,0.3,-3.6,-0.6,903,864,0
R,,140692,0.076,0.042,1.026,0.4,-3.6,-0.8,907,866,0
R,,140751,0.075,0.043,1.025,0.5,-3.4,-0.7,906,865,0
R,,140812,0.077,0.042,1.025,0.4,-3.5,-0.9,904,864,0
R,,140872,0.077,0.045,1.026,0.4,-3.5,-0.7,905,865,0
R,,140932,0.075,0.042,1.026,0.4,-3.4,-0.8,904,865,0
R,,140992,0.077,0.043,1.023,0.4,-3.5,-0.7,905,865,0
R,,141052,0.079,0.042,1.025,0.4,-3.5,-0.7,903,866,0
R,,141112,0.078,0.043,1.022,0.4,-3.5,-0.9,907,867,0
R,,141171,0.078,0.042,1.025,0.5,-3.6,-0.5,905,865,0
R,,141232,0.078,0.041,1.026,0.4,-3.6,-0.9,905,866,0
R,,141291,0.074,0.043,1.023,0.4,-3.5,-0.6,904,864,0
R,,141352,0.080,0.044,1.026,0.3,-3.6,-0.8,905,864,0
R,,141412,0.078,0.044,1.028,0.4,-3.5,-0.7,906,863,0
R,,141472,0.075,0.043,1.024,0.2,-3.5,-0.7,903,864,0
R,,141532,0.078,0.043,1.025,0.2,-3.5,-0.7,906,865,0
R,,141622,0.077,0.043,1.025,0.4,-3.5,-0.7,905,865,0
R,,141682,0.079,0.042,1.023,0.3,-3.5,-0.7,905,864,0
R,,141772,0.076,0.045,1.024,0.5,-3.5,-0.7,906,866,0
R,,141832,0.076,0.043,1.024,0.4,-3.5,-0.7,905,866,0
R,,141892,0.078,0.044,1.025,0.4,-3.4,-0.7,906,867,0
R,,141952,0.077,0.045,1.023,0.4,-3.5,-0.8,906,869,0
R,,142012,0.076,0.044,1.023,0.5,-3.6,-0.7,905,869,0
R,,142072,0.080,0.044,1.025,0.4,-3.5,-0.8,908,871,0
R,,142132,0.077,0.044,1.023,0.2,-3.6,-0.7,904,867,0
R,,142192,0.076,0.042,1.024,0.4,-3.5,-0.7,903,870,0
R,,142251,0.076,0.044,1.024,0.3,-3.5,-0.9,906,870,0
R,,142312,0.077,0.043,1.026,0.4,-3.4,-0.4,905,870,0
R,,142372,0.076,0.044,1.022,0.3,-3.6,-0.8,905,869,0
R,,142432,0.077,0.041,1.026,0.4,-3.3,-0.8,906,869,0
R,,142492,0.075,0.044,1.026,0.4,-3.5,-0.8,905,867,0
R,,142552,0.076,0.044,1.027,0.4,-3.5,-0.7,903,868,0
R,,142612,0.075,0.043,1.024,0.4,-3.5,-0.7,911,871,0
R,,142672,0.078,0.043,1.027,0.2,-3.6,-1.0,906,869,0
R,,142732,0.076,0.043,1.021,0.5,-3.5,-0.7,905,867,0
R,,142791,0.079,0.043,1.022,0.3,-3.5,-0.7,906,867,0
R,,142852,0.077,0.043,1.026,0.4,-3.5,-0.7,906,866,0
R,,142912,0.074,0.043,1.026,0.2,-3.6,-0.7,905,868,0
