side,stage,device_ms,ax,ay,az,gx,gy,gz,toe,heel,phase
L,,307939,-0.142,0.982,0.000,23.5,18.2,9.9,871,936,0
L,,307949,-0.138,1.012,-0.016,36.2,24.2,11.6,875,940,0
L,,307959,-0.116,0.977,-0.056,27.3,11.0,8.9,877,939,0
L,,307969,-0.177,0.979,0.013,28.3,15.1,11.9,873,939,0
L,,307979,-0.138,0.980,-0.062,28.6,11.0,15.4,878,942,0
L,,307989,-0.183,0.990,0.001,27.3,7.7,14.4,874,937,0
L,,307999,-0.184,0.941,-0.034,33.6,13.0,23.8,874,938,0
L,,308009,-0.186,0.957,-0.016,26.1,10.1,27.9,875,937,0
L,,308019,-0.183,1.025,0.038,20.3,12.3,28.7,873,937,0
L,,308029,-0.167,1.007,-0.001,34.3,16.3,31.8,871,937,0
L,,308039,-0.145,1.012,-0.026,26.8,11.2,31.4,870,936,0
L,,308049,-0.173,0.959,-0.108,25.0,9.5,35.5,871,937,0
L,,308059,-0.173,0.966,-0.053,9.3,10.2,32.6,870,936,0
L,,308069,-0.090,0.986,-0.053,-5.4,10.2,25.0,871,937,0
L,,308079,-0.116,1.014,-0.035,23.1,10.9,20.2,866,936,0
L,,308089,-0.070,1.007,-0.090,4.0,6.7,21.7,868,935,0
L,,308099,-0.118,1.019,0.017,27.4,1.6,22.4,852,920,0
L,,308109,-0.090,1.056,-0.046,28.9,2.5,27.2,842,911,0
L,,308119,-0.026,0.974,-0.034,36.9,-4.5,27.4,852,924,0
L,,308129,-0.040,1.038,-0.053,23.8,-3.8,23.8,857,929,0
L,,308139,-0.065,1.055,-0.040,37.3,4.0,27.6,788,858,0
L,,308149,-0.048,1.068,-0.012,31.2,3.6,25.3,848,927,0
L,,308159,-0.018,1.016,-0.110,61.7,-1.4,38.2,849,930,0
L,,308169,-0.085,0.961,0.043,37.1,-3.2,43.4,851,930,0
L,,308179,-0.131,0.944,-0.010,13.9,3.3,67.9,850,934,0
L,,308189,-0.060,1.138,-0.116,43.2,-2.3,49.9,851,938,0
L,,308199,-0.037,1.030,-0.118,10.2,0.2,47.3,844,936,0
L,,308209,-0.097,1.103,-0.124,44.3,5.6,37.3,837,936,0
L,,308219,-0.088,1.094,-0.074,50.8,8.7,39.3,827,932,0
L,,308229,-0.090,1.047,0.012,38.7,22.4,45.5,816,931,0
L,,308239,-0.061,1.070,-0.018,58.5,16.1,45.9,800,930,0
L,,308249,-0.087,1.125,-0.084,60.8,18.5,49.1,773,931,0
L,,308259,-0.073,1.159,-0.070,64.8,14.2,52.7,761,930,0
L,,308269,-0.015,1.190,-0.014,77.7,0.8,60.0,762,927,0
L,,308279,-0.045,1.329,0.009,80.8,2.7,62.9,756,932,0
L,,308289,-0.080,1.374,-0.002,84.9,9.0,67.7,740,932,0
L,,308299,-0.016,1.383,-0.022,96.7,13.5,67.3,747,934,0
L,,308309,0.031,1.479,0.000,104.3,15.2,66.2,751,933,0
L,,308319,0.002,1.532,0.034,112.9,20.5,65.2,739,931,0
L,,308329,-0.008,1.548,0.020,142.1,24.9,69.7,724,927,0
L,,308339,0.091,1.558,0.110,143.7,22.0,71.1,722,930,0
L,,308349,-0.055,1.680,0.071,139.6,33.5,65.8,704,927,0
L,,308359,-0.146,1.561,0.086,163.8,31.4,63.4,649,931,0
L,,308369,-0.176,1.710,0.177,182.0,39.6,57.7,575,936,0
L,,308379,-0.397,1.815,0.248,170.3,51.5,49.9,480,929,0
L,,308389,-0.498,1.856,0.287,197.1,69.0,53.9,455,932,0
L,,308399,-0.507,1.814,0.355,216.0,73.7,40.9,405,940,0
L,,308409,-0.307,2.003,0.247,218.1,93.7,66.1,418,936,0
L,,308419,-0.411,1.931,0.310,223.4,136.6,66.2,413,938,0
L,,308429,-0.235,1.803,0.152,230.5,162.6,66.0,456,938,0
L,,308439,-0.116,1.505,0.452,210.3,151.2,38.2,432,939,0
L,,308449,-0.057,1.436,0.614,224.9,148.1,3.4,461,938,0
L,,308459,0.122,1.321,-0.233,349.2,133.4,-9.1,559,938,0
L,,308469,-0.040,0.598,0.174,236.3,142.9,-35.1,620,936,0
L,,308479,-0.114,0.633,-0.109,157.0,125.2,-54.6,560,724,0
L,,308489,0.065,-0.280,-0.602,160.1,131.6,-50.7,570,734,0
L,,308499,0.065,0.068,-0.156,29.5,111.0,-33.8,572,741,0
L,,308509,-0.109,0.000,0.979,2.3,71.1,-66.3,578,746,0
L,,308519,0.098,0.484,1.018,-33.8,35.4,-81.6,590,753,0
L,,308529,0.278,0.611,0.684,9.9,32.4,-71.5,593,753,0
L,,308539,0.395,0.154,0.368,-7.9,16.1,-78.1,599,757,0
L,,308549,0.247,-0.020,0.223,-45.5,12.1,-92.4,601,752,0
L,,308559,0.218,0.009,0.212,-71.8,-8.4,-104.4,601,755,0
L,,308569,0.252,0.154,0.146,-92.3,-33.2,-103.1,604,759,0
L,,308579,0.175,0.285,0.185,-135.3,-46.1,-115.0,610,755,0
L,,308589,0.157,0.287,0.301,-154.0,-50.7,-129.8,612,758,0
L,,308599,0.179,0.327,0.298,-182.4,-51.6,-133.7,610,761,0
L,,308609,0.102,0.474,0.274,-200.1,-40.4,-132.0,612,759,0
L,,308619,0.040,0.654,0.238,-205.4,-23.2,-124.6,611,756,0
L,,308629,-0.002,0.759,0.291,-207.2,0.9,-115.5,606,758,0
L,,308639,0.079,0.819,0.249,-221.8,29.6,-116.0,609,762,0
L,,308649,0.143,0.956,0.171,-249.1,40.5,-126.8,609,761,0
L,,308659,0.236,0.985,0.121,-256.6,44.5,-132.0,608,762,0
L,,308669,0.521,1.069,0.016,-271.7,22.6,-136.8,608,762,0
L,,308679,0.119,1.069,0.223,-250.6,41.8,-124.6,606,759,0
L,,308689,0.300,1.242,0.074,-285.1,42.4,-137.6,597,756,0
L,,308699,0.376,1.307,0.064,-279.4,29.5,-144.9,591,754,0
L,,308709,0.256,1.397,-0.032,-277.0,20.0,-138.2,583,751,0
L,,308719,0.231,1.521,0.106,-278.2,17.9,-138.1,583,750,0
L,,308729,0.136,1.639,-0.076,-293.7,27.5,-130.1,582,755,0
L,,308739,0.116,1.840,-0.067,-274.8,31.7,-137.6,577,750,0
L,,308749,0.132,2.034,-0.259,-283.2,42.3,-140.1,575,751,0
L,,308759,0.132,2.002,-0.124,-275.1,53.5,-145.9,575,748,0
L,,308769,0.250,2.135,-0.180,-247.5,59.8,-150.7,571,749,0
L,,308779,0.429,2.042,-0.281,-242.8,52.0,-155.1,573,753,0
L,,308789,0.471,1.814,-0.269,-231.0,53.2,-131.8,574,754,0
L,,308799,0.444,1.866,-0.416,-222.2,60.5,-112.4,581,757,0
L,,308809,0.176,1.900,-0.808,-197.8,81.7,-105.1,572,755,0
L,,308819,0.073,1.773,-1.255,-171.7,102.2,-110.3,575,753,0
L,,308829,0.388,1.705,-1.356,-116.5,141.6,-73.2,579,754,0
L,,308839,1.000,1.662,-1.151,-62.1,192.2,-18.1,591,763,0
L,,308849,1.078,1.574,-1.128,11.6,204.6,8.2,590,766,0
L,,308859,0.919,1.350,-1.201,78.8,160.8,20.5,595,761,0
L,,308871,0.571,1.107,-0.650,-87.5,154.9,63.3,607,762,0
L,,308881,0.894,1.431,-1.324,16.5,103.9,43.8,647,769,0
L,,308891,1.009,1.255,-0.390,33.1,56.9,-5.4,674,780,0
L,,308901,0.402,0.852,0.454,72.2,36.7,28.7,812,937,0
L,,308911,0.127,0.692,1.242,45.7,46.9,72.9,831,947,0
L,,308921,0.368,1.993,0.567,109.4,54.4,59.3,833,939,0
L,,308931,0.662,1.737,-0.089,139.5,9.1,38.5,843,939,0
L,,308941,0.106,1.497,-0.109,156.1,-32.6,29.3,850,942,0
L,,308951,-0.334,1.457,-0.492,161.1,-102.9,11.3,847,939,0
L,,308961,0.325,0.794,0.382,136.0,-129.5,39.4,852,940,0
L,,308971,0.262,1.007,0.507,76.7,-97.5,26.4,856,938,0
L,,308981,-0.335,1.070,0.023,107.3,-85.8,-3.9,852,935,0
L,,308991,-0.384,0.974,-0.087,79.5,-61.8,-9.8,857,937,0
L,,309001,-0.366,0.824,-0.063,85.6,-47.4,15.6,862,941,0
L,,309011,-0.404,0.959,0.113,51.1,-57.3,11.4,865,938,0
L,,309021,-0.444,1.020,0.107,63.7,-35.7,13.4,866,938,0
L,,309031,-0.356,0.908,-0.062,77.3,7.9,36.4,856,916,0
L,,309041,-0.544,1.214,-0.883,81.2,9.0,39.2,871,941,0
L,,309051,-0.263,0.822,0.391,54.1,12.9,50.4,874,941,0
L,,309061,0.125,1.110,-0.078,56.9,1.0,39.5,874,942,0
L,,309071,-0.065,0.996,0.030,54.3,-14.0,32.5,872,941,0
L,,309081,-0.206,0.946,-0.012,46.9,-6.2,33.5,876,940,0
L,,309091,-0.243,1.094,0.046,50.0,7.8,33.8,874,939,0
L,,309101,-0.034,1.006,0.010,50.1,14.9,29.7,874,940,0
L,,309111,-0.054,0.915,0.023,38.2,10.7,28.3,873,939,0
L,,309121,-0.157,1.046,-0.064,31.6,9.1,17.5,872,933,0
L,,309131,-0.129,1.040,0.003,23.0,5.0,12.4,876,939,0
L,,309141,-0.145,1.092,-0.043,19.2,0.8,3.7,877,941,0
L,,309151,-0.185,1.026,-0.009,20.9,0.3,7.0,872,944,0
L,,309161,-0.171,0.997,-0.024,16.5,4.9,11.2,878,939,0
L,,309171,-0.196,0.948,0.033,13.6,12.5,9.8,878,941,0
L,,309181,-0.215,0.992,-0.087,1.5,9.9,9.6,876,939,0
L,,309191,-0.179,1.001,-0.047,26.2,8.3,9.9,876,940,0
L,,309244,-0.234,0.979,0.019,26.1,19.1,22.9,870,934,0
L,,309303,-0.107,0.973,-0.065,25.1,13.1,24.9,863,928,0
L,,309364,-0.088,1.026,-0.082,22.2,20.5,23.1,868,936,0
L,,309424,-0.078,1.049,-0.084,37.8,8.4,37.0,858,935,0
L,,309484,-0.122,1.071,-0.160,51.5,18.2,42.5,828,934,0
L,,309544,-0.039,1.279,-0.018,77.0,25.7,55.5,745,928,0
L,,309604,0.044,1.386,0.037,113.8,33.6,65.0,714,913,0
L,,309664,-0.307,1.659,0.133,179.7,67.4,51.3,434,916,0
L,,309724,0.084,1.260,0.333,195.8,112.4,45.9,440,938,0
L,,309784,-0.078,-0.047,0.559,-4.0,78.8,-38.7,565,752,0
L,,309844,0.220,0.233,0.132,-65.7,2.1,-98.7,597,763,0
L,,309904,0.173,0.581,0.223,-145.1,12.8,-91.7,594,762,0
L,,309964,0.250,1.090,0.183,-236.6,19.1,-119.0,598,765,0
L,,310024,0.205,1.427,-0.010,-286.1,8.3,-116.2,583,759,0
L,,310084,0.024,1.841,-0.170,-219.8,44.1,-124.2,560,757,0
L,,310144,0.973,1.572,-1.111,-84.4,193.7,-50.2,562,763,0
L,,310204,0.204,1.275,-0.318,69.0,109.6,-2.8,613,763,0
L,,310264,-0.122,1.673,-0.156,104.3,-134.5,-10.0,844,938,0
L,,310324,-0.260,0.791,0.021,76.3,-92.1,0.9,864,940,0
L,,310384,-0.165,1.085,-0.119,52.6,5.1,58.3,871,940,0
L,,310444,-0.149,1.129,-0.114,32.9,7.3,3.3,874,940,0
L,,310512,-0.079,1.036,-0.092,32.5,10.6,8.7,874,937,0
L,,310564,-0.182,1.013,-0.012,32.3,7.0,22.8,870,936,0
L,,310625,-0.083,1.050,-0.006,27.8,18.6,22.9,861,932,0
L,,310684,-0.069,0.929,-0.127,-9.8,22.1,31.8,796,866,0
L,,310744,-0.117,1.060,-0.130,48.2,24.2,29.8,832,931,0
L,,310804,0.065,1.157,-0.021,67.6,15.6,39.4,762,926,0
L,,310864,0.280,1.281,0.110,91.0,35.1,51.5,737,927,0
L,,310924,-0.147,1.488,0.040,144.2,28.6,75.4,553,935,0
L,,310984,-0.045,2.108,0.461,198.8,63.3,113.4,451,935,0
L,,311044,0.046,1.530,-0.046,202.3,1.3,29.5,504,695,0
L,,311104,-0.406,0.863,0.662,-7.9,13.2,-12.7,568,737,0
L,,311165,0.107,0.277,0.196,-169.5,23.1,-68.6,572,737,0
L,,311224,0.096,0.706,0.088,-255.7,74.6,-113.6,579,745,0
L,,311284,0.328,1.287,0.000,-287.8,53.1,-156.1,581,749,0
L,,311344,0.360,1.998,-0.320,-281.6,-53.8,-149.8,565,745,0
L,,311434,0.847,1.735,-1.919,-254.4,158.8,30.7,571,756,0
L,,311495,-0.055,0.908,1.114,80.4,-20.8,-34.5,809,940,0
L,,311554,-0.200,1.164,-0.338,145.7,-129.9,-64.4,855,939,0
L,,311614,-0.725,0.882,0.057,84.4,25.4,12.1,872,941,0
L,,311673,-0.113,0.940,-0.011,46.0,23.2,34.5,877,939,0
L,,311734,-0.120,1.039,0.028,30.7,2.0,-1.5,879,938,0
L,,311794,-0.103,0.960,-0.010,14.8,21.8,17.5,878,940,0
L,,311854,-0.091,0.935,-0.030,40.5,-6.7,38.8,877,939,0
L,,311944,-0.127,1.081,0.009,20.0,3.5,12.8,868,936,0
L,,312004,-0.018,1.093,-0.019,56.6,7.4,61.9,844,932,0
L,,312064,0.094,1.163,0.081,86.8,6.0,58.7,756,932,0
L,,312125,0.035,1.554,0.098,125.7,14.0,75.0,713,928,0
L,,312184,-0.163,1.815,0.389,200.9,34.0,84.7,407,939,0
L,,312245,0.267,1.043,0.235,201.3,29.0,75.3,435,937,0
L,,312304,-0.514,0.030,0.538,-77.2,-40.6,16.9,572,746,0
L,,312364,0.102,0.152,0.039,-151.6,58.5,-17.7,595,748,0
L,,312424,0.220,0.411,-0.129,-235.6,43.6,-33.0,603,749,0
L,,312484,0.317,1.159,-0.364,-244.3,14.2,-131.6,599,756,0
L,,312544,0.142,1.769,-0.085,-283.4,-120.5,-169.8,588,752,0
L,,312604,0.310,1.623,-0.938,-189.2,-76.6,-132.5,584,753,0
L,,312665,0.706,1.649,-1.327,43.1,123.2,12.0,577,768,0
L,,312724,0.022,0.871,0.926,67.6,-80.1,-54.4,819,938,0
L,,312785,0.445,0.952,0.455,77.4,-94.5,0.7,861,941,0
L,,312844,-0.669,1.073,-0.702,128.3,29.1,12.7,872,940,0
L,,312904,-0.031,0.993,0.132,65.3,30.6,33.5,875,940,0
L,,312964,-0.172,0.966,-0.004,44.1,-2.3,2.1,879,941,0
L,,313024,-0.022,1.048,0.001,44.5,8.9,12.7,875,939,0
L,,313084,0.024,0.968,0.230,21.4,26.7,49.9,872,937,0
L,,313144,-0.057,1.008,-0.037,30.0,8.5,11.9,862,935,0
L,,313205,-0.051,1.039,0.092,31.7,21.8,35.9,833,934,0
L,,313294,0.030,1.250,-0.032,79.7,8.3,61.9,759,922,0
L,,313363,-0.009,1.497,0.118,134.4,1.2,90.4,655,920,0
L,,313415,-0.044,1.698,0.494,174.9,21.4,92.6,424,936,0
L,,313474,0.012,1.242,0.269,191.8,17.4,83.0,434,937,0
L,,313535,-0.172,0.368,0.335,35.0,-21.2,27.5,570,745,0
L,,313594,-0.121,0.060,-0.038,-99.7,51.1,-26.1,594,754,0
L,,313654,0.047,0.467,-0.059,-190.3,41.8,-84.7,595,751,0
L,,313714,0.012,0.650,0.014,-208.2,32.9,-122.2,599,749,0
L,,313778,0.168,1.514,-0.185,-252.4,-116.8,-186.6,598,755,0
L,,313834,-0.094,1.892,-0.495,-220.5,-25.6,-163.7,580,744,0
L,,313894,1.161,1.765,-1.406,-84.4,242.4,-53.4,589,757,0
L,,313955,0.719,0.709,0.000,100.8,60.0,9.4,802,938,0
L,,314014,-0.064,0.961,-0.049,129.4,-84.7,-10.8,864,943,0
L,,314075,-0.815,0.900,-0.479,51.4,3.9,46.9,870,937,0
L,,314134,-0.074,0.928,0.048,44.7,20.3,39.7,876,938,0
L,,314194,-0.157,0.972,-0.042,25.1,14.7,22.8,877,939,0
L,,314285,-0.161,0.932,-0.052,31.2,0.3,25.9,872,939,0
L,,314344,-0.052,1.050,-0.003,10.9,18.9,18.7,867,936,0
L,,314404,-0.092,1.061,-0.015,26.9,4.8,30.7,854,931,0
L,,314464,-0.087,1.063,-0.066,42.4,4.6,46.4,831,928,0
L,,314524,0.077,1.063,-0.031,54.3,10.7,42.0,738,910,0
L,,314584,-0.032,1.250,-0.034,79.3,13.9,55.6,733,917,0
L,,314674,-0.219,1.480,0.170,167.6,44.5,64.7,421,930,0
L,,314734,0.031,1.511,0.207,222.8,136.3,69.1,436,934,0
L,,314794,0.203,0.244,-0.948,147.0,103.8,-67.9,555,741,0
L,,314884,0.194,0.373,0.238,-117.8,-2.8,-104.6,601,764,0
L,,314944,0.180,0.894,0.216,-213.8,73.9,-144.3,599,761,0
L,,315004,0.590,1.299,-0.015,-257.9,70.7,-160.0,607,761,0
L,,315064,0.239,1.854,-0.270,-241.0,1.2,-154.2,590,763,0
L,,315125,0.133,1.651,-0.637,-190.8,46.4,-126.3,589,770,0
L,,315184,0.981,1.475,-1.165,38.6,162.5,-0.2,609,783,0
L,,315245,0.291,1.282,1.094,83.8,27.0,69.4,839,938,0
L,,315334,-0.576,1.057,-0.552,126.2,-4.2,28.1,871,938,0
L,,315394,-0.233,0.988,0.047,40.8,38.1,48.7,874,939,0
L,,315455,-0.163,0.982,-0.005,18.2,16.8,48.1,878,940,0
L,,315544,-0.146,1.076,-0.072,36.0,3.2,24.4,872,936,0
L,,315604,-0.133,1.030,-0.031,13.6,11.2,26.4,866,935,0
L,,315695,-0.072,0.987,-0.087,22.1,12.3,31.6,839,927,0
L,,315785,0.027,1.100,-0.149,42.4,22.8,38.1,763,926,0
L,,315844,0.000,1.197,-0.098,64.8,14.2,44.7,736,919,0
L,,315905,0.064,1.392,0.226,74.5,54.1,59.5,716,926,0
L,,315964,-0.154,1.528,0.098,149.9,44.0,73.2,451,926,0
L,,316024,0.024,1.682,0.215,206.0,110.6,82.1,465,934,0
L,,316084,0.286,-0.484,-0.621,109.7,125.5,15.6,558,732,0
L,,316144,0.394,0.058,0.160,-14.5,66.3,-47.4,586,752,0
L,,316205,0.073,0.488,0.117,-167.1,-19.8,-134.9,604,759,0
L,,316264,0.214,0.955,0.127,-241.0,58.4,-150.3,606,761,0
L,,316354,0.378,1.711,-0.013,-249.1,24.7,-167.7,583,758,0
L,,316415,0.562,1.808,-0.710,-201.3,16.2,-123.0,592,759,0
L,,316474,1.116,1.215,-1.135,-13.1,153.9,27.6,596,775,0
L,,316535,-0.534,0.680,1.283,-51.5,-14.7,22.6,823,939,0
L,,316594,0.179,1.101,0.457,80.8,-67.9,24.2,855,936,0
L,,316684,-0.138,1.042,0.127,53.4,-38.4,36.3,876,940,0
L,,316745,-0.168,1.051,0.108,38.7,7.4,27.3,878,940,0
L,,316804,-0.182,1.047,0.009,16.4,5.6,14.2,879,938,0
L,,316873,-0.186,0.962,-0.056,30.5,17.1,40.2,874,935,0
L,,316924,-0.094,0.996,0.001,14.2,2.9,23.3,874,937,0
L,,316985,-0.080,0.978,-0.048,13.5,5.1,34.3,863,932,0
L,,317044,-0.057,0.998,-0.115,42.2,7.0,32.9,852,927,0
L,,317104,-0.063,1.005,-0.074,43.4,19.1,30.7,810,916,0
L,,317165,-0.061,1.223,0.000,65.7,17.3,38.9,740,911,0
L,,317224,-0.123,1.417,-0.043,105.9,28.5,67.2,709,920,0
L,,317285,-0.252,1.454,0.122,178.0,47.3,59.7,464,921,0
L,,317344,-0.076,1.468,0.250,192.2,142.5,62.8,462,936,0
L,,317405,0.242,-0.068,-0.434,154.9,169.1,-34.8,574,743,0
L,,317464,0.372,0.152,0.430,-22.5,57.8,-100.8,609,765,0
L,,317525,0.327,0.688,0.273,-207.0,-41.4,-146.8,612,765,0
L,,317584,0.378,1.028,0.211,-239.4,40.8,-151.6,611,764,0
L,,317674,0.361,1.945,-0.052,-254.1,35.8,-145.8,586,749,0
L,,317764,0.405,1.329,-0.984,-44.7,181.7,-49.6,600,769,0
L,,317825,0.841,1.009,-0.679,76.8,105.7,49.3,616,780,0
L,,317884,0.307,0.923,0.189,142.6,-126.7,49.9,841,936,0
L,,317945,-0.162,0.945,-0.046,74.9,-53.1,-2.7,867,937,0
L,,318004,-0.327,1.041,-0.280,74.3,-8.4,38.5,875,943,0
L,,318065,-0.137,0.989,0.033,37.4,36.1,21.3,877,940,0
L,,318125,-0.203,0.901,-0.040,37.2,11.5,30.7,877,938,0
L,,318184,-0.102,0.857,-0.040,42.5,2.1,45.4,874,935,0
L,,318275,-0.053,0.963,-0.133,-109.7,43.2,30.9,867,937,0
L,,318334,-0.110,1.028,-0.013,31.9,3.9,33.7,850,931,0
L,,318394,-0.081,1.091,-0.136,60.4,10.2,41.5,813,928,0
L,,318455,0.021,1.199,-0.011,63.0,16.8,53.3,750,919,0
L,,318514,-0.093,1.465,0.059,96.3,23.5,71.4,710,921,0
L,,318575,-0.178,1.595,0.196,190.8,23.1,78.2,434,932,0
L,,318634,0.000,1.520,0.271,240.1,119.2,80.6,465,936,0
L,,318695,0.127,-0.345,-0.623,107.9,119.9,-61.0,573,742,0
L,,318754,0.001,0.120,0.186,-98.4,35.3,-92.3,601,757,0
L,,318815,0.223,0.653,0.213,-171.5,43.4,-120.8,602,754,0
L,,318875,0.148,1.120,0.061,-255.4,39.9,-143.6,603,757,0
L,,318934,0.118,1.534,-0.037,-268.1,-25.9,-164.8,598,760,0
L,,318995,0.261,1.897,-0.506,-218.3,-27.3,-140.3,576,753,0
L,,319054,1.056,1.456,-1.279,-26.6,151.0,-23.1,593,770,0
L,,319115,0.219,0.770,-0.013,106.8,10.6,-20.1,814,937,0
L,,319174,-0.099,1.101,0.122,136.3,-63.9,39.9,856,937,0
L,,319235,-0.466,0.895,0.133,71.6,-12.4,15.8,871,938,0
L,,319294,-0.185,0.995,0.072,59.1,2.1,31.2,877,939,0
L,,319355,-0.133,1.121,0.026,22.1,10.5,9.5,880,939,0
L,,319415,-0.213,0.981,0.043,37.4,16.2,21.2,880,939,0
L,,319474,-0.123,1.008,-0.031,27.5,-1.1,33.0,879,938,0
L,,319534,-0.106,1.052,-0.036,10.1,16.3,25.2,874,937,0
L,,319594,-0.030,1.067,-0.032,37.5,2.5,31.9,868,935,0
L,,319684,-0.031,1.095,-0.033,56.3,5.6,52.9,813,917,0
L,,319752,0.035,1.294,0.034,91.7,5.8,73.3,753,926,0
L,,319856,-0.206,1.706,0.438,173.1,45.5,95.0,362,935,0
L,,319866,-0.208,1.728,0.443,208.0,41.1,70.4,387,936,0
L,,319924,0.070,1.071,0.130,156.8,57.5,98.9,516,935,0
L,,319985,-0.556,0.208,1.206,-93.3,-108.0,-33.6,590,754,0
L,,320044,-0.143,0.391,0.247,-143.8,17.5,-64.6,607,761,0
L,,320105,0.099,0.915,0.142,-240.3,45.9,-128.5,610,758,0
L,,320197,0.345,1.529,-0.160,-269.9,-57.6,-178.2,604,759,0
L,,320254,0.027,2.203,-0.590,-240.3,-43.6,-141.1,568,754,0
L,,320315,1.080,1.663,-1.406,-75.3,59.2,-67.9,582,760,0
L,,320405,1.090,2.019,0.380,236.8,12.3,80.7,838,938,0
L,,320464,0.138,1.064,-0.209,155.4,-40.0,-21.4,867,935,0
L,,320525,-0.277,1.128,-0.148,38.9,-8.9,43.5,878,938,0
L,,320584,-0.030,0.938,0.029,22.1,9.9,28.2,880,939,0
L,,320645,-0.170,1.017,0.023,32.9,12.1,4.4,874,934,0
L,,320705,-0.096,1.034,0.040,24.0,5.7,21.4,871,934,0
L,,320764,-0.081,1.027,-0.012,36.4,15.4,35.6,860,934,0
L,,320825,0.000,0.936,-0.063,56.8,0.5,58.2,818,920,0
L,,320884,0.114,1.100,-0.087,56.1,9.1,42.6,758,928,0
L,,320974,0.049,1.475,-0.052,117.4,4.8,71.6,704,925,0
L,,321035,-0.172,1.806,0.373,182.0,40.2,81.1,427,927,0
L,,321094,0.076,1.275,0.644,208.6,82.5,95.9,460,936,0
L,,321155,0.302,0.153,-0.148,1.8,1.1,39.5,582,745,0
L,,321214,-0.284,0.124,0.047,-119.9,25.2,-47.6,602,753,0
L,,321275,0.041,0.853,0.055,-233.5,66.7,-58.5,610,758,0
L,,321365,0.029,1.453,0.023,-264.3,-26.7,-136.9,616,765,0
L,,321455,0.275,1.828,-0.808,-211.8,-2.8,-120.1,594,764,0
L,,321514,1.169,1.430,-1.076,-112.9,154.7,1.8,595,772,0
L,,321575,-0.213,1.824,0.832,103.2,20.7,-60.4,678,783,0
L,,321665,-0.133,1.240,-0.019,135.5,13.9,-14.7,867,939,0
L,,321754,-0.105,1.143,-0.013,57.9,15.7,53.6,878,939,0
L,,321815,-0.101,1.077,0.057,19.6,17.0,12.3,878,939,0
L,,321875,-0.144,1.037,-0.013,18.1,17.2,19.9,873,933,0
L,,321935,-0.117,0.944,0.050,62.5,6.1,90.1,863,929,0
L,,322025,-0.050,0.996,-0.075,29.4,8.6,31.5,847,933,0
L,,322115,0.071,1.098,-0.215,69.4,-3.8,41.7,770,929,0
L,,322174,0.027,1.229,0.035,69.5,15.7,46.4,750,927,0
L,,322235,-0.063,1.377,0.052,104.6,9.1,75.7,688,908,0
L,,322294,-0.154,1.645,0.172,155.4,45.9,76.0,441,926,0
L,,322355,0.029,1.529,0.239,219.3,101.1,90.3,421,872,0
L,,322415,0.586,-0.816,-0.671,172.9,117.1,2.0,576,733,0
L,,322475,-0.033,0.230,0.166,-82.3,0.4,-84.4,603,753,0
L,,322535,0.152,0.675,0.293,-175.0,34.3,-131.0,611,760,0
L,,322594,0.064,0.932,0.093,-238.2,18.5,-145.2,613,765,0
L,,322655,0.283,1.369,0.015,-253.8,-22.5,-185.4,603,767,0
L,,322713,0.303,1.882,-0.325,-257.0,-17.8,-159.4,579,756,0
L,,322775,0.680,1.626,-1.327,-155.8,103.6,-87.1,593,766,0
L,,322834,0.020,1.896,-0.618,151.2,73.1,-33.4,653,771,0
L,,322895,-0.297,1.746,-0.284,185.2,-61.4,33.6,853,936,0
L,,322955,-0.375,0.882,-0.035,59.2,-36.6,15.1,877,941,0
L,,323044,-0.064,1.071,0.094,37.1,21.2,10.3,879,937,0
L,,323105,-0.295,0.988,0.017,13.2,18.9,6.6,880,938,0
L,,323165,-0.179,0.978,-0.075,24.0,14.9,20.4,873,934,0
L,,323225,-0.122,1.003,0.017,11.3,7.9,37.8,868,931,0
L,,323293,-0.085,0.951,-0.043,83.5,10.8,47.4,854,928,0
L,,323344,-0.139,1.144,-0.023,41.4,16.6,31.7,834,925,0
L,,323405,-0.132,1.086,-0.043,51.7,25.2,38.5,764,927,0
L,,323464,0.003,1.150,-0.065,75.3,4.0,51.6,705,884,0
L,,323525,-0.053,1.388,0.052,88.6,37.0,46.8,643,916,0
L,,323584,-0.171,1.678,0.284,157.7,45.1,82.3,432,932,0
L,,323645,0.010,1.380,0.188,193.0,59.7,78.0,473,932,0
L,,323705,-0.092,0.514,-0.618,63.2,100.5,-6.5,574,743,0
L,,323765,0.130,0.148,0.186,-33.7,81.7,-82.3,582,752,0
L,,323825,0.146,0.787,0.313,-187.1,62.6,-147.9,584,750,0
L,,323884,0.513,0.989,0.094,-233.8,78.6,-172.8,579,737,0
L,,323945,0.552,1.555,0.091,-239.8,54.4,-179.6,596,757,0
L,,324004,0.654,2.002,-0.214,-224.9,60.4,-172.4,555,744,0
L,,324065,0.939,1.741,-1.192,-64.4,149.7,-41.2,584,758,0
L,,324125,0.593,0.791,-0.551,40.5,118.8,60.7,604,761,0
L,,324185,-0.446,1.663,-0.051,123.9,-62.6,15.1,854,939,0
L,,324245,-0.330,1.051,0.129,72.7,-18.6,26.6,873,942,0
L,,324305,-0.275,1.164,-0.003,35.2,-9.1,42.4,877,938,0
L,,324365,-0.100,1.045,0.000,3.7,7.8,29.0,878,939,0
L,,324424,-0.150,1.022,0.017,25.9,28.1,6.7,880,939,0
L,,324485,-0.144,1.017,-0.076,26.7,12.9,25.0,872,931,0
L,,324575,-0.062,0.975,0.000,37.2,2.6,40.6,854,919,0
L,,324635,-0.096,0.968,-0.025,25.6,20.4,43.6,842,921,0
L,,324695,-0.139,1.053,-0.061,53.3,14.2,42.7,787,921,0
L,,324754,-0.005,1.244,-0.054,66.9,18.2,52.1,693,853,0
L,,324814,-0.114,1.558,0.045,103.2,15.5,71.5,685,910,0
L,,324875,-0.206,1.638,0.299,172.5,55.4,68.6,418,917,0
L,,324935,-0.025,1.317,0.528,201.1,117.9,67.5,436,924,0
L,,324995,-0.032,0.465,-0.226,8.6,97.7,-20.4,562,739,0
L,,325055,0.191,0.055,0.281,-66.0,59.9,-109.6,587,759,0
L,,325115,0.312,0.537,0.239,-198.6,25.2,-166.3,595,761,0
L,,325174,0.487,1.198,0.134,-246.2,68.1,-169.6,601,759,0
L,,325235,0.346,1.658,-0.042,-242.6,37.8,-175.0,580,756,0
L,,325325,0.435,1.536,-0.900,-129.9,140.9,-97.2,583,755,0
L,,325385,0.732,0.522,0.375,-289.7,186.6,122.5,598,761,0
L,,325445,-0.305,1.390,1.052,107.5,-58.4,89.5,837,935,0
L,,325504,0.116,1.414,-0.343,156.4,-29.0,54.4,868,939,0
L,,325565,-0.183,0.813,-0.487,42.1,-26.7,66.8,873,942,0
L,,325625,-0.192,1.191,0.038,21.2,23.3,22.6,878,939,0
L,,325685,-0.128,0.984,0.013,23.8,9.6,8.4,878,938,0
L,,325745,-0.147,1.019,-0.084,37.1,8.1,21.1,870,929,0
L,,325805,-0.070,1.002,-0.146,18.8,-2.6,22.9,868,933,0
L,,325865,-0.075,1.017,-0.088,15.1,6.9,25.9,864,928,0
L,,325955,-0.075,1.018,-0.170,3.1,22.8,50.7,839,927,0
L,,326015,0.088,1.051,-0.007,48.2,19.6,51.0,740,903,0
L,,326075,-0.056,1.404,0.032,105.8,5.4,84.9,726,919,0
L,,326143,-0.212,1.588,0.233,152.6,47.9,87.7,449,891,0
L,,326195,-0.042,2.123,0.138,252.0,112.7,135.1,447,927,0
L,,326254,0.098,0.021,-0.049,127.9,-17.1,-30.1,648,928,0
L,,326315,0.261,0.007,-0.013,-26.8,30.1,-47.8,585,752,0
L,,326375,0.116,0.382,0.142,-156.0,30.5,-93.0,588,760,0
L,,326435,0.261,0.960,0.074,-228.5,47.7,-135.1,591,764,0
L,,326495,0.252,1.443,0.005,-239.6,-1.8,-169.9,592,763,0
L,,326559,0.004,1.850,-0.087,-237.7,-13.0,-163.0,542,743,0
L,,326615,0.028,1.848,-0.882,-171.9,1.5,-137.4,565,757,0
L,,326675,0.708,1.687,-1.284,74.2,103.3,71.1,578,766,0
L,,326735,-0.076,1.093,0.954,99.7,-71.0,-14.4,825,938,0
L,,326794,0.154,1.156,0.386,70.0,-42.3,11.0,862,939,0
L,,326855,-0.415,0.942,-0.182,117.1,28.9,44.1,874,938,0
L,,326915,-0.233,0.896,0.002,47.2,7.7,50.8,877,940,0
L,,326975,-0.025,1.110,0.012,24.4,0.0,14.9,875,938,0
L,,327035,-0.171,0.971,0.013,-8.8,3.9,42.2,872,935,0
L,,327095,-0.042,0.990,-0.045,39.0,2.2,40.1,870,934,0
L,,327185,0.006,1.067,-0.052,48.0,10.9,37.2,850,926,0
L,,327245,-0.069,1.136,-0.069,55.2,17.5,41.6,810,914,0
L,,327305,0.398,1.353,0.049,82.2,21.7,69.8,725,899,0
L,,327365,-0.045,1.514,0.142,117.3,30.9,111.7,608,879,0
L,,327425,0.147,1.932,0.496,228.0,19.5,109.9,417,919,0
L,,327485,-0.251,1.332,-0.404,143.8,-40.3,97.3,513,935,0
L,,327544,-0.771,0.452,1.140,-69.3,-102.9,3.6,654,930,0
L,,327635,-0.047,0.549,0.101,-201.1,57.8,-95.2,609,800,0
L,,327695,0.035,1.074,-0.015,-273.8,32.9,-144.9,610,763,0
L,,327755,0.339,1.558,-0.036,-260.3,-90.0,-196.2,607,767,0
L,,327815,-0.132,1.845,-0.528,-236.9,-28.1,-163.7,577,755,0
L,,327875,1.318,1.686,-1.134,-85.4,169.1,-66.9,592,765,0
L,,327935,0.646,1.732,-0.259,12.3,30.1,-9.6,645,765,0
L,,327994,-0.324,1.337,0.075,153.8,-104.8,-31.6,847,929,0
L,,328055,-0.630,1.190,-0.793,138.1,46.9,46.9,870,933,0
L,,328115,-0.156,0.918,0.094,56.9,9.3,48.0,876,939,0
L,,328175,-0.146,1.080,0.033,10.9,7.2,9.3,880,936,0
L,,328235,-0.143,0.981,-0.040,16.9,10.9,20.4,873,934,0
L,,328295,-0.138,0.953,-0.010,28.1,8.5,37.9,864,930,0
L,,328355,-0.041,1.025,-0.031,43.2,2.1,51.7,847,914,0
L,,328415,-0.113,1.031,-0.070,36.2,-9.8,39.6,840,931,0
L,,328475,0.040,1.069,-0.043,37.3,-0.3,72.2,751,904,0
L,,328535,0.013,1.278,0.033,80.6,-15.2,74.9,668,839,0
L,,328595,-0.062,1.563,-0.218,119.0,6.3,99.3,596,881,0
L,,328655,-0.333,1.966,0.536,219.5,41.6,105.9,432,918,0
L,,328715,-0.005,0.993,0.403,192.7,-4.6,49.4,474,746,0
L,,328805,-0.061,-0.021,0.146,-62.5,7.0,-72.6,595,760,0
L,,328865,-0.027,0.542,0.331,-197.4,21.2,-136.0,593,759,0
L,,328925,0.233,1.038,0.301,-258.3,88.2,-180.8,592,753,0
L,,328985,0.539,1.574,-0.027,-252.0,-6.3,-180.9,571,746,0
L,,329045,0.536,2.135,-0.567,-216.2,14.2,-163.7,544,746,0
L,,329135,0.725,1.021,-1.506,2.8,144.0,45.2,590,768,0
L,,329195,0.306,1.553,1.154,75.7,-76.3,78.1,836,937,0
L,,329255,0.043,1.254,0.044,139.2,13.4,7.0,868,938,0
L,,329315,-0.106,0.763,-0.147,52.8,-52.9,70.5,877,940,0
L,,329405,-0.110,1.034,0.030,9.9,11.6,8.1,881,940,0
L,,329465,-0.230,1.042,0.008,42.2,34.0,7.7,876,935,0
L,,329534,-0.166,1.070,-0.051,11.2,11.7,29.1,862,924,0
L,,329585,-0.153,1.003,0.003,5.8,14.4,17.6,866,929,0
L,,329645,-0.121,1.052,-0.032,28.0,6.2,31.7,846,927,0
L,,329705,-0.196,1.029,-0.089,31.5,32.0,32.2,753,877,0
L,,329765,-0.023,1.255,-0.068,52.1,26.0,56.7,731,913,0
L,,329825,0.029,1.427,0.079,110.6,30.3,77.3,683,889,0
L,,329885,-0.074,1.589,0.332,168.0,59.6,76.7,412,884,0
L,,329945,0.030,1.730,0.078,266.4,87.8,97.7,472,931,0
L,,330005,0.338,-0.281,-0.905,92.3,143.3,-7.7,624,916,0
L,,330065,0.250,-0.087,0.192,-57.4,77.0,-96.7,564,754,0
L,,330155,0.225,0.905,0.317,-224.5,29.8,-161.9,586,764,0
L,,330215,0.485,1.252,0.198,-260.1,35.0,-169.4,585,764,0
L,,330275,0.388,1.798,-0.318,-259.6,-28.6,-150.4,551,761,0
L,,330335,0.374,1.649,-0.722,-138.4,13.9,-100.3,549,766,0
L,,330395,0.772,1.264,-1.065,26.6,139.7,64.0,563,778,0
L,,330455,0.201,0.738,1.545,76.8,-49.5,56.9,826,934,0
L,,330515,0.352,1.238,0.334,98.0,-26.6,10.8,863,939,0
L,,330575,-0.142,0.881,0.334,71.6,-26.1,65.7,874,939,0
L,,330635,-0.064,1.085,0.006,49.4,24.5,27.3,880,940,0
L,,330695,-0.132,1.040,0.040,5.0,13.5,9.8,879,939,0
L,,330755,-0.165,0.973,-0.029,38.7,19.3,19.9,872,936,0
L,,330815,-0.083,1.012,-0.030,28.0,8.4,31.9,848,931,0
L,,330875,-0.057,0.898,-0.117,38.1,1.1,35.2,784,894,0
L,,330935,-0.039,1.096,-0.032,31.7,13.0,26.6,752,899,0
L,,330995,-0.072,1.091,-0.065,52.7,1.8,46.8,709,903,0
L,,331055,-0.068,1.283,-0.013,87.5,3.9,69.8,630,841,0
L,,331115,-0.126,1.586,0.023,140.7,23.3,91.9,492,922,0
L,,331175,-0.189,2.121,0.279,215.8,128.1,120.4,448,877,0
L,,331265,-0.233,0.271,0.304,70.7,58.3,-37.2,546,727,0
L,,331325,0.262,0.081,0.168,-37.1,36.4,-81.6,576,755,0
L,,331384,0.135,0.557,0.284,-165.3,30.7,-150.0,581,762,0
L,,331445,0.454,1.106,0.326,-238.0,64.1,-180.8,581,763,0
L,,331505,0.472,1.593,0.141,-249.9,10.2,-170.5,573,761,0
L,,331565,0.438,2.088,-0.133,-248.9,70.7,-162.1,532,751,0
L,,331625,0.046,1.540,-1.648,-93.9,158.3,-79.3,563,753,0
L,,331685,1.301,1.301,-0.965,42.9,135.5,83.4,585,765,0
L,,331745,0.724,1.658,0.050,79.5,-112.6,-21.0,845,938,0
L,,331835,-0.307,0.951,-0.038,107.3,20.3,65.3,876,940,0
L,,331895,-0.118,0.943,0.073,53.4,27.3,60.5,881,941,0
L,,331956,-0.177,1.035,-0.001,16.9,18.9,3.9,880,935,0
L,,332015,-0.202,0.924,-0.152,46.4,10.2,17.9,875,933,0
L,,332075,-0.152,1.039,-0.014,13.7,13.3,24.3,872,935,0
L,,332135,-0.071,1.026,-0.029,39.3,12.3,42.5,847,915,0
L,,332195,-0.061,1.063,-0.091,43.8,10.0,38.1,845,925,0
L,,332255,-0.089,1.050,-0.101,55.9,19.4,45.7,785,918,0
L,,332315,0.027,1.308,0.008,77.4,27.3,60.6,672,838,0
L,,332383,-0.248,1.557,0.146,135.4,35.4,83.5,604,902,0
L,,332435,-0.432,2.113,0.610,235.2,120.3,106.4,417,935,0
L,,332496,-0.060,0.942,0.333,253.4,169.4,67.2,498,916,0
L,,332585,0.035,-0.080,0.138,-120.8,35.0,-119.3,579,753,0
L,,332645,0.123,0.569,0.332,-207.9,56.3,-154.0,584,762,0
L,,332706,0.543,1.210,0.104,-247.8,64.1,-176.4,587,763,0
L,,332765,0.236,1.647,-0.055,-240.2,-20.3,-180.8,579,765,0
L,,332827,0.423,1.758,-0.390,-190.0,5.1,-135.4,567,766,0
L,,332885,0.967,1.464,-0.723,-20.5,168.3,-20.0,591,774,0
L,,332975,-0.041,0.668,0.466,-17.9,-84.7,15.3,824,937,0
L,,333036,-0.060,1.224,0.253,89.9,-11.7,31.2,864,936,0
L,,333095,-0.340,1.009,-0.270,77.0,26.2,40.6,875,939,0
L,,333155,-0.179,0.920,0.063,43.2,16.1,40.5,879,938,0
L,,333214,-0.167,0.980,0.028,21.7,12.5,8.4,878,936,0
L,,333275,-0.110,0.983,0.015,40.6,15.1,30.5,878,935,0
L,,333335,-0.101,1.022,-0.048,23.5,6.8,32.4,875,934,0
L,,333395,-0.034,1.011,-0.063,27.7,14.3,47.5,821,886,0
L,,333456,-0.118,1.122,-0.084,47.8,15.9,51.5,815,899,0
L,,333515,0.040,1.076,-0.065,52.2,27.1,57.8,688,841,0
L,,333576,0.124,1.378,0.059,89.6,2.9,75.3,711,892,0
L,,333635,-0.162,1.647,0.216,154.2,28.2,99.7,498,923,0
L,,333695,-0.028,2.294,0.399,226.6,63.5,135.3,439,930,0
L,,333754,0.019,0.412,-0.244,168.2,-19.4,-7.4,557,734,0
L,,333845,-0.048,0.283,0.249,-174.7,54.8,-76.3,598,756,0
L,,333905,0.333,0.795,-0.130,-226.3,79.1,-135.8,607,765,0
L,,333965,0.344,1.190,-0.161,-264.3,19.1,-192.5,601,764,0
L,,334025,0.276,1.849,-0.141,-242.5,-43.5,-187.7,589,765,0
L,,334115,0.854,1.661,-1.204,-91.0,104.6,-96.4,585,767,0
L,,334175,0.602,0.861,-0.445,98.2,15.1,57.9,604,778,0
L,,334265,-0.108,0.947,0.309,126.2,-35.9,26.3,867,941,0
L,,334355,-0.082,1.179,-0.300,40.6,6.5,66.7,876,941,0
L,,334416,-0.232,0.969,0.060,6.4,0.5,28.5,878,937,0
L,,334475,-0.228,1.041,-0.081,52.9,19.5,14.9,878,939,0
L,,334536,-0.104,1.044,0.022,42.0,-0.7,29.4,866,932,0
L,,334595,-0.051,1.023,-0.012,39.4,13.5,35.7,857,930,0
L,,334685,0.005,0.964,-0.046,45.2,8.0,56.6,791,923,0
L,,334775,0.005,1.372,0.047,77.0,0.8,77.8,713,900,0
L,,334835,-0.130,1.515,0.014,131.1,17.0,90.1,512,920,0
L,,334895,-0.411,2.104,0.579,211.8,66.5,148.1,417,886,0
L,,334956,-0.105,1.300,-0.345,182.0,-19.3,18.4,598,919,0
L,,335015,-0.453,0.678,0.398,29.4,19.1,-13.4,592,752,0
L,,335076,-0.083,0.376,0.272,-166.2,12.1,-84.7,605,758,0
L,,335135,0.212,0.820,0.230,-247.7,36.8,-162.1,611,763,0
L,,335195,0.409,1.671,-0.021,-268.2,7.2,-233.3,598,759,0
L,,335255,0.279,2.058,-0.245,-242.6,-4.9,-189.2,587,760,0
L,,335345,1.313,1.514,-1.172,-141.0,164.7,-53.9,584,772,0
L,,335405,0.550,1.369,-0.376,74.0,43.1,45.4,640,773,0
L,,335465,-0.122,1.907,-0.131,163.5,-72.8,0.0,858,938,0
L,,335525,-0.352,0.984,0.175,98.0,-43.6,34.2,872,938,0
L,,335585,-0.037,1.171,-0.242,72.8,26.9,77.2,879,940,0
L,,335645,-0.020,1.095,0.036,13.3,18.4,6.1,878,937,0
L,,335706,-0.187,0.973,-0.051,29.0,17.7,15.1,875,938,0
L,,335765,-0.006,1.093,-0.069,51.5,3.5,42.0,871,936,0
L,,335826,-0.081,1.018,-0.040,29.7,4.8,33.6,862,932,0
L,,335894,-0.066,1.054,0.004,37.1,7.8,59.7,838,925,0
L,,335945,-0.044,1.057,-0.089,58.6,12.5,51.2,741,869,0
L,,336005,0.092,1.231,0.000,70.0,11.1,59.2,708,882,0
L,,336065,-0.111,1.518,-0.039,119.5,10.9,92.4,630,837,0
L,,336125,-0.204,1.694,0.279,163.5,52.3,97.2,413,928,0
L,,336185,-0.282,1.433,0.449,179.9,25.6,91.9,418,840,0
L,,336246,-0.040,0.393,0.138,-12.6,17.1,9.6,564,748,0
L,,336305,0.030,-0.038,0.338,-83.7,-10.8,-89.6,599,762,0
L,,336366,0.028,0.660,0.234,-212.4,37.1,-164.4,592,762,0
L,,336425,0.442,1.282,0.331,-261.9,76.1,-200.6,597,768,0
L,,336485,0.542,1.896,-0.076,-249.2,4.6,-179.4,596,760,0
L,,336545,0.515,1.875,-0.706,-161.6,39.6,-103.9,592,770,0
L,,336605,0.980,1.610,-0.814,-107.4,162.3,-24.1,595,779,0
L,,336666,-0.241,1.544,-0.007,115.3,15.5,21.2,778,936,0
L,,336725,-0.255,1.082,0.090,90.5,-76.4,-1.6,855,933,0
L,,336786,-0.358,0.969,0.161,82.3,-38.5,28.4,873,938,0
L,,336845,-0.311,1.199,-0.102,37.8,10.6,52.0,877,938,0
L,,336906,-0.010,1.129,-0.015,32.6,16.0,14.6,877,938,0
L,,336965,-0.118,1.040,-0.046,15.8,23.8,12.5,880,939,0
L,,337025,-0.116,1.007,-0.006,20.4,12.0,25.9,870,933,0
L,,337085,-0.032,0.998,-0.169,10.5,21.3,34.2,834,903,0
L,,337145,-0.159,1.015,0.239,-10.8,21.0,17.6,824,912,0
L,,337206,-0.045,1.130,-0.059,44.0,26.8,37.4,707,851,0
L,,337265,0.114,1.176,0.000,70.5,6.4,54.1,732,906,0
L,,337326,0.001,1.444,-0.011,112.7,15.0,77.9,665,884,0
L,,337385,-0.138,1.629,0.307,153.6,50.7,84.4,431,926,0
L,,337446,0.179,1.486,0.198,211.8,77.6,99.5,429,923,0
L,,337505,0.454,-0.278,-0.807,112.1,80.1,19.5,617,935,0
L,,337565,0.217,0.123,0.085,-53.1,12.4,-82.1,537,737,0
L,,337625,0.072,0.313,0.053,-154.9,56.0,-142.9,570,762,0
L,,337685,0.484,1.011,0.000,-207.3,90.7,-186.6,577,765,0
L,,337746,0.594,1.431,0.082,-210.7,49.4,-193.5,567,761,0
L,,337835,0.370,1.907,-0.459,-209.8,81.9,-169.3,547,755,0
L,,337925,1.098,1.510,-1.375,-63.0,226.1,100.9,597,777,0
L,,337986,0.460,1.555,-0.210,114.8,-57.6,59.0,840,938,0
L,,338076,-0.404,0.851,0.054,90.8,-8.5,61.3,870,936,0
L,,338135,-0.095,1.127,-0.232,40.1,17.7,44.3,876,939,0
L,,338196,-0.050,1.149,0.010,22.4,15.1,13.5,879,939,0
L,,338255,-0.157,0.934,-0.019,11.8,16.8,15.6,880,939,0
L,,338315,-0.097,1.005,-0.017,29.6,16.2,36.9,873,934,0
L,,338375,-0.161,1.041,0.007,24.0,8.3,44.2,869,932,0
L,,338435,-0.048,1.004,-0.039,27.7,10.4,35.4,844,923,0
L,,338496,-0.081,1.062,-0.172,39.6,29.1,32.6,790,890,0
L,,338555,-0.057,1.231,-0.072,59.8,17.7,48.3,736,904,0
L,,338616,-0.031,1.436,0.040,99.3,42.9,75.1,630,811,0
L,,338675,-0.172,1.576,0.150,159.7,65.8,84.8,417,839,0
L,,338744,0.019,1.496,0.342,194.1,117.8,67.2,434,924,0
L,,338795,0.628,-0.490,-0.396,108.6,129.5,-17.2,571,737,0
L,,338855,0.107,0.122,0.041,-52.6,-5.1,-89.4,584,755,0
L,,338916,0.221,0.585,0.435,-170.5,19.1,-150.7,600,768,0
L,,338975,0.443,1.041,0.366,-221.9,72.8,-165.9,596,772,0
L,,339036,0.468,1.571,0.202,-238.9,24.5,-175.3,594,769,0
L,,339095,0.275,2.067,-0.221,-276.0,44.1,-167.7,579,764,0
L,,339160,1.099,1.545,-0.824,-41.5,184.0,-32.3,584,775,0
L,,339215,0.642,1.664,-1.667,8.5,129.2,88.0,602,764,0
L,,339276,0.088,1.336,0.059,138.6,-67.8,26.1,851,939,0
L,,339335,-0.263,0.902,-0.147,67.2,-48.5,21.9,870,939,0
L,,339395,-0.148,0.866,0.404,38.0,-22.4,54.2,877,938,0
L,,339456,-0.131,1.078,-0.062,40.0,12.1,22.1,880,938,0
L,,339515,-0.112,1.016,-0.002,20.9,14.2,14.5,880,939,0
L,,339576,-0.151,0.989,-0.103,32.7,3.8,22.5,875,937,0
L,,339635,-0.084,1.039,-0.005,25.2,10.5,31.9,850,915,0
L,,339696,-0.089,1.057,-0.038,11.4,8.2,37.5,840,921,0
L,,339755,-0.041,1.049,-0.137,47.4,21.1,47.8,771,913,0
L,,339845,0.038,1.269,-0.009,80.5,3.3,71.3,683,854,0
L,,339906,-0.145,1.538,0.061,123.0,29.6,94.0,574,913,0
L,,339996,0.081,1.491,0.311,206.0,77.1,109.8,426,858,0
L,,340055,0.708,0.048,-0.926,50.1,55.0,17.7,559,734,0
L,,340116,0.087,-0.049,0.000,-57.3,38.0,-54.1,580,748,0
L,,340175,-0.041,0.485,0.081,-189.8,11.0,-118.9,595,761,0
L,,340236,0.171,1.084,0.101,-246.8,76.2,-170.5,593,766,0
L,,340295,0.492,1.619,0.065,-241.2,-5.0,-206.2,592,769,0
L,,340356,0.177,1.961,-0.041,-243.1,-46.1,-182.5,564,754,0
L,,340416,0.160,1.741,-1.051,-124.1,36.8,-102.5,578,760,0
L,,340475,0.886,1.066,-0.954,27.4,67.1,54.0,599,774,0
L,,340536,0.325,2.236,0.382,166.1,-60.2,31.9,841,934,0
L,,340594,0.036,1.137,-0.358,126.7,-37.3,-21.2,869,936,0
L,,340656,0.009,1.055,-0.216,83.4,-0.2,78.5,876,939,0
L,,340715,-0.078,1.186,-0.013,16.2,21.2,16.1,880,940,0
L,,340776,-0.226,1.019,0.040,26.4,25.1,8.5,877,936,0
L,,340835,-0.142,0.988,-0.052,50.4,6.3,43.4,871,933,0
L,,340896,-0.074,0.964,-0.031,13.8,11.4,26.3,855,930,0
L,,340956,-0.075,0.988,-0.063,48.8,8.8,43.4,826,922,0
L,,341045,0.031,1.025,-0.064,46.9,7.0,48.0,724,898,0
L,,341106,0.162,1.241,-0.037,72.8,2.6,61.4,696,896,0
L,,341166,-0.074,1.479,0.086,119.3,13.7,96.9,543,928,0
L,,341225,-0.244,1.786,0.535,166.5,42.2,128.3,408,897,0
L,,341316,-0.007,0.126,-0.264,155.6,-17.7,-36.8,509,708,0
L,,341375,-0.338,0.386,-0.123,1.8,10.5,-12.8,572,768,0
L,,341436,-0.055,0.266,-0.023,-189.7,29.6,-72.8,588,758,0
L,,341496,0.285,0.958,-0.212,-222.9,73.5,-123.4,531,687,0
L,,341555,0.532,1.500,-0.178,-197.0,47.2,-139.9,597,771,0
L,,341616,0.142,1.686,-0.055,-225.7,-61.3,-178.2,589,775,0
L,,341675,0.128,1.647,-0.543,-190.8,-25.8,-142.8,564,779,0
L,,341736,1.219,1.450,-0.895,-113.7,158.8,-52.7,568,782,0
L,,341795,0.265,1.382,-0.302,105.5,-0.8,36.7,643,781,0
L,,341856,-0.384,1.803,0.184,157.0,-40.6,-41.4,856,937,0
L,,341916,-0.323,0.892,0.011,107.1,-42.8,16.9,878,942,0
L,,342005,-0.007,0.940,0.111,32.5,26.9,29.2,879,938,0
L,,342066,-0.243,0.963,0.107,26.2,20.7,5.9,881,937,0
L,,342134,-0.140,1.013,-0.035,53.2,11.6,41.9,870,933,0
L,,342186,-0.051,0.950,0.018,11.8,19.2,42.7,861,932,0
L,,342246,-0.057,0.977,-0.033,48.5,14.4,30.8,826,921,0
L,,342305,-0.059,1.069,0.095,2.3,9.1,30.1,776,916,0
L,,342366,0.074,1.171,-0.195,60.4,5.8,38.2,714,913,0
L,,342425,0.035,1.260,-0.012,79.9,-7.8,66.5,684,910,0
L,,342486,-0.074,1.436,-0.058,117.2,5.9,88.9,493,867,0
L,,342545,-0.199,1.712,0.623,171.2,11.1,115.6,420,893,0
L,,342606,-0.069,1.259,0.288,175.5,16.1,103.5,409,789,0
L,,342666,-0.334,0.536,0.584,-6.8,-47.8,-29.8,554,757,0
L,,342726,0.003,0.171,0.193,-101.5,39.0,-75.9,588,758,0
L,,342786,-0.055,0.613,0.215,-176.1,81.9,-123.4,591,768,0
L,,342845,0.160,0.906,0.214,-239.6,76.7,-170.8,599,773,0
L,,342906,0.295,1.825,-0.010,-240.8,-18.7,-196.3,581,767,0
L,,342965,0.294,2.085,-0.633,-180.5,18.6,-152.4,561,767,0
L,,343026,1.028,1.640,-1.321,-65.5,171.7,-50.8,573,773,0
L,,343085,0.673,0.979,-0.583,89.2,100.8,82.5,599,765,0
L,,343146,0.304,1.514,0.169,75.6,-128.7,5.4,849,937,0
L,,343206,-0.270,0.909,-0.090,89.1,-50.4,21.7,875,942,0
L,,343266,-0.236,1.108,-0.104,46.4,-12.7,58.3,876,938,0
L,,343326,-0.056,0.978,0.039,27.5,7.0,19.6,880,935,0
L,,343385,-0.234,1.022,-0.013,2.8,17.5,8.7,877,937,0
L,,343446,-0.115,0.961,-0.009,34.4,13.5,32.1,872,933,0
L,,343505,-0.107,1.065,-0.012,26.8,15.6,21.8,868,931,0
L,,343566,-0.131,1.103,0.055,3.2,43.8,29.7,848,928,0
L,,343625,-0.036,1.085,-0.112,31.7,24.7,32.2,770,897,0
L,,343686,0.016,1.120,0.100,59.6,6.1,47.6,680,857,0
L,,343746,-0.028,1.379,0.030,107.1,10.9,71.0,669,881,0
L,,343806,-0.188,1.597,0.273,140.1,52.9,81.0,422,909,0
L,,343866,0.131,1.641,0.174,217.2,79.8,103.0,431,927,0
L,,343925,0.498,-0.287,-0.491,140.6,104.2,-26.9,610,876,0
L,,343985,0.390,0.043,0.224,-37.4,70.9,-74.0,556,755,0
L,,344045,0.194,0.447,0.208,-164.0,25.3,-164.8,580,767,0
L,,344106,0.389,1.051,0.276,-243.8,70.5,-184.4,586,767,0
L,,344166,0.528,1.566,0.172,-245.2,32.9,-176.5,566,759,0
L,,344255,0.645,1.522,-0.834,-123.5,87.5,-87.5,543,762,0
L,,344359,-0.396,0.429,0.946,48.4,5.8,37.1,821,933,0
L,,344406,-0.248,1.493,-0.549,139.7,-79.2,-39.4,861,938,0
L,,344496,-0.071,1.120,-0.191,63.9,6.5,59.7,880,942,0
L,,344585,-0.149,1.060,-0.058,21.6,-0.9,19.1,880,938,0
L,,344646,-0.135,1.024,-0.010,27.0,15.3,20.5,875,935,0
L,,344706,-0.086,0.977,-0.044,8.3,12.4,25.4,865,931,0
L,,344766,-0.089,1.009,-0.088,23.7,9.5,44.9,855,931,0
L,,344826,-0.122,1.068,-0.073,32.5,13.1,30.7,827,924,0
L,,344885,0.014,0.883,0.006,53.0,28.2,40.3,719,879,0
L,,344946,0.057,1.296,-0.019,77.5,-4.0,57.7,627,786,0
L,,345014,-0.175,1.545,0.064,121.5,20.7,93.5,604,876,0
L,,345066,-0.342,1.761,0.476,175.7,66.1,97.5,406,893,0
L,,345156,-0.326,1.030,-0.138,188.7,37.8,-46.0,526,721,0
L,,345246,0.120,0.129,0.271,-111.5,46.4,-131.6,577,770,0
L,,345306,0.389,0.761,0.276,-201.3,68.6,-178.2,582,768,0
L,,345366,0.598,1.227,0.139,-240.7,44.3,-173.8,586,772,0
L,,345425,0.389,1.752,-0.201,-233.3,48.2,-167.8,557,770,0
L,,345490,0.162,1.773,-0.679,-162.4,108.8,-137.4,568,771,0
L,,345576,0.787,1.868,-0.596,95.6,106.6,-2.8,571,782,0
L,,345636,0.149,1.264,1.028,114.7,-205.5,5.8,832,930,0
L,,345726,-0.433,1.109,-0.449,143.7,32.1,64.3,874,940,0
L,,345786,-0.146,1.072,-0.081,7.4,12.0,44.9,879,938,0
L,,345846,-0.160,0.990,-0.041,14.4,14.0,8.4,879,938,0
L,,345906,-0.147,1.049,0.004,45.3,18.4,30.5,875,936,0
L,,345965,-0.137,0.988,-0.118,18.1,8.1,35.4,866,931,0
L,,346026,-0.085,0.998,-0.113,-17.9,30.8,27.1,849,924,0
L,,346085,-0.033,1.004,-0.061,21.7,11.0,34.8,829,915,0
L,,346146,-0.059,1.067,-0.067,35.2,15.8,33.1,795,911,0
L,,346206,0.021,1.102,-0.113,49.7,13.7,40.7,662,832,0
L,,346266,-0.102,1.212,-0.040,63.8,22.1,53.6,671,867,0
L,,346356,-0.093,1.483,-0.056,146.9,63.0,77.0,459,891,0
L,,346416,0.099,1.540,0.007,202.1,184.3,87.8,406,868,0
L,,346476,0.099,0.413,-0.271,160.6,175.5,-35.3,534,742,0
L,,346536,0.377,0.194,0.170,-14.5,36.3,-78.1,564,763,0
L,,346596,0.211,0.417,0.241,-135.6,-53.0,-124.8,574,762,0
L,,346656,0.155,0.970,0.124,-216.8,26.1,-139.7,580,771,0
L,,346715,0.349,1.397,0.040,-187.8,-3.8,-129.5,572,769,0
L,,346806,0.067,1.561,-0.208,-179.6,13.3,-140.4,552,770,0
L,,346866,0.448,1.444,-0.702,-68.6,133.7,-87.3,535,772,0
L,,346926,0.467,1.163,-0.355,46.9,73.7,54.1,602,771,0
L,,346986,0.190,1.535,0.151,59.4,-115.6,6.6,824,918,0
L,,347045,-0.118,0.894,0.020,73.6,-49.4,3.9,865,938,0
L,,347106,-0.161,1.026,0.224,44.6,-4.0,55.7,872,938,0
L,,347166,-0.060,1.082,0.163,15.3,17.2,9.1,878,939,0
L,,347226,-0.100,0.911,-0.036,35.0,-6.1,17.9,878,939,0
L,,347286,-0.171,1.116,0.032,32.3,5.3,15.8,878,936,0
L,,347346,-0.066,1.041,0.011,19.9,1.2,33.8,876,935,0
L,,347406,0.004,0.968,-0.030,27.5,4.9,34.5,876,935,0
L,,347466,-0.013,0.996,-0.038,14.4,5.1,31.5,870,931,0
L,,347526,-0.028,1.069,-0.028,24.1,1.6,34.4,843,909,0
L,,4294921696,-0.076,1.074,-0.124,54.7,11.5,50.1,687,796,0
L,,347719,0.186,1.293,0.002,83.8,5.3,73.9,693,907,0
L,,347766,-0.010,1.381,0.095,87.5,37.3,74.4,496,881,0
L,,347826,0.044,1.681,0.153,196.8,52.9,113.8,414,860,0
L,,347886,0.201,0.692,0.223,238.6,-28.4,20.7,554,931,0
L,,347946,-0.341,0.334,0.612,-7.9,39.9,-27.0,552,731,0
L,,348036,0.140,0.466,0.140,-148.4,-6.7,-117.0,593,767,0
L,,348125,0.270,1.154,-0.082,-213.8,34.7,-151.8,590,766,0
L,,348185,0.231,1.431,-0.170,-221.6,-31.7,-165.6,577,769,0
L,,348246,0.237,1.546,-0.211,-174.7,-17.7,-160.0,554,765,0
L,,524895,-0.013,1.078,-0.051,47.0,14.7,49.2,741,854,0
L,,524905,0.021,1.085,-0.048,52.1,8.7,53.6,65535,800,0
L,,524915,0.077,1.033,0.005,53.0,7.0,50.3,710,841,0
L,,524925,0.083,1.066,-0.105,50.4,10.9,53.8,700,853,0
L,,524935,0.059,1.137,0.003,61.1,3.6,58.4,698,854,0
L,,524945,0.079,1.171,0.071,53.9,11.3,58.8,624,783,0
L,,524955,0.127,1.141,0.027,56.6,11.6,62.4,649,814,0
L,,524965,0.206,1.178,0.047,70.1,0.9,72.1,716,900,0
L,,524975,0.250,1.284,0.086,72.5,0.6,77.4,624,772,0
L,,524985,0.111,1.319,0.106,75.0,3.0,79.8,635,772,0
L,,524995,0.133,1.371,0.043,98.4,1.7,90.2,666,769,0
L,,525005,0.012,1.394,0.090,94.2,4.5,95.2,625,780,0
L,,525015,-0.123,1.507,0.060,97.5,12.2,107.2,652,825,0
L,,525025,-0.054,1.526,-0.001,112.9,8.2,114.0,647,805,0
L,,525035,-0.165,1.538,0.067,114.1,14.9,120.8,649,904,0
L,,525045,-0.157,1.579,0.056,121.5,23.1,121.1,600,891,0
L,,525055,-0.157,1.561,0.172,126.9,21.6,118.0,552,898,0
L,,525065,-0.151,1.664,0.167,148.8,22.8,104.3,492,856,0
L,,525075,-0.192,1.726,0.133,183.8,18.8,116.5,456,880,0
L,,525085,-0.154,1.837,0.320,157.9,15.3,104.8,407,888,0
L,,525095,-0.203,1.903,0.591,164.2,29.1,136.0,387,922,0
L,,525105,-0.614,2.382,0.243,193.3,61.5,178.1,386,923,0
L,,525115,-0.347,2.222,0.342,211.0,80.5,163.2,400,927,0
L,,525125,-0.032,1.786,0.336,220.0,73.8,155.8,392,920,0
L,,525135,-0.206,1.525,0.448,212.1,53.2,139.2,391,860,0
L,,581631,-0.195,1.375,0.562,189.9,68.7,146.5,404,819,0
L,,525155,0.069,1.563,-0.027,197.4,63.2,92.7,454,740,0
L,,525165,-0.016,1.358,-0.277,222.1,24.8,12.9,506,721,0
L,,525175,-0.081,0.467,-0.376,217.2,-4.2,-87.1,539,729,0
L,,525185,0.813,-0.853,-0.380,79.0,-3.0,-11.4,549,731,0
L,,525195,0.002,0.192,0.549,-28.0,-91.9,53.6,555,739,0
L,,525205,-0.284,0.635,1.239,-3.7,-111.2,20.0,555,741,0
L,,525215,-0.601,1.041,0.707,6.2,-46.6,-16.5,563,749,0
L,,525225,-0.290,0.523,0.383,9.8,-45.0,-36.1,569,750,0
L,,525235,-0.256,0.119,0.324,-17.5,-33.2,-47.7,570,750,0
L,,525245,-0.323,0.012,0.174,-36.4,-24.7,-58.9,570,750,0
L,,525255,-0.325,0.088,0.183,-100.1,-27.3,-0.1,571,751,0
L,,525265,-0.291,0.178,0.223,-124.8,-27.6,-89.8,574,748,0
L,,525275,-0.135,0.228,0.272,-139.0,-18.5,-96.3,578,753,0
L,,525285,-0.026,0.341,0.203,-163.2,-9.6,-103.4,574,750,0
L,,525295,-0.082,0.486,0.151,-190.0,-7.4,-122.3,575,752,0
L,,525305,-0.189,0.645,0.217,-208.6,6.1,-132.4,575,750,0
L,,525315,-0.175,0.774,0.229,-234.6,9.5,-136.8,571,744,0
L,,525325,-0.032,0.879,0.259,-201.6,28.2,-136.2,577,749,0
L,,525335,0.095,0.848,0.072,-203.8,31.8,-141.5,577,751,0
L,,525345,0.174,0.935,0.030,-245.7,30.6,-164.5,580,748,0
L,,525355,0.162,0.956,0.106,-255.8,28.8,-167.0,582,750,0
L,,525382,0.195,1.263,0.079,-261.0,23.7,-177.8,571,748,0
L,,525392,0.236,1.339,0.087,-267.9,14.5,-174.8,572,752,0
L,,525402,0.204,1.549,0.098,-274.5,0.0,-195.1,569,754,0
L,,525412,0.204,1.525,0.019,-259.1,-11.9,-192.9,564,752,0
L,,525422,0.235,1.694,0.025,-268.9,-27.9,-201.3,561,752,0
L,,525432,0.339,1.761,-0.013,-240.3,-32.8,-185.5,560,750,0
L,,525442,0.461,1.918,-0.170,-251.1,-50.5,-190.1,554,752,0
L,,525452,0.442,2.021,-0.242,-254.5,-59.8,-192.7,542,744,0
L,,525462,0.425,2.203,-0.301,-249.5,-65.6,-199.5,543,744,0
L,,525472,0.386,2.338,-0.391,-249.3,-57.5,-197.3,540,749,0
L,,525485,0.505,2.078,-0.656,-222.4,-32.4,-185.5,540,749,0
L,,525495,0.543,1.864,-0.859,-224.5,-13.8,-174.2,545,754,0
L,,525505,0.415,1.824,-0.883,-247.8,11.3,-179.2,553,753,0
L,,525515,0.378,1.847,-1.122,-225.2,23.8,-176.3,558,760,0
L,,525525,0.300,1.808,-1.071,-155.5,71.3,-153.7,561,761,0
L,,525535,0.649,1.681,-1.212,-152.3,117.8,-109.0,554,758,0
L,,525545,1.144,1.903,-1.340,-35.2,144.4,-62.2,562,766,0
L,,525555,1.137,1.793,-1.233,-28.2,145.3,-72.2,569,768,0
L,,525565,0.871,1.103,-1.571,60.0,120.2,-18.2,576,767,0
L,,525575,0.811,0.761,-1.150,65.3,91.0,50.2,578,762,0
L,,525585,0.874,1.060,-1.046,62.7,110.8,77.7,579,759,0
L,,525595,0.598,1.444,-0.822,13.1,95.8,50.7,625,754,0
L,,525605,0.741,2.060,0.213,90.8,41.5,-6.2,798,933,0
L,,525615,0.918,0.878,-0.232,-14.4,-65.8,-1.0,825,935,0
L,,525625,-0.790,0.204,2.228,42.5,-37.3,35.8,842,939,0
L,,525635,0.320,2.257,1.189,154.4,-74.9,112.9,847,938,0
L,,525645,0.538,2.680,-0.811,164.5,-63.7,73.1,855,938,0
L,,525655,-0.284,1.667,0.072,226.2,-92.6,11.1,860,939,0
L,,525665,0.089,1.094,0.435,224.5,-55.2,64.0,862,937,0
L,,525675,0.040,1.235,0.523,173.0,-39.2,43.3,864,938,0
L,,525685,0.073,1.209,0.195,170.0,-10.3,32.9,869,937,0
L,,525695,-0.258,1.088,-0.460,138.4,-57.3,8.1,869,937,0
L,,525705,-0.511,0.683,-0.222,115.3,-72.5,32.4,871,939,0
L,,525715,-0.548,0.830,0.118,94.6,-43.8,54.7,872,936,0
L,,525725,-0.585,1.121,-0.713,151.7,57.2,87.7,871,940,0
L,,525735,-0.411,0.870,-1.171,90.8,-38.0,96.2,876,938,0
L,,525745,-0.234,0.881,-0.057,39.4,-30.3,114.4,875,938,0
L,,525755,-0.130,1.155,0.134,32.4,39.1,111.3,877,939,0
L,,525765,0.111,1.309,0.089,43.4,16.7,59.2,879,938,0
L,,525775,0.096,1.091,0.233,48.8,31.1,42.6,879,935,0
L,,525785,0.049,1.004,0.026,47.1,24.0,29.8,878,938,0
L,,525795,0.013,0.961,0.056,45.2,13.4,27.9,877,938,0
L,,525805,0.075,0.943,0.015,54.5,13.3,29.8,879,939,0
L,,525815,0.031,0.996,-0.023,22.9,6.1,14.1,881,937,0
L,,525825,-0.057,0.976,0.061,15.3,12.3,17.9,880,939,0
L,,525835,-0.020,1.084,-0.037,7.8,5.6,10.0,880,937,0
L,,525845,-0.065,1.083,0.018,7.6,0.2,-0.4,877,937,0
L,,525855,-0.185,0.985,0.019,28.9,4.8,7.2,876,935,0
L,,525865,-0.260,0.990,-0.091,-4.1,13.2,-7.9,874,928,0
L,,525875,-0.213,0.941,-0.011,10.9,11.8,9.1,872,928,0
L,,525885,-0.215,0.997,0.046,-16.5,27.8,2.3,851,909,0
L,,525895,-0.113,0.982,-0.058,31.5,33.9,21.9,866,922,0
L,,525905,-0.105,0.968,-0.139,60.7,16.3,31.5,867,925,0
L,,525915,-0.060,1.063,-0.022,45.9,5.0,32.2,860,917,0
L,,525925,-0.112,0.826,0.026,83.1,-9.0,55.4,857,912,0
L,,525935,-0.184,0.855,-0.019,56.0,1.2,67.6,859,919,0
L,,525945,-0.101,0.983,-0.078,31.5,6.6,63.4,848,908,0
L,,525957,-0.033,1.011,-0.089,22.1,-11.0,53.4,845,905,0
L,,525967,-0.083,1.148,-0.020,41.0,0.0,32.9,825,887,0
L,,525977,-0.047,1.049,-0.102,32.0,-2.7,30.1,834,898,0
L,,525987,-0.027,1.038,-0.040,17.0,-3.0,30.8,847,904,0
L,,525997,-0.044,1.028,-0.045,27.7,5.4,26.1,848,907,0
L,,526007,-0.033,0.874,-0.064,14.1,6.4,21.4,825,879,0
L,,526017,-0.074,0.988,0.016,9.0,14.4,30.4,817,877,0
L,,526027,-0.047,1.038,-0.062,41.5,9.2,34.5,819,884,0
L,,526037,-0.077,1.042,0.001,9.5,7.8,32.0,817,885,0
L,,526047,-0.028,0.989,-0.117,21.9,5.9,53.6,808,876,0
L,,526057,-0.064,1.188,-0.065,40.0,5.4,48.5,800,878,0
L,,526067,-0.065,1.081,-0.095,41.6,3.8,39.8,793,860,0
L,,526077,-0.129,1.006,-0.022,36.1,6.7,44.9,796,852,0
L,,526087,-0.090,1.098,0.081,17.9,34.3,50.1,730,795,0
L,,526097,-0.038,1.585,-0.074,41.4,16.0,40.9,727,809,0
L,,526107,-0.063,1.059,-0.028,38.0,11.5,45.7,772,887,0
L,,526117,-0.049,1.027,-0.071,57.4,10.7,50.1,774,886,0
L,,526127,0.046,1.145,-0.024,50.8,14.7,54.7,737,809,0
L,,526137,0.039,1.206,-0.084,60.2,9.6,57.8,686,829,0
L,,526147,0.100,1.208,0.000,66.6,6.2,60.6,640,807,0
L,,526157,0.152,1.183,0.016,76.7,6.7,64.1,656,814,0
L,,526167,0.100,1.221,-0.015,79.7,5.6,67.8,608,784,0
L,,526177,0.063,1.240,0.099,70.9,2.4,69.0,659,848,0
L,,526187,0.056,1.296,-0.049,85.8,3.8,77.3,662,817,0
L,,526197,0.003,1.310,-0.021,87.9,8.2,82.6,653,828,0
L,,526207,-0.008,1.349,-0.018,91.2,10.0,87.2,657,679,0
L,,526251,-0.117,1.552,0.079,133.6,21.2,105.8,519,887,0
L,,526311,-0.242,2.393,0.269,189.4,85.4,150.9,363,920,0
L,,526372,-0.289,0.838,-0.121,222.6,7.5,-72.0,518,722,0
L,,526431,-0.103,0.300,0.392,-7.9,4.0,-55.8,557,750,0
L,,526521,-0.089,0.728,0.165,-203.2,17.5,-133.1,567,749,0
L,,526582,0.290,1.164,-0.006,-248.6,19.6,-168.4,568,750,0
L,,526641,0.194,1.528,-0.243,-242.0,-14.7,-173.2,544,745,0
L,,526702,0.324,1.669,-0.586,-215.8,35.8,-185.9,550,755,0
L,,526761,1.444,1.458,-1.179,-17.8,186.4,-4.9,562,764,0
L,,526851,-0.292,2.521,-0.591,178.0,-135.5,25.7,851,936,0
L,,526912,-0.608,1.290,-0.119,94.6,-128.8,-1.4,868,935,0
L,,526971,-0.016,1.092,0.184,53.1,19.7,78.6,875,936,0
L,,527031,-0.184,0.913,0.011,13.1,11.5,56.2,875,936,0
L,,527122,-0.151,0.850,-0.040,21.2,-1.3,23.8,868,931,0
L,,527181,-0.110,1.011,-0.038,37.1,3.5,35.0,852,928,0
L,,527242,-0.161,1.026,-0.021,-8.8,19.1,28.3,794,900,0
L,,527301,0.045,1.052,-0.010,61.6,14.6,38.1,746,895,0
L,,527391,0.122,1.284,0.023,85.1,23.1,68.2,646,868,0
L,,527452,-0.211,1.608,-0.058,125.7,33.3,110.3,528,809,0
L,,527511,-0.268,2.331,0.039,214.2,141.6,137.4,389,877,0
L,,527580,-0.050,0.064,-0.017,164.3,96.3,-81.4,541,739,0
L,,527631,0.475,0.415,0.477,30.1,88.9,-43.1,554,745,0
L,,527691,0.147,0.176,0.129,-69.7,-68.4,-90.7,570,757,0
L,,527751,0.206,0.687,0.268,-197.6,9.9,-148.8,570,765,0
L,,527841,0.380,1.512,0.094,-244.6,49.9,-166.6,568,765,0
L,,527901,0.471,1.803,-0.253,-207.4,62.0,-158.0,562,762,0
L,,527961,0.416,1.463,-0.550,-154.2,92.4,-108.1,561,766,0
L,,528025,1.175,1.092,-0.864,15.7,141.4,28.0,565,770,0
L,,528082,0.050,1.024,0.688,86.0,7.4,-7.5,795,933,0
L,,528141,-0.269,1.492,0.264,123.3,-109.9,-54.4,854,937,0
L,,528202,-0.366,0.888,-0.120,83.0,0.7,55.5,872,935,0
L,,528261,-0.137,0.995,-0.113,3.5,4.2,52.9,879,939,0
L,,528322,-0.161,0.992,0.015,21.4,17.9,18.9,876,935,0
L,,528424,-0.157,1.016,-0.004,24.8,-2.1,23.1,856,924,0
L,,528501,-0.062,1.026,-0.060,31.6,5.2,39.4,821,902,0
L,,528561,-0.046,0.991,-0.084,15.4,23.8,27.6,727,832,0
L,,528651,0.036,1.038,-0.077,27.8,15.8,25.8,685,832,0
L,,528711,0.062,1.068,-0.059,33.1,16.8,29.7,653,835,0
L,,528801,0.095,1.240,0.036,72.3,7.8,66.6,663,859,0
L,,528862,-0.082,1.455,0.029,117.6,24.9,79.1,427,804,0
L,,528921,-0.269,1.751,0.216,201.8,101.5,118.5,404,873,0
L,,528981,-0.062,1.147,-0.300,195.8,96.8,-17.3,501,714,0
L,,529041,0.279,0.549,0.431,30.3,71.7,-52.8,531,733,0
L,,529101,0.290,0.320,0.222,-73.5,-21.2,-129.7,549,750,0
L,,529162,0.243,0.736,0.342,-143.0,53.6,-165.5,561,747,0
L,,529221,0.593,1.200,0.143,-198.3,68.6,-180.9,561,745,0
L,,529282,0.322,1.590,-0.066,-229.0,42.5,-164.2,543,745,0
L,,529341,0.339,1.814,-0.330,-170.2,126.7,-145.0,520,743,0
L,,529401,0.982,1.422,-0.993,-73.5,212.7,-82.0,545,755,0
L,,529461,0.925,0.711,-0.574,52.6,117.9,65.5,566,766,0
L,,529521,-0.269,1.675,0.581,77.2,-123.6,-16.1,843,935,0
L,,529582,-0.339,0.915,0.004,84.7,-38.0,32.9,865,934,0
L,,529641,-0.251,1.034,-0.183,3.4,-35.2,60.2,873,936,0
L,,529731,-0.099,1.069,0.067,8.9,6.4,18.2,876,937,0
L,,529791,-0.141,0.924,-0.030,-2.3,3.6,32.4,867,925,0
L,,529850,-0.100,1.038,0.013,6.9,5.6,19.7,870,928,0
L,,529912,-0.082,1.008,0.006,17.0,14.4,26.1,869,927,0
L,,530001,-0.030,1.077,-0.354,30.4,3.9,46.8,799,865,0
L,,530061,-0.003,1.110,-0.260,31.7,1.3,40.2,763,841,0
L,,530122,-0.075,1.223,-0.079,68.7,11.2,67.4,708,859,0
L,,530181,0.239,1.473,0.103,139.5,31.2,85.4,620,769,0
L,,530271,-0.261,1.625,0.321,216.1,100.5,97.7,381,921,0
L,,530362,-0.223,0.427,0.005,57.8,59.9,-54.1,540,745,0
L,,530452,0.238,0.397,0.283,-135.3,-31.2,-145.3,574,758,0
L,,530511,0.088,0.946,0.203,-210.1,53.3,-175.0,565,752,0
L,,530572,0.218,1.349,0.152,-210.2,67.2,-186.1,563,761,0
L,,530631,0.323,1.893,0.073,-202.7,48.3,-184.7,539,753,0
L,,530692,0.597,1.556,-1.026,-133.7,51.0,-129.7,540,755,0
L,,530751,0.953,1.069,-0.916,46.4,-0.2,77.8,586,754,0
L,,530811,-0.043,2.144,-0.140,71.5,-119.3,0.0,848,936,0
L,,530872,-0.253,0.888,-0.158,94.9,-76.7,8.4,861,928,0
L,,530961,-0.090,0.913,0.002,22.1,27.7,39.3,878,937,0
L,,531021,-0.144,1.107,0.032,20.0,-3.5,15.8,878,933,0
L,,531082,-0.075,1.049,-0.036,34.1,11.9,29.1,871,929,0
L,,531150,-0.122,1.028,-0.068,28.9,5.1,35.8,858,923,0
L,,531232,0.026,0.997,-0.056,11.9,6.1,50.7,827,899,0
L,,531322,-0.046,1.057,-0.052,50.6,10.3,62.4,707,864,0
L,,531381,0.110,1.317,-0.046,99.6,7.7,84.4,704,851,0
L,,531442,-0.101,1.632,0.118,141.4,28.2,105.9,490,805,0
L,,531501,-0.170,2.212,0.191,211.9,64.3,165.9,432,923,0
L,,531561,-0.272,0.139,-0.168,135.9,29.4,-22.1,536,737,0
L,,531622,0.052,0.185,0.105,1.5,13.0,-34.1,571,755,0
L,,531681,-0.053,0.408,0.076,-171.2,-12.8,-115.7,572,763,0
L,,531742,0.039,0.952,0.021,-257.8,21.6,-168.4,578,749,0
L,,531801,0.156,1.612,-0.061,-227.5,-13.5,-195.5,571,762,0
L,,531862,0.216,2.074,-0.244,-238.7,-47.6,-202.7,537,753,0
L,,531921,0.272,1.871,-1.255,-119.7,42.1,-131.3,536,755,0
L,,531982,0.648,1.106,-0.690,61.3,46.6,51.4,564,761,0
L,,532041,0.057,1.577,1.449,162.0,-110.2,48.7,830,935,0
L,,532131,-0.233,0.928,0.175,88.6,-24.0,12.4,869,938,0
L,,532192,-0.064,1.170,0.022,61.2,22.8,55.3,875,938,0
L,,532251,-0.079,1.070,0.025,-8.7,2.3,12.6,878,939,0
L,,532311,-0.136,1.011,0.034,25.9,22.8,13.8,875,934,0
L,,532402,-0.091,1.025,0.172,36.2,29.8,35.7,847,915,0
L,,532461,0.048,1.037,-0.152,19.4,8.7,41.2,822,896,0
L,,532522,-0.053,1.038,-0.035,19.6,1.7,30.1,802,896,0
L,,532582,0.051,1.168,0.059,41.2,11.7,58.5,669,794,0
L,,532641,-0.002,1.315,0.034,83.1,-3.0,82.1,710,878,0
L,,532702,-0.088,1.559,0.114,127.7,22.4,90.3,521,859,0
L,,532761,-0.253,2.069,0.282,219.0,88.9,141.4,421,895,0
L,,532865,-0.268,0.574,1.135,-82.8,-69.2,-4.6,540,725,0
L,,532881,-0.141,0.684,0.321,14.8,30.7,-33.3,564,750,0
L,,532942,0.000,0.336,0.241,-154.0,-38.5,-99.4,566,744,0
L,,533001,-0.019,0.821,0.063,-246.6,15.4,-153.1,581,746,0
L,,533062,0.261,1.139,0.052,-234.8,21.2,-140.3,574,755,0
L,,533122,0.217,1.998,-0.242,-236.5,1.6,-202.8,545,751,0
L,,533181,0.880,1.625,-1.201,-104.7,7.9,-126.2,556,750,0
L,,533241,0.752,0.993,-1.215,63.0,75.3,69.8,590,756,0
L,,533301,0.233,1.893,-0.833,147.9,-16.2,91.9,839,935,0
L,,533362,-0.015,0.873,0.050,108.4,-69.4,-16.2,865,936,0
L,,533421,-0.290,1.124,-0.301,57.4,-1.7,46.6,877,938,0
L,,533482,-0.106,0.979,0.097,20.7,-5.3,18.9,879,939,0
L,,533541,-0.211,0.981,0.011,24.5,18.1,16.3,882,940,0
L,,533601,-0.112,0.954,-0.020,48.3,-1.4,41.5,873,933,0
L,,533662,-0.117,1.006,-0.115,-6.5,16.4,22.6,866,931,0
L,,533721,0.017,0.965,0.035,71.6,-0.1,52.6,854,923,0
L,,533782,-0.027,1.023,0.000,34.6,10.5,44.0,834,919,0
L,,533841,-0.013,1.057,-0.051,46.9,11.1,55.5,742,909,0
L,,533902,-0.052,1.434,0.011,90.7,7.2,82.9,692,833,0
L,,533961,-0.045,1.523,0.172,129.4,37.3,88.6,528,831,0
L,,534030,-0.048,2.265,0.308,235.0,116.1,122.0,438,860,0
L,,534082,-0.188,0.636,0.282,168.4,2.1,-23.9,533,738,0
L,,534141,0.175,0.356,0.247,4.0,65.3,-72.3,576,759,0
L,,534202,0.058,0.435,0.298,-165.0,-14.6,-133.5,583,760,0
L,,534261,0.151,0.983,0.068,-248.4,41.9,-171.7,583,758,0
L,,534322,0.339,1.448,0.074,-240.0,27.3,-185.0,577,759,0
L,,534381,0.619,2.013,-0.223,-202.0,32.7,-176.8,546,755,0
L,,534473,0.962,1.267,-0.997,-209.7,119.5,16.7,587,775,0
L,,534562,-0.036,1.660,-0.132,76.7,-95.4,-7.8,845,933,0
L,,534622,-0.249,0.895,0.097,101.9,-52.0,16.5,859,927,0
L,,534681,-0.163,1.217,-0.219,59.9,12.1,57.3,872,932,0
L,,534742,-0.133,0.972,0.083,-2.3,5.6,18.8,874,934,0
L,,534832,-0.170,1.024,0.034,36.2,20.3,19.2,878,938,0
L,,534892,-0.125,0.975,-0.054,20.3,2.0,35.4,870,929,0
L,,534952,-0.006,0.988,0.050,36.8,-6.9,22.8,853,911,0
L,,535011,-0.129,1.060,0.054,29.4,-6.3,48.4,857,924,0
L,,535071,-0.024,1.059,-0.092,29.1,-0.3,42.4,835,914,0
L,,535131,-0.039,1.135,-0.123,44.7,11.2,53.2,747,880,0
L,,535192,0.091,1.285,0.003,68.1,8.5,69.6,706,879,0
L,,535251,0.087,1.352,0.044,100.0,21.4,85.1,634,863,0
L,,535312,-0.165,1.578,0.298,175.2,40.6,80.1,425,859,0
L,,535372,-0.195,1.472,0.418,199.9,59.1,48.4,466,899,0
L,,535431,-0.280,0.541,0.472,-10.7,4.0,-38.5,578,758,0
L,,535492,0.159,0.266,0.179,-75.4,21.2,-106.8,588,753,0
L,,535551,-0.096,1.040,0.356,-177.2,26.3,-154.3,601,759,0
L,,535642,0.354,1.411,0.142,-236.8,44.3,-186.9,586,754,0
L,,535732,0.550,1.792,-0.633,-184.5,68.8,-181.6,535,753,0
L,,535791,1.276,1.355,-1.165,-18.8,161.6,-6.5,575,764,0
L,,535852,0.097,1.632,0.286,57.3,27.3,-50.8,777,933,0
L,,535912,-0.414,1.459,-0.083,130.6,-73.8,-2.9,854,936,0
L,,535971,-0.472,0.861,0.115,76.2,-31.2,35.9,860,924,0
L,,536032,-0.131,1.130,0.085,35.9,-2.9,60.0,873,935,0
L,,536091,-0.056,1.070,0.026,8.6,-2.1,10.3,875,935,0
L,,536152,-0.192,0.986,-0.029,-6.7,7.5,22.4,875,935,0
L,,536211,-0.141,0.907,0.006,48.0,0.9,77.4,872,931,0
L,,536272,-0.070,0.925,-0.017,33.7,5.1,60.9,863,923,0
L,,536332,-0.032,0.971,-0.001,19.9,12.7,30.8,860,923,0
L,,536392,-0.073,1.017,-0.067,16.7,7.4,31.8,818,880,0
L,,536452,0.028,1.103,-0.077,47.8,-1.2,43.4,793,875,0
L,,536511,-0.119,1.129,-0.122,56.2,4.4,59.0,700,770,0
L,,536572,0.114,1.354,0.017,96.3,19.9,81.3,643,817,0
L,,536631,-0.101,1.596,0.532,78.8,99.2,98.0,535,848,0
L,,536692,-0.319,1.646,0.496,222.6,108.2,99.8,470,926,0
L,,536751,0.364,-0.587,-0.100,112.8,146.7,-28.7,642,843,0
L,,536812,0.119,0.094,0.255,0.9,30.2,-105.8,671,889,0
L,,536872,0.132,0.504,0.363,-132.0,5.3,-170.3,601,766,0
L,,536932,0.302,0.935,0.278,-203.0,66.7,-192.1,600,772,0
L,,536992,0.309,1.403,0.125,-232.4,48.0,-202.8,589,768,0
L,,537051,0.530,2.516,-0.271,-218.4,96.7,-201.5,558,754,0
L,,537112,0.347,1.633,-1.289,-109.6,174.5,-104.6,576,759,0
L,,537171,1.081,1.349,-0.505,59.7,75.7,81.1,597,769,0
L,,537232,0.366,1.675,0.386,115.0,-56.5,5.8,841,929,0
L,,537291,-0.137,0.985,-0.240,78.8,-35.3,42.0,867,935,0
L,,537352,-0.140,1.098,-0.023,19.6,19.1,57.9,869,932,0
L,,537420,-0.087,1.067,0.089,9.8,22.1,5.0,874,934,0
L,,537501,-0.188,1.010,-0.078,23.2,11.0,27.5,878,935,0
L,,537562,-0.112,0.982,-0.080,21.4,9.4,38.6,874,934,0
L,,537622,-0.046,0.995,0.001,37.6,3.1,50.0,864,930,0
L,,537682,-0.099,1.110,0.014,5.4,22.7,39.3,808,898,0
L,,537742,0.067,1.013,0.037,39.5,21.9,56.4,699,878,0
L,,537801,0.139,1.160,-0.061,68.7,-3.2,64.0,689,885,0
L,,537862,-0.061,1.501,-0.011,104.5,10.1,92.6,643,903,0
L,,537921,-0.221,1.726,0.305,203.2,33.1,83.1,422,927,0
L,,537982,0.002,1.347,0.359,205.4,71.8,86.3,432,923,0
L,,538041,-0.235,0.431,-0.204,-21.9,-20.3,-5.8,512,714,0
L,,538102,-0.033,-0.068,0.094,-74.5,30.8,-93.2,563,752,0
L,,538162,0.085,0.716,0.301,-191.6,63.7,-154.8,568,749,0
L,,538222,0.413,1.111,0.112,-225.4,66.2,-182.0,578,758,0
L,,538282,0.375,1.607,-0.024,-240.1,-13.3,-191.9,561,758,0
L,,538341,0.193,2.097,-0.679,-208.0,29.4,-171.6,521,753,0
L,,538402,1.318,1.658,-1.082,-37.5,184.1,-46.9,538,770,0
L,,538461,0.126,1.911,0.004,134.4,31.4,-58.3,652,782,0
L,,538522,-0.226,1.379,0.203,184.5,-87.3,-5.2,846,935,0
L,,538582,-0.270,1.295,-0.714,135.1,13.7,61.7,869,931,0
L,,538642,-0.008,0.985,-0.061,64.8,26.3,37.7,876,936,0
L,,538702,0.013,1.065,-0.029,18.5,7.1,40.8,881,941,0
L,,538762,-0.098,1.061,-0.124,20.8,11.4,24.9,868,931,0
L,,538822,-0.104,0.968,-0.053,26.1,-4.5,40.6,861,926,0
L,,538881,-0.188,1.550,0.005,-0.8,45.9,20.9,828,898,0
L,,538942,-0.060,1.090,-0.046,29.6,3.7,34.2,804,898,0
L,,539001,0.099,1.026,-0.025,42.0,27.9,46.0,681,825,0
L,,539062,0.054,1.186,-0.023,49.4,11.9,62.5,618,736,0
L,,539122,-0.014,1.478,0.021,98.4,6.7,93.1,651,835,0
L,,539182,-0.113,1.716,0.280,158.9,36.6,125.7,439,876,0
L,,539242,0.057,1.799,0.287,255.8,61.3,120.8,426,863,0
L,,539302,0.330,-0.319,-0.913,7.7,3.2,76.8,546,740,0
L,,539362,-0.100,-0.040,-0.017,-62.0,-7.9,-52.7,561,751,0
L,,539421,-0.132,0.594,0.141,-208.8,26.1,-114.2,583,760,0
L,,539482,0.448,0.940,0.141,-300.9,13.8,-168.4,590,758,0
L,,539541,0.308,1.301,0.072,-218.1,7.4,-191.8,576,764,0
L,,539602,0.386,2.102,-0.401,-242.5,-97.7,-192.0,523,753,0
L,,539662,0.868,1.726,-2.048,-147.6,34.3,-106.6,536,757,0
L,,539722,0.699,1.917,-1.404,111.8,7.8,-42.7,649,773,0
L,,539782,-0.266,1.106,0.057,193.6,-28.1,-31.5,855,933,0
L,,539842,-0.506,1.177,-1.425,134.3,-4.5,22.6,868,934,0
L,,539902,-0.059,0.955,0.019,44.3,6.7,35.6,868,930,0
L,,539961,-0.148,0.982,0.043,36.2,-4.2,24.7,876,934,0
L,,540022,-0.108,0.974,-0.039,33.1,11.5,34.6,865,927,0
L,,540082,-0.086,1.023,0.041,25.2,-3.3,39.2,857,923,0
L,,540142,0.002,1.045,-0.082,18.2,10.7,32.7,822,898,0
L,,540210,-0.093,1.053,-0.046,61.1,5.5,39.8,761,875,0
L,,540262,0.072,0.796,-0.313,17.7,7.3,100.1,688,860,0
L,,540322,0.039,1.179,-0.002,62.7,-6.6,65.2,668,851,0
L,,540382,-0.050,1.486,0.024,117.1,-3.2,92.3,622,888,0
L,,540442,-0.063,1.649,0.372,170.1,31.8,98.1,416,883,0
L,,540501,-0.150,1.451,0.387,265.9,45.3,71.4,414,818,0
L,,540562,-0.342,0.537,0.357,29.3,58.0,-18.7,540,750,0
L,,540625,0.184,0.252,0.141,-97.3,29.8,-105.7,573,759,0
L,,540682,0.082,0.621,0.021,-194.0,-31.0,-153.3,572,754,0
L,,540742,0.124,1.127,-0.064,-252.9,0.9,-187.9,575,760,0
L,,540802,0.156,1.736,-0.157,-257.6,-24.2,-205.3,552,756,0
L,,540862,0.543,1.793,-0.906,-182.5,22.0,-212.1,538,759,0
L,,540922,1.270,1.488,-1.604,31.9,115.5,-1.0,566,773,0
L,,540982,0.857,1.816,1.447,53.9,-110.8,79.8,834,925,0
L,,541041,0.137,0.965,-0.014,139.1,-74.6,13.6,864,931,0
L,,541102,-0.212,0.996,0.144,38.2,33.6,84.3,873,936,0
L,,541192,-0.169,1.080,-0.012,18.5,2.8,41.2,874,933,0
L,,541251,-0.075,0.953,0.042,21.8,13.4,36.3,872,932,0
L,,541312,-0.060,1.022,0.010,13.1,-7.0,30.8,863,931,0
L,,541371,-0.026,0.953,-0.088,13.0,3.9,20.4,851,925,0
L,,541432,-0.067,1.058,0.004,17.0,12.8,35.9,827,925,0
L,,541492,-0.002,1.137,-0.014,27.7,33.8,33.9,724,880,0
L,,541552,0.076,1.187,-0.036,75.1,13.3,62.6,633,809,0
L,,541612,-0.022,1.454,0.048,111.0,18.5,87.6,657,908,0
L,,541672,-0.236,1.644,0.257,159.6,30.2,97.3,432,919,0
L,,541732,-0.147,1.526,0.181,222.0,40.3,91.2,443,925,0
L,,541791,0.122,0.570,-0.580,40.5,67.9,24.6,574,752,0
L,,541852,0.083,-0.001,0.150,-63.1,61.3,-96.3,585,758,0
L,,541912,0.219,0.602,0.234,-172.0,30.5,-168.2,595,760,0
L,,541972,0.184,1.101,0.258,-226.3,71.8,-201.4,600,769,0
L,,542032,0.481,1.574,0.197,-221.2,47.2,-206.0,584,763,0
L,,542092,0.854,2.116,-0.660,-175.2,37.8,-194.3,548,750,0
L,,542152,1.384,1.562,-1.391,-42.2,107.9,-28.6,586,769,0
L,,542212,-0.919,-0.200,1.206,47.3,-68.6,5.8,821,933,0
L,,542272,0.143,1.229,0.365,98.6,-70.6,42.1,855,931,0
L,,542332,-0.328,1.059,-0.935,122.5,2.3,41.0,875,935,0
L,,542392,0.010,1.029,0.012,23.5,10.7,34.7,871,931,0
L,,542452,-0.088,1.024,-0.013,19.8,-2.8,40.4,844,900,0
L,,542512,-0.050,1.031,-0.103,31.7,11.2,14.6,869,931,0
L,,542572,-0.080,0.991,-0.066,22.9,-1.6,30.7,853,917,0
L,,542632,-0.048,0.980,-0.133,23.3,6.7,30.3,834,903,0
L,,542692,-0.023,1.063,-0.050,30.1,15.5,35.3,806,891,0
L,,542752,-0.055,1.045,0.033,38.0,11.5,42.6,658,774,0
L,,542812,0.060,1.190,-0.007,62.4,14.4,61.4,682,877,0
L,,542872,-0.007,1.422,0.004,87.7,19.5,79.5,642,870,0
L,,542932,-0.223,1.563,0.167,146.0,54.3,76.8,398,754,0
L,,542992,0.007,1.800,0.110,233.7,133.6,117.7,423,900,0
L,,543052,0.547,-0.001,-0.045,200.6,130.9,-49.7,547,736,0
L,,543112,0.317,0.047,0.254,-8.9,23.5,-83.6,557,745,0
L,,543172,0.158,0.480,0.129,-139.4,2.1,-171.7,560,736,0
L,,543232,0.280,1.081,0.205,-196.7,82.4,-194.8,580,748,0
L,,543292,0.457,1.403,0.288,-210.4,45.8,-181.0,576,754,0
L,,543352,0.264,1.902,-0.086,-209.4,62.7,-191.5,548,739,0
L,,543412,0.554,1.510,-0.721,-107.6,129.7,-112.9,566,757,0
L,,543510,-0.375,0.199,0.872,85.6,-13.6,40.6,814,934,0
L,,543562,-0.237,0.866,0.348,121.7,-101.9,36.0,852,931,0
L,,543622,-0.242,0.788,-0.005,85.5,9.0,70.2,872,936,0
L,,543682,-0.126,0.963,0.064,36.8,15.8,60.8,875,933,0
L,,543742,-0.107,1.055,-0.043,2.1,3.6,12.1,875,933,0
L,,543802,-0.167,0.955,-0.057,24.3,19.9,6.0,876,934,0
L,,543892,-0.094,1.023,-0.070,15.3,6.1,23.1,871,932,0
L,,543952,-0.105,1.036,-0.058,23.0,5.4,35.2,864,932,0
L,,544011,-0.119,1.016,-0.100,22.8,19.6,32.4,836,925,0
L,,544072,-0.038,1.086,-0.020,41.0,28.4,43.1,734,901,0
L,,544132,-0.042,1.130,0.050,73.3,5.8,70.2,654,864,0
L,,544222,-0.089,1.416,0.036,132.0,48.2,81.6,443,891,0
L,,544282,-0.207,1.989,0.155,219.8,148.5,126.3,441,901,0
L,,544342,0.176,0.939,-0.203,170.4,142.5,27.6,515,716,0
L,,544402,0.196,0.455,0.772,84.2,95.2,-61.4,576,753,0
L,,544462,0.133,0.437,0.228,-95.9,9.1,-136.1,571,736,0
L,,544522,0.050,0.940,0.310,-219.7,41.1,-179.2,588,757,0
L,,544612,0.181,1.575,0.036,-216.7,24.2,-188.2,584,765,0
L,,544672,0.386,1.877,-0.188,-203.4,35.2,-207.6,559,758,0
L,,544732,1.584,1.526,-0.990,-55.2,186.5,-53.6,582,763,0
L,,544792,0.246,1.841,0.075,44.8,6.7,-24.9,763,931,0
L,,544895,-0.298,0.841,-0.146,60.9,-55.2,16.5,870,935,0
L,,544912,-0.361,0.919,0.037,68.6,-3.2,39.3,869,935,0
L,,544972,-0.165,0.975,0.173,45.4,9.2,43.4,876,937,0
L,,545076,-0.199,1.050,-0.016,32.3,23.3,19.8,879,935,0
L,,545092,-0.194,0.971,-0.011,32.1,21.9,25.3,876,932,0
L,,545152,-0.112,0.992,-0.035,14.9,9.1,30.0,878,934,0
L,,545212,-0.141,1.021,-0.059,1.4,14.4,20.2,870,931,0
L,,545272,-0.108,1.112,-0.085,45.2,17.9,48.0,806,874,0
L,,545333,-0.096,1.104,-0.138,44.3,9.3,57.1,705,829,0
L,,545422,-0.040,1.339,0.041,80.2,16.1,79.8,681,869,0
L,,545525,-0.332,1.992,0.633,162.3,83.0,136.8,432,911,0
L,,545542,0.122,1.970,0.250,200.6,85.3,126.9,432,915,0
L,,545602,-0.277,0.047,-0.243,101.9,5.9,-45.9,641,922,0
L,,545663,-0.098,0.465,-0.174,22.0,105.0,-42.3,578,751,0
L,,545722,0.105,0.474,0.180,-176.2,31.2,-104.6,594,755,0
L,,545782,-0.144,0.994,0.094,-220.4,16.2,-150.2,597,755,0
L,,545842,0.297,1.444,0.015,-211.9,12.1,-201.1,592,761,0
L,,545902,0.252,2.061,-0.219,-223.3,-30.2,-215.9,541,751,0
L,,545962,0.934,1.740,-1.266,-161.6,82.6,-93.9,570,767,0
L,,546022,0.859,1.109,-0.783,43.5,41.0,80.5,641,779,0
L,,546083,-0.625,1.922,0.419,176.7,-35.6,-10.3,852,934,0
L,,546142,-0.383,0.866,0.166,89.0,-40.4,23.7,871,934,0
L,,546203,-0.222,0.962,0.259,7.2,-3.5,53.4,875,935,0
L,,546305,-0.190,0.937,0.046,42.1,13.1,30.0,875,934,0
L,,546322,-0.099,1.026,0.027,33.6,22.8,27.7,879,935,0
L,,546390,-0.129,0.961,-0.051,29.8,1.1,47.8,876,935,0
L,,546442,-0.049,1.034,0.075,-0.2,15.6,34.3,864,925,0
L,,546502,0.020,1.126,-0.112,33.7,7.6,44.4,823,898,0
L,,546562,-0.014,1.054,-0.041,57.4,2.9,49.4,696,828,0
L,,546623,0.116,1.288,0.034,66.0,-9.3,69.6,676,861,0
L,,546682,-0.032,1.479,0.074,107.7,16.8,91.2,564,889,0
L,,546772,0.213,1.909,0.226,241.7,73.0,122.4,437,921,0
L,,546836,0.346,-0.123,-0.542,92.6,66.7,8.4,630,916,0
L,,546892,0.049,0.045,0.036,-70.8,24.0,-54.1,567,759,0
L,,546953,0.035,0.508,0.203,-188.4,28.9,-115.5,560,735,0
L,,547012,-0.101,1.037,0.171,-239.2,37.8,-180.5,578,756,0
L,,547072,0.355,1.645,-0.021,-252.9,-35.4,-204.0,553,750,0
L,,547132,0.236,2.086,-1.022,-172.8,-4.6,-218.7,554,748,0
L,,547222,1.058,1.157,-0.922,183.7,35.9,3.9,772,933,0
L,,547312,0.296,1.265,0.414,156.9,-24.7,38.9,862,928,0
L,,547373,-0.415,0.867,-0.128,53.4,38.5,75.6,874,935,0
L,,547462,-0.138,0.965,0.038,28.3,2.1,27.7,876,935,0
L,,547522,-0.098,0.911,0.001,42.1,8.6,78.1,871,933,0
L,,547583,-0.089,1.016,-0.011,35.1,-2.1,39.2,864,931,0
L,,547672,0.031,1.037,-0.065,37.7,12.8,33.8,813,918,0
L,,547732,0.085,1.057,0.009,51.3,14.4,48.4,734,908,0
L,,547792,0.044,1.261,0.016,55.7,4.2,75.6,651,807,0
L,,547852,-0.093,1.599,0.008,109.1,7.9,109.4,579,823,0
L,,547913,-0.421,1.816,0.570,204.8,61.8,126.7,425,875,0
L,,548002,0.873,-0.323,-0.595,70.1,58.3,22.0,555,736,0
L,,548062,0.308,-0.021,0.060,-8.8,3.7,-54.8,573,759,0
L,,548123,-0.089,0.360,0.311,-147.4,-25.9,-109.4,587,763,0
L,,548182,0.225,0.922,0.181,-248.7,36.4,-192.4,593,772,0
L,,548243,0.292,1.369,0.123,-214.6,16.8,-194.4,580,759,0
L,,548302,0.342,2.316,-0.442,-248.4,-5.6,-214.8,539,752,0
L,,548362,0.893,1.795,-1.389,-147.9,128.2,-108.0,578,763,0
L,,548422,0.907,1.910,0.038,188.7,8.2,-42.0,781,933,0
L,,548482,-0.238,1.389,-0.150,189.0,-86.8,-11.3,858,936,0
L,,548542,-0.533,0.896,-0.158,92.7,-38.1,46.0,867,933,0
L,,548602,-0.144,0.923,0.150,36.3,21.2,56.4,852,911,0
L,,548663,-0.194,1.148,0.048,34.5,-2.8,25.9,875,933,0
L,,548722,-0.129,1.042,0.015,33.8,23.7,15.5,875,933,0
L,,548783,-0.068,0.970,-0.010,3.2,12.5,35.7,874,932,0
L,,548842,-0.047,1.110,-0.033,5.3,12.2,29.1,864,928,0
L,,548902,0.017,1.051,-0.012,43.9,9.5,36.9,848,921,0
L,,548962,-0.014,1.075,-0.045,57.6,9.8,38.4,734,821,0
L,,549022,0.000,1.323,-0.052,78.6,11.2,65.4,688,848,0
L,,549083,0.009,1.426,0.081,82.0,23.3,79.9,599,760,0
L,,549142,-0.228,1.624,0.097,142.3,64.3,89.5,394,828,0
L,,549232,-0.186,1.282,-0.364,414.8,65.1,44.4,471,904,0
L,,549292,-0.047,0.341,1.154,-82.6,-43.7,-83.8,644,891,0
L,,549352,0.030,0.253,0.268,-75.1,-32.1,-103.2,644,868,0
L,,549413,0.187,0.910,0.377,-183.6,41.3,-164.0,659,882,0
L,,549472,0.276,1.216,0.231,-226.3,53.5,-193.6,595,764,0
L,,549533,0.162,1.809,0.013,-223.0,21.2,-208.0,556,741,0
L,,549592,0.462,1.668,-0.421,-186.9,53.5,-158.9,570,753,0
L,,549652,1.415,1.188,-0.956,33.1,110.8,39.5,600,771,0
L,,549712,-0.660,0.235,1.212,46.2,45.0,21.7,831,931,0
L,,549772,0.030,1.268,0.028,202.5,-67.6,-8.2,864,936,0
L,,549840,-0.301,0.708,-0.127,28.2,-26.0,74.2,876,937,0
L,,549892,-0.075,0.937,0.022,21.4,14.1,46.6,877,935,0
L,,549953,-0.181,1.009,-0.002,6.1,14.9,14.6,878,935,0
L,,550012,-0.054,0.972,-0.243,19.3,4.1,23.5,877,936,0
L,,550116,-0.065,1.012,-0.051,21.2,2.1,39.3,865,931,0
L,,550132,-0.073,1.071,-0.009,23.6,7.2,37.1,858,932,0
L,,550192,-0.047,1.043,-0.083,34.0,4.0,40.7,831,926,0
L,,550283,0.068,1.103,0.001,51.1,16.5,56.0,687,859,0
L,,550342,-0.054,1.398,-0.010,91.5,17.6,83.0,656,875,0
L,,550402,-0.166,1.555,0.103,145.8,49.1,96.3,434,862,0
L,,550462,-0.112,2.054,0.179,226.1,149.8,137.4,439,906,0
L,,550522,0.082,0.308,-0.240,181.3,107.1,-38.8,490,663,0
L,,550613,0.193,0.248,0.231,-65.8,-17.9,-118.7,571,752,0
L,,550672,0.207,0.694,0.378,-137.6,6.5,-137.6,505,656,0
L,,550732,0.436,1.251,0.199,-225.4,52.5,-181.7,586,759,0
L,,550792,0.420,1.562,-0.150,-226.1,14.0,-177.9,570,759,0
L,,550852,0.269,1.872,-0.278,-172.2,47.4,-146.5,567,759,0
L,,550913,0.947,1.513,-0.799,-53.6,223.0,-65.1,588,769,0
L,,551002,-0.321,0.631,1.524,72.8,22.6,42.7,828,933,0
L,,551062,0.040,1.498,0.294,108.2,-25.8,-13.0,863,935,0
L,,551123,-0.014,1.217,-1.253,84.2,2.5,50.6,871,937,0
L,,551182,-0.179,0.989,-0.183,29.3,17.7,44.3,877,936,0
L,,551243,-0.251,1.035,-0.058,-9.1,17.0,2.9,877,932,0
L,,551333,-0.079,0.909,-0.135,16.5,3.9,42.2,867,931,0
L,,551392,-0.085,1.001,-0.061,13.5,7.0,45.0,854,929,0
L,,551453,-0.110,1.066,-0.055,-17.7,18.6,21.1,819,923,0
L,,551512,-0.080,1.015,-0.102,33.7,7.2,24.3,750,897,0
L,,551573,-0.035,1.119,-0.054,48.9,10.2,39.2,612,791,0
L,,551632,-0.068,1.267,-0.018,84.2,10.2,64.6,600,785,0
L,,551693,-0.123,1.504,-0.013,129.0,35.0,87.9,425,753,0
L,,551752,-0.455,1.973,0.566,189.7,106.7,122.1,454,918,0
L,,551842,0.638,-0.588,-0.635,121.8,181.2,4.6,525,744,0
L,,551903,0.341,-0.045,-0.082,-32.9,32.2,-80.7,512,702,0
L,,551993,0.128,0.702,0.243,-177.6,55.5,-141.4,575,770,0
L,,552052,0.361,1.203,0.100,-231.5,70.5,-181.3,577,766,0
L,,552113,0.130,1.537,0.036,-227.6,-46.4,-175.0,556,756,0
L,,552172,0.142,1.571,-0.314,-196.1,-10.9,-173.1,563,765,0
L,,552233,1.342,1.671,-1.011,-51.1,217.8,-64.5,555,776,0
L,,552292,0.516,0.830,-0.306,61.8,37.2,76.8,592,776,0
L,,552382,-0.164,1.159,-0.306,185.4,-85.4,-18.2,852,930,0
L,,552443,-0.333,0.801,0.087,101.5,-22.9,50.8,868,933,0
L,,552502,-0.009,1.050,-0.036,39.5,-10.6,38.9,875,933,0
L,,552592,-0.176,0.972,-0.031,3.3,9.1,3.0,872,929,0
L,,552653,-0.015,0.795,-0.119,64.7,-20.5,51.8,864,928,0
L,,552712,-0.067,1.112,-0.019,23.5,-2.7,39.0,864,934,0
L,,552772,-0.043,0.967,-0.065,24.9,15.3,27.5,846,926,0
L,,552840,0.082,1.009,-0.017,33.0,4.2,29.1,771,899,0
L,,552892,0.048,1.110,-0.066,43.5,14.9,42.0,716,879,0
L,,552983,0.070,1.381,0.051,78.1,7.7,86.5,602,823,0
L,,553042,-0.095,1.667,0.140,115.6,31.9,102.6,428,851,0
L,,553102,0.252,1.916,0.278,194.1,76.6,144.9,391,836,0
L,,553163,-0.398,0.803,-0.132,105.2,-66.0,-23.8,536,739,0
L,,553222,-0.109,0.306,-0.065,4.5,10.6,-32.6,560,748,0
L,,553285,0.042,0.234,0.094,-166.7,9.8,-101.9,584,761,0
L,,553342,0.092,0.692,0.176,-237.7,36.3,-116.7,588,764,0
L,,553403,0.303,1.145,0.123,-248.0,47.1,-192.0,594,767,0
L,,553462,0.301,1.883,-0.047,-238.5,-21.2,-204.4,568,757,0
L,,553523,0.560,1.834,-1.124,-145.6,2.3,-143.8,550,761,0
L,,553583,0.764,2.049,-1.455,111.9,115.7,62.9,572,776,0
L,,553672,-0.525,1.738,-0.051,87.1,-153.8,-51.3,851,936,0
L,,553733,-0.180,0.884,0.052,103.8,-27.3,25.9,872,934,0
L,,553792,-0.041,1.094,0.066,66.2,20.0,56.8,877,939,0
L,,553852,-0.081,1.106,0.037,31.2,2.5,20.9,881,937,0
L,,553943,-0.074,0.925,-0.059,41.4,8.1,33.7,871,932,0
L,,554033,0.010,1.026,-0.141,59.5,12.2,35.6,854,924,0
L,,554092,-0.051,1.176,-0.007,53.2,4.3,55.5,811,921,0
L,,554153,0.113,1.194,0.056,59.0,17.2,52.7,718,900,0
L,,554212,0.131,1.311,-0.029,61.2,-2.1,71.8,665,871,0
L,,554273,-0.097,1.499,0.118,108.9,16.3,92.3,520,888,0
L,,554333,-0.179,2.030,0.282,210.7,40.3,158.5,456,928,0
L,,554392,0.091,1.525,-0.287,139.8,-28.9,139.3,444,856,0
L,,554453,-0.430,0.439,0.752,-51.8,-34.0,14.7,593,859,0
L,,554512,-0.049,0.165,0.222,-147.9,18.6,-77.2,576,752,0
L,,554602,-0.187,1.231,-0.001,-282.1,39.4,-209.7,587,760,0
L,,554663,0.193,1.471,-0.053,-263.8,-11.4,-198.7,579,766,0
L,,554722,0.195,2.074,-0.282,-192.6,24.0,-235.9,553,765,0
L,,554783,1.435,1.790,-1.335,-115.0,115.2,-123.8,557,769,0
L,,554842,1.165,0.938,-0.752,63.9,32.1,94.4,588,775,0
L,,554932,-0.064,1.281,0.612,105.3,-85.1,25.4,854,926,0
L,,554993,-0.495,0.932,-1.030,66.5,-34.6,71.0,873,937,0
L,,555051,0.090,0.894,0.040,35.2,16.8,40.8,872,931,0
L,,555113,-0.141,0.998,0.056,-25.0,29.0,-4.4,871,930,0
L,,555172,-0.081,0.958,0.007,35.6,12.6,37.0,868,931,0
L,,555233,-0.113,1.120,0.009,20.7,8.5,32.3,853,931,0
L,,555292,0.025,1.012,-0.042,37.5,14.0,25.4,828,925,0
L,,555353,-0.098,1.030,-0.054,42.4,23.7,34.0,759,915,0
L,,555413,0.110,1.131,-0.043,65.0,18.9,53.6,692,879,0
L,,555472,0.000,1.360,0.040,95.2,10.1,82.9,638,846,0
L,,555533,-0.209,1.551,0.113,158.2,45.0,108.2,414,828,0
L,,555592,0.005,2.034,0.116,236.0,128.2,130.1,420,878,0
L,,555653,0.718,-0.130,-0.441,173.7,154.6,-20.6,548,747,0
L,,555712,0.231,0.040,0.047,-3.6,-12.9,-88.7,582,761,0
L,,555773,0.092,0.509,0.350,-112.7,11.5,-156.6,585,765,0
L,,555833,0.262,1.054,0.292,-234.0,80.2,-204.4,597,773,0
L,,555893,0.439,1.602,0.203,-232.6,40.8,-223.2,594,772,0
L,,555953,0.306,2.168,-0.090,-227.5,15.4,-192.2,545,759,0
L,,556012,1.082,1.864,-1.462,-110.0,129.1,-90.7,564,768,0
L,,556072,0.287,2.125,-0.173,1.2,247.3,63.8,642,779,0
L,,556132,-0.728,2.266,-0.101,169.4,-108.4,-44.1,856,935,0
L,,556222,-0.195,1.156,-0.065,63.8,35.7,85.9,873,935,0
L,,556291,-0.146,1.017,0.013,19.1,11.4,43.2,878,936,0
L,,556342,-0.230,1.090,0.022,14.1,21.7,19.5,875,935,0
L,,556403,-0.104,0.944,-0.076,47.9,0.7,43.4,857,927,0
L,,556462,-0.003,1.031,-0.076,15.2,15.7,33.8,843,928,0
L,,556566,0.049,1.016,-0.094,35.2,18.9,32.3,767,910,0
L,,556583,-0.023,1.005,-0.077,48.4,20.1,41.9,754,925,0
L,,556672,0.096,1.127,-0.031,59.0,3.0,63.8,624,833,0
L,,556733,-0.149,1.561,-0.039,111.3,11.2,101.8,543,862,0
L,,556792,-0.174,1.731,0.506,176.0,59.6,105.7,412,889,0
L,,556853,-0.127,1.276,0.284,269.4,98.2,58.3,414,812,0
L,,556913,-0.085,0.763,0.327,-50.3,-3.7,-70.0,556,760,0
L,,556972,0.146,-0.074,0.238,-92.8,-8.4,-83.9,590,745,0
L,,557076,0.400,0.896,0.309,-209.0,87.0,-161.6,585,764,0
L,,557092,0.468,1.106,0.154,-203.9,70.6,-203.7,592,769,0
L,,557153,0.069,1.571,-0.061,-200.2,-25.9,-224.9,566,757,0
L,,557212,0.558,2.496,-0.580,-181.5,112.7,-197.0,532,763,0
L,,557273,1.679,1.705,-1.145,-40.1,217.7,-79.3,555,775,0
L,,557333,0.487,0.173,-0.122,82.8,102.2,15.8,796,933,0
L,,557393,-0.134,0.945,0.411,133.4,-104.0,56.2,860,933,0
L,,557453,-0.201,1.116,-1.326,57.2,3.7,57.6,872,932,0
L,,557512,-0.123,0.863,-0.016,26.0,20.8,43.8,874,931,0
L,,557573,-0.159,1.124,-0.047,15.9,9.7,4.6,876,933,0
L,,557632,-0.172,0.932,-0.140,25.0,13.0,29.0,871,935,0
L,,557693,-0.074,0.965,-0.052,31.5,3.0,39.4,863,932,0
L,,557752,-0.101,1.018,-0.048,12.3,8.6,22.0,850,928,0
L,,557813,-0.147,1.061,-0.110,32.0,25.2,27.8,817,920,0
L,,557873,-0.002,1.080,-0.063,42.8,25.8,37.8,690,882,0
L,,557933,-0.074,1.221,-0.123,74.6,22.2,57.1,681,869,0
L,,557993,-0.050,1.431,0.095,103.9,29.3,83.0,556,805,0
L,,558052,-0.166,1.613,0.439,177.2,67.9,82.6,437,914,0
L,,558143,-0.139,1.314,-0.074,160.1,-6.0,-33.6,569,875,0
L,,558203,0.401,0.359,0.417,31.2,67.6,-85.3,656,914,0
L,,558262,0.231,0.648,0.330,-137.1,56.8,-170.3,575,822,0
L,,558323,0.472,0.954,0.422,-210.1,91.9,-188.4,531,717,0
L,,558382,0.728,1.374,0.385,-230.7,39.0,-192.7,543,735,0
L,,558443,0.505,2.003,0.034,-249.7,7.4,-148.6,525,744,0
L,,558533,0.946,1.495,-1.155,10.7,225.5,13.8,540,771,0
L,,558592,-0.045,0.363,1.193,90.6,-31.7,19.2,830,932,0
L,,558653,0.065,1.405,0.513,94.0,-44.5,68.1,862,934,0
L,,558712,-0.354,0.794,0.408,-23.1,-15.7,49.7,873,934,0
L,,558773,0.010,0.881,0.108,29.9,8.6,23.5,876,935,0
L,,558833,-0.124,1.052,-0.019,21.6,-5.6,16.5,876,935,0
L,,558893,-0.087,0.928,0.043,22.1,14.1,25.4,874,933,0
L,,558953,-0.054,0.943,0.023,8.2,3.7,49.3,868,933,0
L,,559013,0.002,1.002,-0.027,14.3,13.4,33.3,843,920,0
L,,559073,-0.032,1.108,-0.079,51.8,11.0,44.4,807,905,0
L,,559141,0.180,1.013,0.041,41.5,21.6,53.5,678,846,0
L,,559223,-0.015,1.499,-0.005,99.1,10.2,92.0,650,825,0
L,,559313,-0.408,1.696,0.196,210.9,79.6,132.0,400,897,0
L,,559373,0.089,1.129,0.137,247.5,153.3,-17.9,573,833,0
L,,559433,-0.457,0.846,0.890,34.5,-35.9,-29.5,667,874,0
L,,559493,-0.066,0.338,0.529,-153.0,-3.9,-112.5,621,772,0
L,,559553,0.178,1.012,0.167,-217.0,66.0,-170.8,699,918,0
L,,559647,0.671,1.657,-0.021,-188.1,-65.5,-209.3,603,768,0
L,,559703,0.329,1.835,-0.412,-203.7,-146.3,-165.1,568,769,0
L,,559763,0.317,1.586,-1.614,-108.5,97.0,-110.3,577,773,0
L,,559853,-1.296,0.012,2.714,39.6,-167.4,0.4,826,920,0
L,,559913,-0.192,1.248,0.510,177.3,-26.6,27.3,864,932,0
L,,559973,-0.206,0.829,-0.241,-46.4,-63.2,99.5,875,935,0
L,,560063,-0.068,1.079,-0.058,41.9,9.9,26.2,876,932,0
L,,560123,-0.176,0.964,0.014,40.1,28.4,34.0,871,934,0
L,,560183,-0.106,0.993,-0.031,13.7,5.3,34.7,821,883,0
L,,560243,-0.028,1.016,0.000,28.0,3.5,44.6,811,884,0
L,,560303,-0.073,1.235,-0.214,61.3,2.2,48.5,720,817,0
L,,560363,0.158,1.200,0.070,48.7,7.3,64.0,669,850,0
L,,560422,0.105,1.361,-0.054,95.7,-4.9,86.1,631,827,0
L,,560483,-0.131,1.581,0.136,116.7,19.0,110.1,454,787,0
L,,560573,-0.325,1.567,0.266,203.5,43.8,116.2,434,922,0
L,,560632,0.274,0.392,-0.305,25.1,26.5,66.9,636,919,0
L,,560693,0.089,0.092,0.052,-56.5,-2.5,-70.5,661,919,0
L,,560752,0.097,0.578,0.244,-177.3,0.0,-134.6,670,923,0
L,,560813,0.225,1.239,0.096,-221.8,28.0,-166.3,680,920,0
L,,560873,0.272,1.637,0.062,-256.6,-48.3,-192.9,664,928,0
L,,560962,0.588,1.721,-0.819,-161.7,47.1,-159.0,560,763,0
L,,561023,0.702,1.540,-0.776,50.0,163.5,109.0,579,774,0
L,,561083,1.120,1.865,0.916,189.4,5.7,168.4,843,929,0
L,,561143,0.151,1.321,0.055,115.1,-69.4,9.1,870,934,0
L,,561203,-0.046,1.158,-0.268,9.8,-3.7,47.1,876,935,0
L,,561263,-0.101,0.932,0.073,20.3,15.1,20.3,874,932,0
L,,561323,-0.213,1.015,-0.006,27.0,21.1,27.2,880,937,0
L,,561383,-0.051,0.933,-0.044,21.4,12.3,25.2,870,927,0
L,,561486,0.030,0.989,-0.126,72.3,6.9,53.2,850,921,0
L,,561502,-0.077,1.063,0.028,49.9,-1.9,53.4,843,922,0
L,,561593,-0.001,1.086,-0.005,47.1,14.5,52.5,661,821,0
L,,561653,0.126,1.255,0.034,74.2,10.0,67.5,613,754,0
L,,561712,-0.152,1.505,-0.031,99.8,13.0,115.0,588,870,0
L,,561773,-0.251,1.871,0.447,170.1,31.3,98.2,427,893,0
L,,561833,-0.321,1.369,0.406,202.5,69.0,136.0,445,928,0
L,,561893,0.079,0.524,0.527,10.7,-38.0,22.3,635,928,0
L,,561953,0.006,0.046,0.003,-94.9,-1.5,-108.6,665,928,0
L,,562013,-0.033,0.626,0.152,-182.4,30.5,-163.1,666,917,0
L,,562073,0.431,1.118,0.131,-206.3,77.0,-212.3,591,774,0
L,,562133,0.509,1.659,0.278,-225.4,-30.0,-211.0,571,772,0
L,,562193,0.292,2.197,-0.458,-212.3,-49.2,-174.0,577,771,0
L,,562252,0.998,1.478,-1.091,-26.8,142.3,-48.7,573,780,0
L,,562313,0.477,0.791,-0.211,44.0,29.4,8.9,810,934,0
L,,562373,0.120,0.688,0.338,110.1,-33.2,55.7,861,932,0
L,,562433,-0.464,0.942,-0.371,99.7,21.8,69.2,870,933,0
L,,562493,-0.085,1.028,0.019,55.9,26.6,50.4,872,929,0
L,,562553,-0.208,1.068,0.000,13.2,17.7,23.1,874,929,0
L,,562622,-0.244,0.994,-0.017,40.2,5.6,47.8,863,926,0
L,,562673,0.032,0.874,-0.039,57.7,2.4,61.1,852,922,0
L,,562763,-0.034,1.019,-0.073,22.3,8.1,37.8,822,927,0
L,,562823,-0.030,1.386,-0.036,32.3,17.1,29.6,760,918,0
L,,562883,0.069,1.136,0.002,31.3,9.5,40.6,643,828,0
L,,562943,0.000,1.240,0.027,73.4,7.0,71.4,625,853,0
L,,563002,-0.162,1.461,0.059,120.7,26.3,99.4,466,877,0
L,,563063,-0.554,2.022,0.468,147.1,133.2,159.2,441,897,0
L,,563153,0.816,-0.203,-0.450,166.7,128.3,-9.5,546,737,0
L,,563243,-0.113,0.386,0.263,-88.2,-12.0,-131.2,577,766,0
L,,563303,0.173,0.943,0.286,-177.0,46.9,-168.2,588,767,0
L,,563363,0.513,1.176,0.177,-193.6,62.6,-200.8,601,780,0
L,,563423,0.356,1.477,0.185,-204.2,14.7,-189.0,564,770,0
L,,563483,0.281,2.085,-0.152,-220.4,30.4,-173.6,558,771,0
L,,563542,0.935,1.698,-1.089,-73.9,214.4,-67.9,578,776,0
L,,563603,-0.055,1.685,-0.724,21.9,179.5,169.2,658,788,0
L,,563662,0.005,1.992,0.148,100.7,-110.4,-21.6,844,927,0
L,,563723,-0.320,0.733,-0.043,80.5,-50.1,25.4,868,931,0
L,,563783,-0.180,1.168,0.205,40.6,15.4,89.7,871,928,0
L,,563843,-0.065,1.017,-0.007,5.0,17.7,27.7,876,932,0
L,,563903,-0.185,0.962,0.001,8.7,32.6,16.7,878,935,0
L,,563963,-0.043,0.935,-0.044,-1.2,18.9,31.3,858,915,0
L,,564023,-0.109,0.998,-0.021,19.0,4.7,44.9,867,927,0
L,,564083,-0.046,1.013,0.000,22.4,3.0,31.4,847,914,0
L,,564143,-0.066,1.112,-0.066,41.1,18.5,38.5,828,923,0
L,,564203,0.061,1.052,-0.014,43.8,25.4,44.5,688,855,0
L,,564263,0.018,1.230,-0.018,68.1,8.9,58.3,622,797,0
L,,564323,-0.083,1.445,0.072,111.4,16.3,91.7,643,852,0
L,,564383,-0.438,1.669,0.321,181.7,61.3,94.7,403,874,0
L,,564443,-0.088,1.474,0.459,248.5,123.6,47.8,426,900,0
L,,564503,0.045,0.713,0.079,-7.2,100.1,-37.4,622,871,0
L,,564563,0.362,0.030,0.165,-39.6,-3.4,-96.1,669,914,0
L,,564623,0.105,0.530,0.311,-134.1,35.8,-134.6,683,914,0
L,,564683,0.391,1.076,0.091,-207.4,119.0,-195.4,700,924,0
L,,564743,0.420,1.572,0.117,-194.4,46.4,-200.6,687,926,0
L,,564803,0.393,1.729,-0.094,-187.6,41.5,-173.4,654,922,0
L,,564863,0.180,1.578,-0.716,-107.1,163.5,-117.6,660,896,0
L,,564923,0.841,0.968,-0.425,36.3,94.0,64.7,608,779,0
L,,564983,-0.251,0.971,0.478,133.0,-82.8,-33.0,805,931,0
L,,565043,-0.111,1.185,0.116,78.0,-49.4,55.8,860,936,0
L,,565103,-0.354,0.830,-0.078,75.3,-35.5,43.0,871,933,0
L,,565163,-0.085,1.053,-0.053,32.6,33.2,34.9,872,930,0
L,,565222,-0.103,1.048,-0.040,23.1,5.6,17.7,877,933,0
L,,565313,-0.114,0.979,-0.019,18.3,-7.4,35.9,866,927,0
L,,565373,-0.091,1.035,0.006,17.0,11.1,31.7,868,929,0
L,,565433,-0.072,0.971,-0.011,15.7,10.9,32.9,846,919,0
L,,565501,-0.110,1.058,-0.065,43.4,33.8,39.9,787,891,0
L,,565553,0.043,1.164,-0.053,46.0,27.2,42.4,724,890,0
L,,565613,0.024,1.317,0.071,83.7,19.7,80.1,643,856,0
L,,565673,-0.159,1.581,0.245,105.7,37.8,112.8,545,863,0
L,,565733,-0.454,2.048,0.638,290.4,83.1,117.8,426,920,0
L,,565823,0.655,-0.471,-1.069,61.6,117.1,37.8,525,726,0
L,,565883,0.184,0.046,0.102,-35.7,2.7,-90.5,553,739,0
L,,565945,0.226,0.405,0.253,-151.9,8.1,-132.5,577,763,0
L,,566003,0.147,0.954,0.226,-230.7,73.6,-181.7,581,763,0
L,,566063,0.374,1.459,0.225,-237.9,37.6,-211.6,571,763,0
L,,566123,0.217,2.005,-0.102,-224.9,-31.3,-189.6,528,752,0
L,,566183,0.834,1.731,-1.191,-149.3,11.4,-110.6,559,758,0
L,,566243,0.386,1.436,0.453,-69.0,247.2,118.7,641,769,0
L,,566303,-0.516,1.522,-0.460,170.2,-133.5,-0.2,849,927,0
L,,566363,-0.363,0.819,-0.269,92.4,-81.7,31.5,866,930,0
L,,566423,-0.060,1.103,0.259,53.2,18.5,53.0,874,930,0
L,,566483,-0.117,1.094,0.061,37.0,-6.7,49.4,872,932,0
L,,566543,-0.082,0.956,-0.012,26.3,17.3,16.3,869,930,0
L,,566603,-0.066,1.010,-0.041,31.9,18.1,42.7,863,927,0
L,,566663,-0.072,0.991,-0.012,28.6,18.2,34.8,854,924,0
L,,566723,-0.049,1.080,-0.010,32.1,26.6,33.7,813,906,0
L,,566783,-0.003,1.117,-0.003,50.2,24.0,51.1,673,830,0
L,,566843,0.109,1.257,0.072,57.8,2.3,72.8,689,854,0
L,,566903,-0.057,1.391,0.038,104.2,13.0,102.0,601,852,0
L,,566963,-0.078,1.718,0.512,144.3,26.9,139.7,410,853,0
L,,567023,-0.398,0.853,0.468,270.4,-44.1,184.0,381,741,0
L,,567083,0.292,1.001,-0.159,10.2,-63.8,67.5,530,724,0
L,,567143,-0.130,-0.056,-0.037,-90.1,-23.5,-23.4,562,753,0
L,,567203,-0.254,0.316,-0.029,-216.7,24.9,-96.9,595,756,0
L,,567263,0.265,0.646,-0.131,-190.8,50.1,-159.9,604,764,0
L,,567323,0.378,1.303,-0.091,-180.3,27.2,-186.2,580,765,0
L,,567383,0.322,1.974,-0.257,-195.3,-52.2,-251.2,557,758,0
L,,567443,1.033,1.737,-1.319,-139.0,33.9,-139.3,548,751,0
L,,567503,0.761,1.867,-0.484,121.7,-33.1,-21.9,761,927,0
L,,567563,-0.014,1.441,0.438,201.6,-88.2,7.5,863,936,0
L,,567624,-0.645,1.219,-0.837,162.6,-1.9,24.2,873,933,0
L,,567683,-0.061,0.981,0.049,46.2,20.6,26.7,875,935,0
L,,567743,-0.108,1.097,-0.061,29.1,5.1,24.5,878,938,0
L,,567803,-0.113,0.970,0.089,27.5,30.4,14.5,877,934,0
L,,567863,-0.126,1.000,0.070,22.4,1.7,29.3,864,927,0
L,,567923,-0.085,1.048,0.059,12.8,12.8,44.0,854,919,0
L,,567983,-0.035,1.241,0.080,55.3,3.7,55.0,834,908,0
L,,568073,0.118,1.139,0.060,60.3,10.2,68.2,676,849,0
L,,568133,-0.010,1.328,0.063,92.7,2.1,93.0,664,868,0
L,,568193,-0.196,1.594,0.231,130.7,35.3,90.8,388,786,0
L,,568253,0.119,1.770,0.312,225.5,86.6,137.4,449,931,0
L,,568313,0.605,-0.209,-0.512,118.9,43.3,20.1,636,921,0
L,,568374,0.250,0.057,0.024,-39.6,3.2,-65.4,658,919,0
L,,568433,-0.125,0.362,0.184,-185.9,-4.9,-119.0,663,906,0
L,,568493,-0.408,1.168,-0.018,-222.8,30.2,-190.2,669,910,0
L,,568553,0.304,1.456,-0.162,-222.8,-33.3,-215.6,664,920,0
L,,568613,0.486,1.898,-0.380,-196.2,2.0,-209.9,557,793,0
L,,568673,0.970,1.578,-1.219,-89.7,115.5,-127.3,634,907,0
L,,568733,0.363,2.116,-0.361,139.9,-42.9,-1.1,679,827,0
L,,568801,-0.018,1.297,0.075,171.4,-64.8,43.5,860,934,0
L,,568853,-0.379,0.999,-0.070,96.7,-70.8,52.2,872,934,0
L,,568914,-0.062,1.020,0.070,60.2,26.5,42.5,876,934,0
L,,568973,-0.166,1.135,-0.062,17.9,-7.7,25.1,880,935,0
L,,569033,-0.089,0.974,0.059,32.7,31.7,0.3,869,926,0
L,,569093,-0.134,1.020,-0.078,17.0,11.6,24.7,865,928,0
L,,569183,0.000,0.925,-0.204,15.5,-2.4,57.0,848,928,0
L,,569244,-0.084,1.092,-0.103,52.5,7.5,35.5,802,913,0
L,,569303,-0.028,1.172,-0.026,57.5,12.8,45.0,568,738,0
L,,569363,-0.072,1.265,-0.024,81.2,3.7,69.3,615,842,0
L,,569423,-0.162,1.484,0.096,127.8,26.8,79.7,497,872,0
L,,569483,-0.505,2.022,0.553,193.9,147.6,136.8,428,901,0
L,,569543,0.133,0.945,0.215,186.6,103.8,71.1,528,920,0
L,,569603,-0.448,0.333,0.917,-52.8,57.6,-75.1,650,910,0
L,,569693,0.159,0.518,0.193,-154.2,9.6,-159.0,603,768,0
L,,569753,0.040,0.933,0.317,-198.5,101.4,-133.9,602,765,0
L,,569813,0.604,1.446,0.177,-186.9,82.8,-189.2,595,773,0
L,,569874,0.559,2.026,-0.006,-210.0,53.6,-184.6,567,758,0
L,,569933,0.978,1.840,-1.219,-114.5,197.2,-89.6,598,780,0
L,,569994,-0.158,2.128,-0.224,97.5,20.7,14.4,772,931,0
L,,570053,-0.201,1.596,-0.202,194.2,-89.9,0.7,857,935,0
L,,570113,-0.389,0.990,0.130,73.0,1.1,47.8,871,931,0
L,,570173,0.035,1.051,0.298,40.8,10.7,57.4,877,933,0
L,,570233,-0.024,1.070,-0.001,24.5,7.2,12.3,881,934,0
L,,570293,-0.141,0.937,-0.029,18.2,22.7,18.9,876,934,0
L,,570353,-0.147,1.005,-0.029,19.3,1.8,38.1,869,928,0
L,,570414,-0.050,0.915,0.015,34.8,-4.0,61.2,861,925,0
L,,570473,-0.031,1.015,-0.026,31.7,5.6,36.0,851,924,0
L,,570534,-0.013,1.136,-0.099,44.5,5.7,42.2,793,893,0
L,,570624,0.015,1.378,-0.006,91.2,6.1,74.9,666,850,0
L,,570683,-0.046,1.390,0.063,106.1,37.9,89.8,528,845,0
L,,570744,-0.228,1.866,0.544,156.1,116.2,132.2,420,905,0
L,,570803,-0.162,0.754,0.621,315.4,45.2,101.5,439,901,0
L,,570863,-0.222,0.448,0.702,-63.5,-11.0,-57.3,632,922,0
L,,570923,0.190,0.154,0.167,-86.6,11.1,-102.2,652,921,0
L,,570983,-0.089,0.860,0.183,-149.4,33.7,-157.3,673,923,0
L,,571043,0.401,1.198,0.266,-204.1,119.0,-195.4,676,924,0
L,,571103,0.665,1.627,0.053,-220.4,-4.6,-204.7,652,903,0
L,,571164,0.305,1.719,-0.335,-142.7,0.8,-183.6,570,771,0
L,,571223,0.912,1.579,-1.086,-68.0,215.7,-55.7,577,776,0
L,,571284,-0.220,1.327,0.141,114.8,128.2,16.3,753,919,0
L,,571343,-0.270,1.638,-0.276,94.6,-147.4,-10.6,849,931,0
L,,571403,-0.616,0.707,-0.339,76.2,-46.9,13.6,870,933,0
L,,571463,0.110,1.161,0.059,40.5,4.4,66.7,875,930,0
L,,571523,-0.181,1.118,0.043,17.9,4.3,22.5,849,903,0
L,,571583,-0.137,0.988,-0.020,11.9,37.8,21.2,870,928,0
L,,571652,-0.082,0.934,0.061,27.5,-4.4,56.5,836,893,0
L,,571704,-0.088,1.034,-0.062,-2.3,12.1,7.7,857,922,0
L,,571763,-0.127,1.064,-0.006,35.4,9.9,45.0,831,905,0
L,,571853,-0.096,0.992,-0.074,35.3,23.9,42.7,757,907,0
L,,571914,0.032,1.114,0.011,49.5,16.6,58.3,623,793,0
L,,571973,0.058,1.344,0.087,79.8,22.4,79.3,630,863,0
L,,572063,-0.239,1.617,0.375,140.9,79.5,133.3,422,886,0
L,,572127,-0.398,1.240,-0.468,326.4,54.7,39.9,452,912,0
L,,572183,0.022,0.687,0.355,-21.3,25.2,-36.2,631,916,0
L,,572244,0.279,0.165,0.232,-59.7,3.5,-90.3,565,749,0
L,,572303,0.040,0.669,0.263,-126.6,7.7,-158.4,580,756,0
L,,572364,-0.112,1.050,0.367,-198.5,110.7,-188.9,595,768,0
L,,572423,0.447,1.509,0.194,-207.5,38.2,-217.0,587,765,0
L,,572483,0.551,2.109,-0.318,-200.6,22.6,-194.0,543,747,0
L,,572586,0.258,1.946,0.228,-79.5,192.5,92.3,714,799,0
L,,572603,0.313,0.472,0.439,53.2,10.6,-16.2,798,925,0
L,,572664,0.287,1.162,-0.095,178.8,-91.2,21.4,861,934,0
L,,572723,-0.511,0.974,-0.563,29.6,-7.7,46.4,872,931,0
L,,572784,-0.005,0.932,0.058,20.6,17.1,19.1,877,933,0
L,,572874,-0.192,0.990,0.048,4.5,23.2,8.6,878,931,0
L,,572933,-0.110,0.946,-0.045,28.1,10.5,36.7,870,928,0
L,,572994,-0.117,1.038,-0.008,20.3,10.4,46.4,867,932,0
L,,573053,-0.108,1.101,0.020,-8.7,19.9,16.5,842,916,0
L,,573114,-0.122,1.072,-0.002,41.3,5.1,46.6,793,905,0
L,,573173,0.128,1.040,0.087,51.2,11.4,58.2,695,877,0
L,,573233,-0.061,1.356,0.003,84.1,11.5,85.4,576,794,0
L,,573293,-0.122,1.512,0.203,141.0,44.3,94.9,375,772,0
L,,573353,0.191,1.874,0.128,196.5,78.5,123.4,435,929,0
L,,573414,-0.411,0.467,0.025,112.2,-8.9,-31.6,623,900,0
L,,573473,0.063,0.317,0.020,26.8,88.3,-58.9,608,841,0
L,,573534,0.113,0.473,0.230,-183.1,18.6,-126.7,665,923,0
L,,573593,0.339,0.925,-0.101,-228.4,32.1,-163.5,666,911,0
L,,573654,0.325,1.533,0.092,-210.8,7.0,-203.1,651,912,0
L,,573713,0.376,2.071,-0.260,-211.8,-17.4,-207.4,545,762,0
L,,573773,0.799,1.697,-1.083,-190.4,60.9,-106.9,613,927,0
L,,573833,0.761,1.025,-0.737,67.3,61.4,91.4,584,779,0
L,,573893,0.227,1.526,-0.761,280.0,-106.5,67.8,848,933,0
L,,573983,-0.369,1.048,-0.918,80.5,2.2,49.0,875,935,0
L,,574043,-0.059,0.901,-0.067,21.1,13.4,38.0,877,935,0
L,,574103,-0.090,1.004,-0.021,10.7,-11.9,23.5,878,936,0
L,,574164,0.040,1.071,0.032,71.6,3.5,62.1,872,933,0
L,,574223,-0.013,0.865,0.017,-17.0,2.4,53.8,860,928,0
L,,574284,0.049,1.033,-0.022,34.1,5.7,34.2,843,923,0
L,,574343,-0.005,1.032,0.018,37.9,12.6,34.3,771,882,0
L,,574404,0.208,1.242,0.066,52.7,15.9,57.2,711,885,0
L,,574494,-0.088,1.498,0.064,92.2,20.6,108.7,577,828,0
L,,574553,-0.311,1.752,0.400,160.8,24.4,102.6,402,877,0
L,,574614,-0.448,0.730,0.742,189.6,4.6,130.7,408,821,0
L,,574673,0.354,0.665,-0.136,25.4,5.9,52.7,645,925,0
L,,574763,-0.031,0.324,0.182,-176.0,-21.0,-115.4,638,852,0
L,,574824,-0.043,0.887,0.180,-213.0,33.0,-158.6,595,773,0
L,,574883,0.262,1.357,0.207,-232.4,16.8,-224.4,600,814,0
L,,574944,0.282,2.030,-0.124,-233.2,-29.5,-234.0,553,766,0
L,,575003,0.883,1.849,-1.318,-135.9,67.6,-136.7,549,765,0
L,,575072,0.782,1.199,-0.812,51.3,34.7,83.3,732,929,0
L,,575124,0.290,2.302,-0.511,126.4,-97.3,30.3,852,934,0
L,,575183,-0.145,0.792,-0.160,122.3,-59.6,-15.9,869,932,0
L,,575244,-0.133,1.023,0.144,31.6,8.1,40.2,873,928,0
L,,575303,-0.071,1.004,0.024,25.8,-1.8,23.9,879,933,0
L,,575364,-0.149,0.938,0.069,25.2,10.0,21.5,876,932,0
L,,575423,-0.090,0.953,-0.006,16.9,-0.2,31.0,871,932,0
L,,575484,-0.050,1.107,0.033,26.6,8.6,48.1,863,929,0
L,,575543,-0.026,1.141,0.042,35.2,2.8,48.5,838,929,0
L,,575633,0.165,1.320,-0.001,64.8,3.9,69.0,669,850,0
L,,575694,0.014,1.324,-0.052,81.9,1.6,84.0,585,784,0
L,,575784,-0.308,1.668,0.364,169.9,42.0,90.7,421,890,0
L,,575843,-0.243,1.340,0.244,243.6,54.7,105.9,422,820,0
L,,575933,-0.223,0.382,0.375,-1.3,-4.4,-35.2,554,758,0
L,,575994,0.065,0.206,0.104,-143.8,-11.6,-118.0,587,760,0
L,,576053,-0.021,0.667,0.093,-198.8,31.7,-139.3,587,764,0
L,,576114,0.422,1.245,0.119,-244.5,-4.1,-182.2,579,766,0
L,,576173,0.091,1.695,-0.281,-208.8,-50.4,-202.5,554,764,0
L,,576234,0.307,1.728,-0.657,-143.5,76.7,-130.9,571,768,0
L,,576293,1.279,1.139,-0.549,-64.1,180.6,5.3,591,779,0
L,,576353,-0.444,0.387,1.605,9.0,-154.4,51.8,831,936,0
L,,576414,0.040,1.200,0.205,167.5,38.9,23.1,865,933,0
L,,576473,-0.399,0.712,-0.056,24.4,-63.4,73.0,872,929,0
L,,576534,-0.088,0.857,0.070,35.2,16.0,36.0,875,930,0
L,,576593,-0.223,0.893,-0.009,28.7,4.1,12.8,876,930,0
L,,576683,-0.103,0.982,-0.041,27.0,-4.2,38.1,871,929,0
L,,576744,-0.083,0.932,0.035,-1.2,7.4,41.5,871,927,0
L,,576803,-0.071,1.140,0.007,30.6,-3.1,46.3,863,928,0
L,,576864,0.004,1.007,-0.036,53.2,-6.7,42.2,825,908,0
L,,576923,-0.013,1.148,-0.090,38.0,13.5,55.7,642,767,0
L,,576984,0.035,1.306,-0.016,81.4,8.4,68.8,623,785,0
L,,577043,-0.027,1.353,0.031,146.1,31.3,91.4,491,861,0
L,,577104,-0.323,1.899,0.400,173.2,102.2,130.2,425,900,0
L,,577164,-0.198,0.886,0.379,179.6,46.2,86.3,515,913,0
L,,577223,-0.293,0.420,0.931,-69.3,-31.0,-60.9,632,910,0
L,,577283,0.095,0.186,0.363,-105.7,5.6,-133.9,670,913,0
L,,577343,0.244,0.683,0.395,-218.7,-6.3,-190.4,672,909,0
L,,577404,0.434,1.299,0.252,-240.9,90.6,-216.3,683,913,0
L,,577463,0.383,1.920,-0.004,-237.8,19.8,-194.3,613,869,0
L,,577524,0.889,1.630,-0.915,-143.7,29.0,-115.8,570,762,0
L,,577583,0.787,1.389,-0.130,-151.6,188.2,57.3,599,775,0
L,,577643,-0.429,0.901,1.606,43.1,-39.9,38.5,826,934,0
L,,577704,-0.013,1.250,0.738,78.4,-84.9,6.5,865,936,0
L,,577763,-0.139,0.969,-0.345,98.9,37.9,60.8,870,932,0
L,,577824,-0.088,0.905,-0.075,42.5,30.8,31.5,875,929,0
L,,577883,-0.181,0.997,-0.012,19.4,17.9,17.2,877,931,0
L,,577952,-0.165,1.007,0.054,-5.0,23.5,20.0,876,930,0
L,,578003,-0.095,0.940,-0.011,35.0,4.2,34.0,864,922,0
L,,578064,-0.151,0.975,0.050,26.5,12.2,46.5,862,926,0
L,,578124,-0.047,1.111,0.041,29.0,3.7,31.2,844,924,0
L,,578183,-0.042,0.975,-0.030,22.1,24.4,27.0,736,861,0
L,,578274,-0.001,1.185,0.046,71.2,-5.2,68.1,691,880,0
L,,578333,-0.080,1.399,-0.053,113.4,3.2,89.5,628,862,0
L,,578397,-0.150,1.708,0.280,162.3,43.4,88.1,424,897,0
L,,578454,0.097,1.555,0.103,204.2,79.5,80.4,427,829,0
L,,578513,0.083,0.575,-0.772,60.5,127.8,16.5,621,911,0
L,,578574,0.257,0.087,0.341,-28.4,74.8,-79.3,666,918,0
L,,578633,0.116,0.597,0.191,-138.9,38.2,-145.6,677,917,0
L,,578694,0.627,1.126,-0.142,-148.4,82.3,-196.9,683,914,0
L,,578753,0.571,1.389,0.092,-187.8,66.9,-198.8,679,919,0
L,,578814,0.305,1.722,-0.067,-173.8,29.3,-204.7,644,920,0
L,,578874,0.259,1.674,-0.569,-153.7,75.7,-134.4,616,804,0
L,,578934,1.035,0.602,-0.399,-125.8,124.7,130.5,672,892,0
L,,578994,0.167,1.810,-0.232,83.0,-125.9,58.9,849,931,0
L,,579053,-0.356,0.810,-0.343,150.5,-42.1,33.1,868,932,0
L,,579114,-0.083,1.033,0.141,43.2,9.3,77.6,874,930,0
L,,579173,-0.010,1.027,0.036,7.7,-2.6,29.8,875,932,0
L,,579263,-0.132,0.877,-0.015,4.4,22.2,50.4,871,927,0
L,,579354,-0.008,0.924,-0.011,25.6,9.8,36.8,859,916,0
L,,579414,-0.068,1.052,0.015,13.7,13.2,30.9,861,925,0
L,,579474,-0.030,1.057,-0.016,41.2,12.6,35.6,843,919,0
L,,579534,-0.115,1.143,-0.235,47.6,22.0,53.9,714,820,0
L,,579593,0.041,1.279,-0.012,83.5,14.0,68.2,569,712,0
L,,579653,0.051,1.466,0.212,124.6,38.6,98.9,635,875,0
L,,579713,-0.564,1.661,0.191,224.2,67.2,87.7,443,914,0
L,,579774,-0.142,1.276,0.452,270.9,167.4,15.1,540,911,0
L,,579833,0.043,0.600,1.306,-28.0,-38.2,-62.1,639,836,0
L,,579894,0.103,0.137,0.152,-33.0,-22.5,-101.4,660,851,0
L,,579984,0.374,1.012,0.320,-204.7,69.2,-204.4,698,914,0
L,,580043,0.374,1.483,0.283,-209.3,52.9,-215.2,684,920,0
L,,580104,0.662,2.242,-0.221,-209.3,57.4,-196.3,646,927,0
L,,580164,0.954,1.759,-1.387,-94.3,183.1,-109.3,670,932,0
L,,580224,1.325,1.553,-1.142,127.8,56.7,52.7,694,927,0
L,,580314,0.147,1.056,0.199,137.5,17.5,46.9,871,934,0
L,,580374,-0.315,0.739,0.261,11.8,10.2,93.6,878,935,0
L,,580434,-0.116,0.969,0.049,23.7,24.2,23.1,878,933,0
L,,580494,-0.232,0.819,-0.040,5.2,41.8,12.0,873,928,0
L,,580553,-0.176,0.915,-0.032,58.1,1.6,60.8,870,927,0
L,,580614,-0.107,0.973,-0.048,17.7,15.3,37.5,862,931,0
L,,580673,-0.073,1.041,-0.187,-40.0,23.9,53.2,820,907,0
L,,580734,0.111,1.077,-0.012,59.7,2.6,49.4,743,902,0
L,,580793,0.063,1.252,0.016,48.8,21.8,68.4,654,838,0
L,,580883,-0.215,1.481,0.131,115.4,24.8,110.1,491,891,0
L,,580944,-0.386,2.083,0.713,181.0,105.6,171.7,489,916,0
L,,581003,0.105,1.327,-0.303,187.1,47.3,98.7,566,914,0
L,,581064,-0.491,0.467,0.894,-55.7,3.0,-23.4,657,924,0
L,,581124,0.097,0.294,0.196,-128.1,2.0,-81.8,676,926,0
L,,581184,-0.261,0.866,0.201,-227.0,71.4,-150.1,683,922,0
L,,581244,0.405,1.208,0.187,-244.3,85.4,-207.9,671,899,0
L,,581304,0.468,2.033,-0.001,-205.6,-45.1,-239.2,669,929,0
L,,581373,0.430,2.029,-0.742,-160.5,-59.2,-143.5,618,923,0
L,,581423,1.154,1.365,-1.092,-282.3,146.7,19.8,650,930,0
L,,581514,0.466,2.000,0.273,303.7,-29.7,120.0,847,933,0
L,,581574,0.064,1.366,-0.101,163.8,52.0,-7.2,866,933,0
L,,581633,0.228,0.970,-0.046,68.5,-9.4,76.8,873,932,0
L,,581694,-0.043,1.118,0.081,24.9,8.6,18.4,879,934,0
L,,581784,-0.103,1.016,0.099,35.5,2.1,33.6,874,934,0
L,,581843,-0.013,0.991,-0.056,27.3,1.5,33.6,865,928,0
L,,581904,0.027,1.080,-0.070,54.3,-2.8,52.0,841,914,0
L,,581963,-0.076,1.095,0.000,34.3,0.7,41.7,798,905,0
L,,582024,0.119,1.170,-0.080,62.3,1.7,56.1,683,850,0
L,,582083,0.101,1.401,-0.014,87.0,-3.7,82.5,692,891,0
L,,582144,-0.117,1.421,0.222,120.6,13.3,97.8,490,876,0
L,,582204,-0.330,2.032,0.907,242.6,53.9,173.7,449,925,0
L,,582264,-0.074,1.164,0.303,172.5,-19.3,118.3,585,924,0
L,,582324,-0.610,0.516,0.966,-65.5,-29.5,-23.1,662,917,0
L,,582383,-0.026,0.291,0.202,-165.4,-12.0,-105.4,694,924,0
L,,582444,-0.059,0.811,0.164,-225.6,27.3,-150.0,688,908,0
L,,582503,0.185,1.474,0.097,-256.3,28.0,-210.0,685,912,0
L,,582564,0.281,2.020,-0.194,-240.2,-22.0,-216.3,644,927,0
L,,582624,0.921,1.810,-1.114,-117.4,19.8,-140.4,643,919,0
L,,582684,0.755,0.877,-1.388,68.1,26.6,43.9,677,919,0
L,,582744,-0.715,0.814,1.519,0.3,-193.1,-14.4,840,935,0
L,,582804,0.242,1.520,0.057,153.0,34.7,42.2,871,935,0
L,,582864,-0.018,0.729,-0.001,49.3,-6.0,70.1,875,931,0
L,,582923,-0.075,0.896,0.080,12.5,20.8,17.2,880,937,0
L,,582984,-0.294,1.023,0.049,31.7,11.2,19.8,879,935,0
L,,583043,-0.081,0.918,-0.059,29.1,-4.0,56.8,871,933,0
L,,583104,-0.050,1.034,0.001,21.7,-0.4,36.5,857,925,0
L,,583164,-0.051,1.111,0.022,31.6,1.9,38.3,836,920,0
L,,583253,0.063,1.129,0.010,50.2,7.3,49.7,608,774,0
L,,583313,0.072,1.266,0.013,77.8,-4.5,72.3,682,886,0
L,,583374,-0.105,1.490,0.052,115.3,13.5,107.7,541,864,0
L,,583434,-0.372,1.746,0.741,175.3,69.1,128.3,443,917,0
L,,583524,0.643,-0.181,-0.406,158.0,114.8,19.1,664,919,0
L,,583583,0.291,0.125,0.251,-3.0,37.1,-72.0,681,921,0
L,,583644,-0.079,0.452,0.344,-132.3,8.8,-134.0,693,925,0
L,,583734,0.386,1.181,0.045,-209.7,76.5,-211.4,613,775,0
L,,583793,0.340,1.646,-0.072,-211.9,-30.0,-207.0,665,911,0
L,,583854,0.385,1.835,-0.555,-187.6,30.9,-164.8,635,924,0
L,,583914,1.413,1.393,-1.125,-33.5,235.4,-59.6,632,870,0
L,,583974,0.830,1.114,-0.596,51.6,99.0,88.2,750,930,0
L,,584034,-0.689,1.597,-0.621,166.7,-76.5,-3.5,864,936,0
L,,584094,-0.239,1.224,-1.342,99.8,14.6,70.0,874,934,0
L,,584184,-0.136,0.997,-0.084,23.3,21.2,25.8,877,935,0
L,,584244,-0.245,1.023,0.017,9.3,20.0,11.8,873,928,0
L,,584310,-0.165,0.974,-0.042,31.1,11.4,44.6,855,915,0
L,,584364,-0.081,1.023,-0.023,12.5,2.7,35.1,857,925,0
L,,584467,-0.044,0.979,-0.090,24.5,13.7,28.9,795,919,0
L,,584484,0.043,1.046,-0.063,49.7,6.9,45.7,763,909,0
L,,584543,0.026,1.126,-0.001,9.3,15.7,47.1,644,829,0
L,,584604,-0.069,1.355,-0.085,88.3,10.1,78.6,611,826,0
L,,584664,-0.160,1.525,0.113,150.4,36.4,107.0,445,912,0
L,,584755,-0.137,1.295,0.180,253.1,98.2,86.7,454,909,0
L,,584814,-0.206,0.540,-0.012,21.8,78.4,-17.9,631,924,0
L,,584874,0.138,0.021,0.196,-43.3,6.7,-108.5,574,760,0
L,,584934,0.166,0.488,0.212,-128.7,25.4,-160.9,589,773,0
L,,584994,0.412,1.159,0.213,-205.2,82.8,-200.5,611,788,0
L,,585054,0.436,1.542,0.141,-206.5,13.9,-200.0,596,774,0
L,,585114,0.300,1.684,-0.012,-218.4,52.6,-174.3,557,774,0
L,,585204,1.641,1.262,-0.838,-7.7,195.5,0.2,549,767,0
L,,585307,-0.265,1.368,-0.406,97.8,-102.1,37.6,858,931,0
L,,585324,0.065,1.479,0.221,70.3,-52.7,51.1,866,933,0
L,,585384,-0.095,1.128,-1.102,61.8,-23.7,42.9,872,934,0
L,,585444,-0.035,0.917,-0.064,44.5,11.2,39.5,873,932,0
L,,585534,-0.139,0.955,-0.016,-6.0,17.2,34.6,876,930,0
L,,585594,-0.152,1.011,0.013,18.5,12.8,24.7,873,928,0
L,,585654,-0.081,1.016,0.023,24.2,15.7,32.4,874,935,0
L,,585714,-0.086,1.057,0.030,24.9,11.1,33.3,861,928,0
L,,585774,-0.113,1.013,-0.072,41.5,13.7,33.1,831,921,0
L,,585833,0.006,1.152,0.005,34.5,38.9,47.3,695,861,0
L,,585894,-0.023,1.334,0.037,84.6,23.3,71.6,678,883,0
L,,585954,-0.131,1.488,0.175,134.4,48.5,104.3,555,906,0
L,,586014,-0.393,2.337,0.198,201.2,174.8,142.3,442,907,0
L,,586074,0.305,1.250,-0.191,330.8,43.7,-0.6,599,908,0
L,,586134,0.047,0.280,0.827,22.2,60.9,-65.5,658,911,0
L,,586194,0.132,0.206,0.156,-65.2,-8.1,-98.2,660,907,0
L,,586254,0.220,0.823,0.298,-152.2,39.6,-182.4,661,924,0
L,,586314,0.402,1.248,0.290,-227.8,59.0,-200.1,671,924,0
L,,586374,0.400,1.853,-0.021,-216.7,-3.0,-186.2,641,913,0
L,,586433,-0.048,1.963,-0.536,-165.9,22.3,-146.6,606,845,0
L,,586494,1.251,1.247,-0.900,30.4,164.7,3.0,541,780,0
L,,586554,0.392,1.429,1.578,66.1,-119.2,16.0,838,936,0
L,,586614,0.266,1.181,0.480,193.8,-49.1,54.3,866,936,0
L,,586674,-0.102,1.095,0.179,76.1,28.7,95.8,873,932,0
L,,586734,-0.114,0.973,0.013,28.7,7.7,34.9,878,937,0
L,,586824,-0.105,0.977,0.001,28.6,20.9,18.7,880,934,0
L,,586884,-0.099,0.901,-0.119,7.4,-0.7,66.7,869,930,0
L,,586944,-0.028,1.071,-0.046,18.2,14.0,35.7,861,934,0
L,,587034,0.002,1.066,-0.070,55.1,10.1,43.4,799,920,0
L,,587124,0.160,1.242,0.000,62.2,10.0,66.0,607,775,0
L,,587184,-0.050,1.420,0.039,83.7,13.4,98.6,605,842,0
L,,587244,-0.175,1.534,0.299,158.6,37.0,106.4,419,871,0
L,,587333,0.016,1.267,-0.239,228.1,4.6,32.1,496,696,0
L,,587394,-0.480,0.501,0.793,-14.0,45.8,-30.0,564,757,0
L,,587454,0.057,0.305,0.188,-135.0,7.8,-114.8,581,769,0
L,,587514,-0.129,0.760,0.181,-209.5,49.4,-175.0,589,770,0
L,,587604,0.431,1.682,0.088,-227.2,11.4,-224.2,584,772,0
L,,587664,0.426,2.150,-0.302,-219.2,-3.7,-215.0,544,763,0
L,,587724,0.849,1.665,-1.217,-114.1,55.3,-94.5,557,769,0
L,,587792,0.578,1.248,-0.541,62.8,-16.1,36.8,627,785,0
L,,587895,0.003,1.165,0.047,104.7,-39.1,7.9,867,935,0
L,,587905,-0.052,0.877,0.086,114.6,-59.5,13.0,869,935,0
L,,587964,-0.162,1.076,-0.040,28.7,3.5,68.5,876,934,0
L,,588054,-0.006,1.126,0.010,21.6,-4.9,6.7,879,936,0
L,,588114,-0.150,1.002,0.062,15.9,26.8,39.9,876,929,0
L,,588174,-0.041,0.999,-0.035,34.1,0.4,46.6,872,931,0
L,,588234,0.000,1.065,0.009,-0.4,14.2,26.3,869,933,0
L,,588294,0.020,1.148,-0.004,42.0,4.8,45.5,846,926,0
L,,588384,0.207,1.050,0.035,67.3,8.4,68.3,643,799,0
L,,588444,0.056,1.362,-0.024,82.2,3.0,91.9,654,783,0
L,,588504,-0.169,1.608,0.137,142.6,42.6,126.9,440,854,0
L,,588564,0.084,1.890,0.245,191.1,96.3,132.3,439,896,0
L,,588624,0.103,0.237,-0.467,141.4,46.2,1.8,653,921,0
L,,588684,0.141,0.210,0.115,-6.0,13.5,-46.8,636,847,0
L,,588744,-0.061,0.399,0.214,-141.8,-18.9,-109.2,680,888,0
L,,588804,-0.064,0.968,0.208,-226.1,29.1,-165.5,692,904,0
L,,588864,0.287,1.524,0.194,-207.4,6.8,-220.7,669,901,0
L,,588924,0.415,1.970,-0.146,-210.3,-46.5,-211.4,541,769,0
L,,588984,0.866,1.682,-1.241,-140.0,25.4,-127.9,619,923,0
L,,589044,0.490,1.308,-0.800,103.0,103.5,77.4,585,776,0
L,,589104,0.651,1.794,0.714,258.9,24.4,81.0,848,936,0
L,,589164,0.083,1.051,-0.022,124.2,-45.5,-4.8,867,931,0
L,,589224,-0.327,1.166,-0.288,50.7,-17.3,62.4,874,931,0
L,,589284,0.098,1.058,0.082,22.1,-10.2,31.2,879,934,0
L,,589344,-0.182,0.879,0.013,29.5,-0.9,14.0,878,932,0
L,,589404,-0.101,0.923,0.048,17.5,14.2,28.3,869,929,0
L,,589464,-0.016,0.986,0.011,30.0,3.2,48.5,861,928,0
L,,589524,0.015,1.003,-0.026,29.1,10.0,31.6,849,926,0
L,,589584,-0.043,1.020,-0.119,62.1,8.4,38.2,811,915,0
L,,589644,0.039,1.236,-0.052,49.4,10.0,59.1,667,842,0
L,,589704,0.071,1.320,0.038,73.7,13.2,74.9,658,864,0
L,,589764,-0.081,1.462,0.157,117.8,31.7,101.6,466,835,0
L,,589824,-0.106,1.910,0.360,338.1,91.6,171.0,427,861,0
L,,589884,0.335,0.833,-0.041,199.5,38.5,41.7,541,716,0
L,,589987,0.012,0.210,0.151,-140.9,-27.7,-72.7,606,768,0
L,,590004,-0.026,0.528,0.284,-145.3,-13.3,-116.9,609,767,0
L,,590064,0.142,1.211,0.205,-205.5,54.1,-172.7,606,769,0
L,,590154,0.389,1.625,0.076,-213.2,-12.1,-197.2,601,783,0
L,,590214,0.245,2.187,-0.355,-200.4,20.9,-156.1,540,768,0
L,,590274,1.344,1.518,-0.929,-48.2,149.4,-47.8,571,775,0
L,,590334,0.221,1.346,-0.285,164.8,59.0,27.0,781,931,0
L,,590394,-0.372,1.148,-0.028,143.5,-63.2,19.3,864,938,0
L,,590454,-0.384,0.989,0.078,83.9,-17.5,25.1,872,933,0
L,,590557,-0.046,0.964,0.065,31.1,7.5,29.6,877,935,0
L,,590574,-0.138,1.117,0.075,23.1,4.2,16.0,879,936,0
L,,590642,-0.160,0.997,0.019,19.8,17.0,8.4,879,935,0
L,,590694,-0.159,0.996,0.065,13.4,14.0,20.7,872,931,0
L,,590754,-0.072,1.101,-0.018,30.5,2.1,45.8,870,931,0
L,,590857,-0.040,0.955,0.040,31.2,7.0,31.5,850,927,0
L,,590875,0.023,1.082,-0.036,36.4,3.5,34.7,840,925,0
L,,590934,-0.059,1.025,-0.019,30.8,15.7,50.7,769,897,0
L,,590994,0.054,1.256,-0.074,66.9,3.3,61.1,675,863,0
L,,591087,-0.025,1.392,0.092,89.6,39.2,77.0,458,895,0
L,,591144,-0.286,1.836,0.273,197.6,79.5,111.9,477,915,0
L,,591234,0.128,0.041,-0.497,155.6,103.7,26.8,636,919,0
L,,591294,0.381,0.281,0.083,-7.0,46.7,-52.5,564,764,0
L,,591354,0.170,0.465,0.145,-119.4,-34.7,-126.2,585,769,0
L,,591444,0.224,0.938,0.143,-204.6,68.3,-150.2,596,775,0
L,,591504,0.301,1.463,0.155,-213.9,41.0,-190.6,586,776,0
L,,591564,0.396,1.826,-0.245,-181.6,30.0,-180.4,559,775,0
L,,591625,0.768,1.495,-0.883,-89.8,153.0,-93.0,546,781,0
L,,591684,0.400,1.013,-0.411,72.6,138.8,69.9,643,810,0
L,,591745,-0.034,2.073,-0.087,64.5,-94.9,-2.6,851,932,0
L,,591804,-0.312,0.805,-0.093,92.5,-13.2,15.7,867,934,0
L,,591864,-0.127,1.020,-0.055,49.2,-4.2,79.8,874,933,0
L,,591923,-0.080,1.117,0.076,11.4,11.2,20.2,880,935,0
L,,591984,-0.119,0.906,-0.051,16.8,9.2,1.0,879,935,0
L,,592044,-0.156,0.996,-0.085,8.8,5.5,6.6,877,932,0
L,,592104,-0.155,1.019,0.033,32.4,7.0,34.4,875,931,0
L,,592165,-0.046,1.144,-0.022,27.3,-4.2,46.4,869,929,0
L,,592254,-0.053,0.992,-0.129,15.4,-4.2,31.2,843,917,0
L,,592314,-0.072,1.081,-0.018,28.2,12.3,45.2,789,899,0
L,,592375,-0.031,1.163,-0.049,59.0,9.1,44.3,669,858,0
L,,592434,-0.007,1.412,0.063,94.5,26.6,64.7,621,810,0
L,,592495,-0.198,1.584,0.134,149.3,73.3,63.3,414,833,0
L,,592554,0.283,1.360,0.109,263.3,153.3,54.6,456,924,0
L,,592614,0.043,0.323,-0.739,80.3,155.4,-2.6,625,906,0
L,,592705,0.386,0.423,0.437,-79.5,44.8,-135.0,658,926,0
L,,592764,0.064,0.861,0.441,-171.9,49.3,-175.3,671,925,0
L,,592824,0.463,1.281,0.399,-225.1,77.7,-184.0,670,926,0
L,,592884,0.460,1.759,0.186,-241.2,38.7,-164.5,544,765,0
L,,592944,0.061,1.904,-1.394,-129.1,99.7,-114.9,562,757,0
L,,593035,0.772,1.318,-1.104,47.3,39.4,93.0,596,775,0
L,,593094,-0.035,1.658,0.099,259.7,-79.8,124.9,840,934,0
L,,593154,0.094,1.365,-0.245,83.0,-43.6,11.4,869,937,0
L,,593214,-0.281,0.869,-0.486,13.0,-39.9,16.8,871,933,0
L,,593274,-0.012,0.948,0.084,24.9,-8.9,23.5,876,934,0
L,,593334,-0.091,1.055,-0.006,18.6,-2.0,-1.6,880,938,0
L,,593394,-0.121,0.978,0.016,25.2,3.7,7.4,878,936,0
L,,593455,-0.093,0.996,-0.043,-0.2,6.7,10.1,874,936,0
L,,593514,-0.057,0.962,0.008,18.4,0.9,22.2,870,931,0
L,,593575,-0.021,1.027,-0.020,35.2,-1.0,28.2,861,930,0
L,,593634,-0.022,0.906,-0.021,45.2,-0.4,28.0,840,927,0
L,,593724,0.043,1.078,-0.082,53.4,-2.5,39.6,660,831,0
L,,593785,0.018,1.182,0.011,71.6,7.4,55.7,610,782,0
L,,593844,0.052,1.390,0.058,103.8,20.0,76.5,533,846,0
L,,593904,-0.321,1.905,0.364,188.0,72.4,118.3,467,874,0
L,,593964,0.206,1.451,-0.273,403.4,-7.5,21.0,503,760,0
L,,594054,0.719,0.230,0.375,-33.1,81.6,-83.6,596,765,0
L,,594123,0.073,0.538,0.173,-177.0,17.0,-154.4,606,773,0
L,,594205,0.401,1.356,0.118,-217.9,84.2,-199.6,612,779,0
L,,594264,0.438,1.605,-0.122,-187.9,14.2,-167.9,581,780,0
L,,594325,0.290,1.583,-0.291,-172.7,10.0,-150.9,555,773,0
L,,594384,1.304,1.352,-0.708,-22.1,165.5,-29.8,574,778,0
L,,594488,0.085,1.769,0.147,173.1,-60.2,126.5,843,936,0
L,,594504,0.163,1.367,0.575,67.9,-58.3,-17.1,852,936,0
L,,594564,-0.317,0.958,0.063,75.1,-31.5,40.6,874,936,0
L,,594625,-0.097,0.953,0.105,30.0,8.6,70.9,877,936,0
L,,594684,-0.096,1.053,0.116,45.9,25.6,17.9,877,934,0
L,,594745,-0.173,0.946,-0.088,-8.7,36.6,3.3,875,927,0
L,,594804,-0.139,0.907,-0.076,45.8,1.1,57.4,878,931,0
L,,594865,-0.077,1.083,-0.006,11.6,11.6,44.2,873,934,0
L,,594955,-0.060,1.142,-0.002,42.0,-2.9,47.8,849,917,0
L,,595014,0.015,1.028,-0.102,48.2,6.3,42.9,790,889,0
L,,595104,0.043,1.228,0.018,72.4,-0.6,68.6,671,863,0
L,,595165,-0.058,1.435,0.078,103.5,25.4,91.1,552,846,0
L,,595224,0.080,1.906,0.443,230.4,61.5,146.9,421,862,0
L,,595285,0.011,1.185,-0.100,193.5,2.5,123.9,539,900,0
L,,595344,-0.352,0.388,0.654,-65.3,4.4,0.1,652,926,0
L,,595434,-0.032,0.536,0.115,-165.9,18.4,-96.9,672,923,0
L,,595524,-0.120,1.137,-0.093,-205.8,77.0,-181.0,687,925,0
L,,595584,0.540,1.528,-0.197,-199.5,-44.3,-193.9,675,927,0
L,,595644,0.126,2.049,-0.653,-187.1,-11.5,-185.3,630,911,0
L,,595734,0.924,1.214,-0.837,10.1,91.9,38.8,592,787,0
L,,595794,-0.510,0.708,0.727,26.2,-112.6,2.2,822,929,0
L,,595854,0.240,1.075,0.504,83.2,-1.1,37.3,864,934,0
L,,595915,-0.370,0.752,-0.182,13.6,-52.9,40.6,873,933,0
L,,596004,-0.030,1.010,0.062,35.1,7.6,34.3,877,934,0
L,,596064,-0.130,1.017,0.045,13.6,10.8,18.4,878,933,0
L,,596125,-0.015,0.881,-0.059,40.0,-10.5,58.3,874,930,0
L,,596184,-0.010,1.072,0.117,-1.6,3.0,39.7,865,929,0
L,,596245,0.030,1.028,-0.010,25.2,8.4,33.7,856,928,0
L,,596304,0.013,1.122,0.004,31.6,5.6,51.7,828,921,0
L,,596365,0.084,0.989,0.001,23.1,8.4,52.5,689,836,0
L,,596424,0.130,1.358,0.057,59.4,3.6,75.0,705,886,0
L,,596485,-0.011,1.355,0.055,83.5,20.1,103.6,532,771,0
L,,596544,-0.134,1.551,0.483,156.4,59.2,145.3,442,894,0
L,,596604,-0.144,1.352,0.182,175.7,19.0,80.5,470,805,0
L,,596665,-0.064,0.440,0.397,-37.9,-23.0,17.1,680,925,0
L,,596724,0.093,0.108,-0.001,-89.7,-71.3,-60.6,605,760,0
L,,596785,-0.229,0.573,-0.125,-170.5,-26.2,-107.9,615,767,0
L,,596844,0.069,0.969,-0.021,-189.1,22.2,-148.2,611,762,0
L,,596905,0.236,1.459,-0.095,-180.7,-38.7,-191.5,615,776,0
L,,596964,0.091,1.640,-0.177,-177.8,-39.7,-211.1,590,772,0
L,,597054,1.416,1.492,-0.569,-51.2,154.0,-77.9,571,764,0
L,,597123,0.443,1.481,-0.568,142.8,55.3,94.4,774,917,0
L,,597174,-0.516,1.222,-0.014,143.4,-21.2,4.0,859,939,0
L,,597235,-0.320,0.857,-0.060,78.9,-7.8,35.2,870,933,0
L,,597325,-0.163,0.999,-0.036,11.4,16.2,27.9,879,937,0
L,,597415,-0.152,1.020,0.010,16.7,15.5,18.9,881,936,0
L,,597474,-0.105,0.870,-0.031,42.2,7.3,47.5,869,927,0
L,,597535,-0.062,1.028,-0.036,34.5,6.8,27.0,860,924,0
L,,597596,-0.057,1.066,-0.056,31.1,5.8,34.5,810,885,0
L,,597655,-0.061,1.057,-0.066,50.6,12.1,34.6,761,893,0
L,,597745,-0.052,1.287,0.203,43.9,13.3,52.0,605,787,0
L,,597804,-0.160,1.394,0.128,133.7,20.7,94.2,494,829,0
L,,597908,-0.041,1.415,-0.115,229.8,70.9,86.1,454,909,0
L,,597924,0.094,1.341,-0.031,166.5,55.5,30.3,526,911,0
L,,597985,-0.314,0.314,0.851,-32.7,78.6,-37.0,612,914,0
L,,598044,0.305,0.129,0.161,-103.7,29.6,-106.0,563,761,0
L,,598104,0.243,0.636,0.109,-82.0,36.0,-134.8,579,767,0
L,,598165,0.681,1.134,0.293,-210.0,95.0,-192.0,673,921,0
L,,598224,0.441,1.528,-0.090,-207.1,-7.0,-158.8,650,922,0
L,,598314,0.093,1.701,-0.373,-182.5,87.3,-119.4,588,863,0
L,,598375,0.922,1.264,-0.516,-4.8,167.9,4.4,583,774,0
L,,598434,0.305,1.087,-0.265,50.5,135.0,72.7,722,927,0
L,,598495,-0.166,1.324,0.106,115.0,-69.0,-7.3,851,934,0
L,,598554,-0.415,0.787,-0.051,90.3,-46.4,50.5,868,934,0
L,,598615,0.024,1.223,0.000,21.6,16.5,63.3,873,930,0
L,,598674,-0.061,1.069,0.011,17.9,4.6,17.5,880,934,0
L,,598735,-0.212,1.020,0.083,11.1,26.5,8.8,875,929,0
L,,598794,-0.087,0.920,0.020,34.3,15.0,36.9,868,930,0
L,,598854,-0.106,1.032,0.034,24.6,7.2,25.4,853,919,0
L,,598915,-0.064,1.050,-0.048,23.8,12.1,24.6,843,924,0
L,,599004,-0.040,1.043,-0.070,39.8,5.8,30.5,715,857,0
L,,599065,0.049,1.153,-0.064,58.7,1.8,44.8,631,818,0
L,,599125,-0.031,1.245,0.036,71.5,15.1,64.4,598,769,0
L,,599214,-0.103,1.555,0.218,158.4,59.1,70.3,448,902,0
L,,599275,0.030,1.445,0.077,209.7,131.3,78.7,443,849,0
L,,599334,0.245,0.071,-0.686,116.8,142.4,4.9,540,739,0
L,,599394,0.545,0.198,0.318,-12.6,57.1,-77.7,564,755,0
L,,599455,0.101,0.468,0.186,-118.7,0.4,-157.0,577,762,0
L,,599514,0.444,1.082,0.156,-170.2,75.8,-168.9,590,751,0
L,,599575,0.445,1.343,0.163,-221.7,61.8,-195.0,594,766,0
L,,599665,0.129,1.788,0.007,-197.3,22.1,-136.6,565,759,0
L,,599724,0.076,1.616,-0.651,-105.7,94.7,-110.6,569,768,0
L,,599785,0.637,0.988,-0.526,-10.3,102.2,59.7,588,779,0
L,,599844,-0.196,1.341,0.166,42.5,-2.4,-1.6,759,925,0
L,,599934,0.064,1.443,-0.312,65.9,-25.4,16.7,868,936,0
L,,599995,-0.267,1.029,-0.467,79.2,-6.0,29.5,875,935,0
L,,600054,-0.171,0.989,-0.045,34.1,26.8,30.3,878,936,0
L,,600115,-0.113,1.073,0.011,5.6,-4.6,12.6,880,933,0
L,,600174,-0.034,0.896,0.025,42.7,15.9,41.1,872,927,0
L,,600235,-0.148,1.025,-0.029,19.3,-0.9,41.7,874,931,0
L,,600294,-0.135,1.085,0.112,-33.2,26.6,7.6,863,926,0
L,,600355,0.052,1.023,-0.170,50.8,-2.8,34.1,844,913,0
L,,600415,-0.115,1.050,-0.033,24.7,20.0,36.4,721,807,0
L,,600474,0.153,1.220,0.021,55.0,10.6,55.2,694,879,0
L,,600535,-0.010,1.364,0.006,80.9,4.2,73.2,680,887,0
L,,600603,-0.058,1.513,0.180,129.4,33.8,89.8,412,861,0
L,,600684,0.124,1.403,-0.013,279.2,49.8,86.1,453,916,0
L,,600775,-0.311,0.587,0.662,6.0,100.5,-21.0,546,741,0
L,,600834,0.214,0.276,0.174,-115.5,4.6,-103.9,579,765,0
L,,600895,-0.174,0.538,0.147,-155.8,31.3,-127.8,595,767,0
L,,600955,0.338,1.183,0.063,-236.5,77.9,-199.2,603,774,0
L,,601014,0.327,1.614,-0.078,-195.0,3.2,-191.8,586,779,0
L,,601075,0.402,1.656,-0.368,-164.0,-8.5,-181.3,553,761,0
L,,601134,0.892,1.494,-0.813,-115.2,130.2,-79.3,580,777,0
L,,601195,0.406,1.077,-0.334,63.2,11.1,69.0,707,929,0
L,,601254,-0.197,1.519,0.007,58.9,-86.7,12.6,851,934,0
L,,601344,-0.251,0.701,0.205,12.3,-41.1,53.6,873,934,0
L,,601405,-0.095,0.809,0.136,10.1,10.7,51.2,874,929,0
L,,601495,-0.207,0.973,0.059,34.7,27.3,22.7,876,930,0
L,,601554,-0.089,0.946,0.013,30.8,10.0,58.6,872,932,0
L,,601615,-0.034,1.016,0.005,15.5,4.4,28.9,867,931,0
L,,601674,0.194,1.239,-0.589,92.5,-20.1,50.3,839,908,0
L,,601735,0.032,1.060,-0.021,50.4,-1.8,37.3,824,920,0
L,,601825,0.101,1.124,-0.008,46.1,1.7,51.0,637,815,0
L,,601884,0.070,1.271,-0.040,70.0,8.9,74.6,601,811,0
L,,601945,0.012,1.457,0.061,112.0,20.8,87.0,442,883,0
L,,602004,-0.195,1.954,0.333,180.8,75.8,110.0,455,915,0
L,,602065,0.167,1.024,-0.043,188.3,35.2,93.8,519,737,0
L,,602125,-0.419,0.456,0.878,-42.0,28.0,-9.7,568,756,0
L,,602214,-0.036,0.534,0.100,-166.2,-6.8,-95.0,590,763,0
L,,602275,0.107,1.117,-0.161,-234.8,-14.4,-169.7,600,771,0
L,,602334,0.265,1.300,-0.142,-204.6,-34.7,-181.4,600,776,0
L,,602395,-0.062,1.563,-0.225,-159.8,-44.3,-187.1,582,779,0
L,,602455,0.533,1.512,-0.667,-116.6,52.8,-145.3,561,777,0
L,,602514,1.168,1.193,-0.656,12.0,59.4,13.4,570,783,0
L,,602575,0.183,1.253,1.663,104.0,-37.5,147.9,840,935,0
L,,602665,-0.500,0.786,-0.093,101.8,10.7,41.3,876,936,0
L,,602725,-0.103,0.932,0.130,20.7,10.9,56.6,874,931,0
L,,602785,-0.075,1.089,0.042,23.8,-10.7,16.9,875,933,0
L,,602875,-0.082,0.974,0.014,51.9,-0.9,55.5,875,930,0
L,,602935,-0.013,1.079,0.019,22.6,-2.1,34.5,872,932,0
L,,602995,-0.038,0.987,0.035,17.6,8.2,29.5,857,925,0
L,,603054,0.009,1.044,-0.026,35.7,6.7,37.1,834,925,0
L,,603115,0.043,0.937,-0.037,44.8,9.1,44.5,713,873,0
L,,603174,0.236,1.202,0.044,59.4,1.8,68.3,684,874,0
L,,603235,0.003,1.303,0.118,79.4,9.6,94.9,561,792,0
L,,603294,-0.183,1.646,0.189,140.1,53.9,85.9,430,872,0
L,,603355,0.090,1.432,0.056,197.3,56.7,120.9,430,832,0
L,,603415,0.211,0.493,-0.348,12.2,64.6,38.4,585,751,0
L,,603475,0.154,0.175,0.143,-51.8,-14.4,-72.6,609,768,0
L,,603535,-0.092,0.575,0.113,-157.4,-13.3,-140.0,617,771,0
L,,603603,0.254,1.155,0.063,-193.3,90.7,-185.2,617,771,0
L,,603655,0.484,1.400,0.084,-183.1,21.4,-205.2,611,782,0
L,,603714,0.417,1.800,-0.330,-207.9,-31.5,-192.5,587,780,0
L,,603775,0.132,1.618,-0.518,-131.3,36.3,-134.2,574,783,0
L,,603834,0.941,1.169,-0.728,-22.1,112.4,48.7,584,785,0
L,,603895,-0.049,0.468,0.745,64.6,-92.9,24.9,809,928,0
L,,603955,-0.035,1.309,0.523,83.3,-38.8,6.0,861,935,0
L,,604018,-0.305,0.822,-0.438,29.4,-44.9,52.5,875,933,0
L,,604075,-0.113,0.949,0.042,31.5,10.4,59.8,875,932,0
L,,604134,-0.139,1.040,-0.030,21.2,2.1,10.7,878,931,0
L,,604195,-0.126,1.006,0.040,30.5,11.6,23.9,874,930,0
L,,604254,-0.070,0.995,-0.002,31.9,6.6,35.7,871,931,0
L,,604315,-0.044,0.882,-0.063,16.3,10.7,67.8,852,923,0
L,,604375,-0.003,0.960,-0.040,25.4,6.8,28.1,837,926,0
L,,604435,0.047,1.045,-0.062,36.5,12.8,36.2,728,857,0
L,,604495,0.138,1.171,-0.106,52.5,4.2,46.4,678,870,0
L,,604555,0.028,1.243,-0.026,71.8,1.5,67.6,661,889,0
L,,604615,-0.027,1.418,0.032,98.0,24.7,90.5,557,867,0
L,,604674,-0.272,1.769,0.235,231.0,83.0,123.9,446,873,0
L,,604735,0.128,1.146,-0.106,191.5,54.3,27.5,516,761,0
L,,604793,-0.143,0.342,0.369,-14.3,70.2,-25.6,550,751,0
L,,604855,0.297,0.163,0.097,-81.7,-19.8,-81.9,597,766,0
L,,604915,0.081,0.546,0.036,-118.2,-4.0,-124.5,595,771,0
L,,604975,0.582,1.091,0.075,-185.2,37.1,-164.6,607,777,0
L,,605035,0.445,1.341,0.131,-194.1,-22.1,-139.0,599,783,0
L,,605095,0.221,1.562,0.018,-153.7,5.2,-147.4,574,777,0
L,,605155,0.504,1.496,-0.309,-163.7,41.1,-101.9,563,775,0
L,,605214,0.831,1.181,-0.477,-27.1,109.6,-5.6,576,781,0
L,,605275,0.343,1.206,-0.325,158.6,81.9,71.6,761,927,0
L,,605334,-0.471,1.252,-0.063,184.0,11.0,33.3,854,935,0
L,,605395,-0.099,0.928,-0.008,67.4,20.0,36.2,869,930,0
L,,605455,-0.130,0.993,0.152,39.9,8.8,30.0,876,932,0
L,,605515,-0.148,1.088,0.068,24.4,3.0,9.9,877,929,0
L,,605605,-0.121,1.002,0.034,14.4,4.1,10.8,882,935,0
L,,605665,-0.084,0.990,-0.064,37.3,6.7,36.1,873,931,0
