side,stage,device_ms,ax,ay,az,gx,gy,gz,toe,heel,phase
L,,216519,-0.023,1.065,0.003,4.4,-0.4,-3.4,533,814,0
L,,216529,0.037,1.051,0.022,4.8,-1.6,-3.5,517,822,0
L,,216539,-0.037,1.040,0.014,4.9,-1.6,-3.8,498,824,0
L,,216549,-0.029,1.057,0.036,5.2,-1.2,-4.2,482,822,0
L,,216559,-0.073,1.057,0.018,5.5,-1.0,-4.4,458,824,0
L,,216569,-0.066,1.044,0.001,5.4,-0.6,-4.5,448,825,0
L,,216579,-0.023,1.108,0.004,5.5,-0.6,-4.5,428,828,0
L,,216589,-0.057,1.155,0.030,6.3,0.8,-5.0,418,841,0
L,,216599,-0.028,1.161,0.007,6.9,1.5,-5.4,368,846,0
L,,216609,0.067,1.137,0.020,7.2,1.0,-5.7,362,844,0
L,,216619,-0.022,1.171,0.013,7.9,1.1,-5.6,348,837,0
L,,216629,-0.006,1.156,-0.025,8.5,1.9,-6.0,272,789,0
L,,216639,0.070,1.181,0.010,9.5,2.3,-6.3,252,836,0
L,,216649,0.062,1.136,-0.011,9.9,2.1,-6.7,240,830,0
L,,216659,-0.011,1.164,-0.013,10.4,1.8,-7.3,236,813,0
L,,216669,-0.048,1.150,0.003,10.7,1.7,-7.6,184,795,0
L,,216679,-0.101,1.180,-0.030,11.0,2.0,-7.7,239,830,0
L,,216689,-0.136,1.210,-0.037,11.6,2.7,-8.0,253,831,0
L,,216699,-0.242,1.050,-0.012,8.6,6.1,-7.3,194,828,0
L,,216709,-0.124,1.381,-0.095,15.0,7.4,-9.4,195,827,0
L,,216719,-0.066,1.323,-0.073,13.4,6.4,-9.9,201,822,0
L,,216729,0.061,1.245,0.011,15.1,6.7,-10.6,183,825,0
L,,216739,0.049,1.309,-0.041,14.9,7.7,-10.2,162,843,0
L,,216749,0.159,1.471,-0.066,16.9,9.1,-10.7,132,752,0
L,,216759,0.232,1.486,0.042,15.9,7.9,-11.2,107,762,0
L,,216769,0.187,1.585,0.067,16.7,9.4,-11.6,100,751,0
L,,216779,0.261,1.615,0.026,18.5,10.9,-11.1,101,741,0
L,,216789,0.338,1.775,0.038,19.3,13.3,-10.7,114,723,0
L,,216799,0.113,1.770,0.181,20.9,14.9,-15.6,96,544,0
L,,216809,0.282,1.820,0.159,20.4,11.4,-17.9,109,671,0
L,,216819,0.265,1.893,0.164,19.0,10.3,-17.0,106,634,0
L,,216829,-0.007,1.876,0.170,18.3,10.9,-14.7,128,597,0
L,,216839,0.033,1.448,0.115,18.2,11.5,-13.3,220,530,0
L,,216849,-0.366,0.447,0.374,5.2,14.4,-7.4,226,447,0
L,,216859,-0.348,1.054,0.072,7.6,17.7,-7.7,147,385,0
L,,216869,-0.068,1.762,-0.267,11.7,19.2,-11.0,202,397,0
L,,216879,-0.659,-0.041,-0.217,11.1,21.0,-9.1,237,440,0
L,,216889,-0.628,0.240,-0.474,7.4,20.1,-14.6,174,357,0
L,,216899,-0.188,0.046,0.028,5.8,23.1,-9.9,227,482,0
L,,216909,0.259,0.137,0.256,1.1,20.8,-6.1,220,498,0
L,,216919,0.165,0.078,0.362,-2.9,20.1,-3.4,224,502,0
L,,216929,0.492,0.086,0.303,-6.6,20.0,-3.0,229,528,0
L,,216939,0.739,0.251,-0.029,-7.2,20.4,-1.4,241,537,0
L,,216949,0.570,0.171,-0.178,-7.9,18.9,-1.9,244,539,0
L,,216959,0.671,-0.003,-0.097,-11.8,17.1,-1.9,288,548,0
L,,216969,0.719,-0.022,-0.085,-16.6,15.0,-1.0,284,550,0
L,,216979,0.599,0.122,-0.109,-21.7,11.0,-1.0,298,546,0
L,,216989,0.517,0.273,-0.121,-25.3,7.9,-0.8,278,551,0
L,,216999,0.526,0.361,-0.087,-28.0,5.4,0.0,286,548,0
L,,217009,0.442,0.553,-0.154,-29.6,4.9,0.9,286,538,0
L,,217019,0.470,0.607,-0.116,-30.6,5.5,1.8,275,548,0
L,,217029,0.499,0.711,-0.150,-31.6,7.2,2.8,275,550,0
L,,217039,0.498,0.748,-0.125,-31.9,8.6,3.5,287,555,0
L,,217049,0.505,0.758,-0.178,-32.8,8.9,4.0,287,548,0
L,,217059,0.501,0.864,-0.191,-32.9,9.6,5.0,285,549,0
L,,217069,0.535,0.911,-0.200,-32.4,10.6,6.8,288,551,0
L,,217079,0.532,1.020,-0.218,-32.3,11.6,8.2,287,550,0
L,,217089,0.572,1.195,-0.269,-31.3,14.5,12.1,284,549,0
L,,217099,0.578,1.081,-0.253,-31.6,14.0,11.3,287,554,0
L,,217109,0.562,1.160,-0.267,-30.7,14.5,12.6,284,548,0
L,,217119,0.555,1.219,-0.220,-30.3,15.2,13.5,279,549,0
L,,217129,0.515,1.408,-0.213,-30.1,15.1,14.1,279,546,0
L,,217139,0.456,1.386,-0.197,-29.7,15.2,13.8,282,546,0
L,,217149,0.382,1.485,-0.187,-28.8,15.4,14.3,281,545,0
L,,217159,0.405,1.445,-0.135,-28.3,15.6,12.3,297,537,0
L,,217169,0.422,1.529,-0.228,-29.3,14.2,11.7,295,539,0
L,,217179,0.467,1.476,-0.325,-29.7,13.0,10.4,296,543,0
L,,217189,0.307,1.680,-0.201,-28.0,14.4,12.4,293,546,0
L,,217199,0.311,1.712,-0.195,-23.7,15.5,16.2,307,548,0
L,,217209,0.503,1.249,-0.292,-23.6,10.5,9.3,282,545,0
L,,217219,0.500,1.051,-0.306,-21.8,6.2,7.6,288,549,0
L,,217229,0.215,1.708,-0.649,-23.4,6.2,11.0,289,556,0
L,,217239,-0.003,1.636,-0.483,-18.3,9.2,10.7,286,558,0
L,,217249,0.058,1.449,-0.467,-15.3,11.0,9.6,294,555,0
L,,217259,0.102,1.344,-0.631,-13.9,10.4,6.4,289,561,0
L,,217269,-0.007,1.429,-0.693,-10.5,11.1,5.4,287,560,0
L,,217279,-0.007,1.445,-0.802,-6.5,12.2,4.0,283,563,0
L,,217289,-0.022,1.416,-0.808,-1.0,14.1,3.2,298,556,0
L,,217299,0.164,1.356,-0.927,3.8,12.0,1.5,306,560,0
L,,217309,0.394,1.234,-0.447,5.6,6.4,-0.4,307,560,0
L,,217319,0.240,1.263,-0.662,8.3,0.7,-1.3,305,565,0
L,,217329,0.314,1.718,0.106,10.0,0.0,-1.3,372,590,0
L,,217339,-1.016,1.509,-0.301,13.6,3.4,-9.7,438,625,0
L,,217349,-0.947,0.914,0.615,13.3,5.0,-10.1,492,670,0
L,,217359,-0.463,1.004,1.025,9.1,7.7,-5.0,522,690,0
L,,217369,0.994,1.862,0.221,13.3,13.8,1.9,542,703,0
L,,217379,0.774,1.565,0.043,21.4,8.1,-5.4,559,717,0
L,,217389,0.364,1.290,-0.133,18.5,0.0,-7.1,555,709,0
L,,217399,0.342,1.446,-0.162,13.6,-9.1,-6.0,590,750,0
L,,217409,0.299,1.222,-0.263,14.5,-11.3,-4.3,603,764,0
L,,217419,0.272,0.757,0.025,11.8,-5.4,-2.8,593,750,0
L,,217429,0.281,1.007,-0.327,10.3,-2.3,-3.3,580,735,0
L,,217439,0.157,1.030,-0.229,8.1,-2.8,-8.4,588,746,0
L,,217449,-0.015,0.971,-0.121,4.0,-6.3,-8.8,593,753,0
L,,217459,0.069,0.984,0.089,3.8,-8.8,-7.1,585,744,0
L,,217469,-0.069,1.003,0.078,2.4,-7.3,-4.2,590,748,0
L,,217479,-0.070,0.887,0.204,2.5,-8.2,-3.5,608,772,0
L,,217489,-0.318,1.166,0.324,3.9,-7.5,-3.2,606,766,0
L,,217499,-0.403,1.108,0.206,7.3,-3.4,-1.9,600,761,0
L,,217509,0.066,0.956,0.133,7.4,1.6,-2.5,595,756,0
L,,217519,0.284,0.864,0.115,5.6,2.1,-3.6,588,746,0
L,,217529,0.274,0.908,0.058,4.3,1.1,-4.2,578,738,0
L,,217539,0.193,0.977,0.103,3.2,-0.2,-4.1,574,731,0
L,,217549,0.117,1.045,0.152,2.5,-0.6,-3.5,577,737,0
L,,217559,0.084,1.071,0.192,2.8,-0.6,-3.4,596,767,0
L,,217569,-0.020,1.011,0.181,3.2,-0.1,-2.9,597,769,0
L,,217579,-0.106,0.994,0.251,3.3,0.5,-2.9,591,763,0
L,,217589,-0.097,0.976,0.169,3.5,1.4,-2.3,595,772,0
L,,217599,-0.058,1.015,0.175,3.8,2.3,-2.1,598,775,0
L,,217609,-0.077,0.976,0.191,4.5,4.8,-1.4,619,810,0
L,,217619,0.271,0.959,0.206,5.3,4.3,-2.0,606,796,0
L,,217629,0.080,1.000,0.148,3.8,1.6,-1.7,595,784,0
L,,217639,0.112,1.045,0.161,3.4,1.1,-2.1,599,792,0
L,,217649,-0.214,1.089,0.179,3.6,0.7,-1.4,604,801,0
L,,217659,0.047,1.019,0.136,3.7,0.8,-2.0,607,804,0
L,,217669,0.013,1.035,0.186,4.1,-0.1,-1.6,607,809,0
L,,217679,-0.083,1.074,0.156,4.5,0.5,-1.5,607,810,0
L,,217689,0.144,0.970,0.108,4.3,0.4,-1.6,604,813,0
L,,217699,-0.099,1.071,0.112,4.7,0.7,-1.7,600,814,0
L,,217709,-0.038,1.083,0.065,5.8,3.4,-2.1,604,829,0
L,,217719,0.045,0.989,0.084,5.0,1.6,-2.3,595,827,0
L,,217729,-0.035,0.988,0.081,4.5,1.2,-2.4,595,837,0
L,,217739,-0.038,1.049,0.080,5.2,2.4,-1.9,584,826,0
L,,217749,0.118,0.970,0.028,4.4,0.7,-2.2,578,825,0
L,,217792,0.048,0.979,0.024,2.8,-1.5,-1.8,550,835,0
L,,217853,0.010,1.014,0.020,5.8,1.0,-3.7,363,844,0
L,,217913,0.022,1.158,0.020,8.2,1.4,-5.0,279,850,0
L,,217973,-0.023,1.121,-0.036,11.3,2.9,-6.0,164,795,0
L,,218035,0.077,1.282,0.067,16.9,9.3,-6.7,97,804,0
L,,218093,0.638,1.533,-0.067,19.8,5.3,-8.8,102,615,0
L,,218153,-0.220,1.933,0.571,14.1,1.0,-5.8,230,418,0
L,,218213,0.027,0.863,-0.207,3.0,-1.9,-7.9,210,473,0
L,,218273,0.561,0.235,-0.012,-12.3,19.1,1.2,235,490,0
L,,218333,0.472,0.572,-0.025,-27.7,13.3,6.6,228,465,0
L,,218423,0.385,1.288,-0.063,-35.5,5.6,14.3,252,484,0
L,,218483,0.219,1.687,-0.399,-31.6,8.0,15.0,265,537,0
L,,218543,-0.264,1.764,-1.030,-17.9,0.2,7.8,237,529,0
L,,218633,-0.155,0.672,1.153,12.5,-4.9,-8.7,536,712,0
L,,218722,-0.152,1.195,-0.396,10.0,-5.8,-9.1,594,754,0
L,,218783,-0.055,0.991,0.068,6.1,-3.6,-3.0,599,762,0
L,,218844,0.206,0.975,0.050,3.3,-3.8,-4.1,623,804,0
L,,218903,0.192,0.804,0.028,6.0,1.8,-3.0,627,827,0
L,,218963,0.114,1.053,0.044,3.9,-4.1,-2.8,614,819,0
L,,219053,0.097,1.068,-0.005,5.7,-1.8,-3.8,539,787,0
L,,219113,0.054,1.069,0.006,6.9,-0.5,-4.2,492,797,0
L,,219173,0.074,1.177,-0.073,10.2,0.2,-5.6,321,813,0
L,,219233,-0.119,1.241,-0.016,14.7,1.9,-7.1,221,787,0
L,,219293,0.063,1.528,0.100,19.1,5.1,-9.0,105,550,0
L,,219353,0.454,2.459,-0.208,24.5,12.7,-12.5,136,534,0
L,,219443,0.029,0.113,-0.010,5.9,10.4,-4.2,263,518,0
L,,219503,0.582,0.180,-0.071,-16.1,6.7,-0.2,275,562,0
L,,219563,0.478,0.585,-0.102,-31.2,6.1,3.1,305,555,0
L,,219625,0.591,1.053,-0.184,-36.4,11.7,8.5,318,564,0
L,,219713,0.354,1.718,-0.246,-30.3,13.0,10.2,328,565,0
L,,219773,0.235,1.567,-0.757,-19.2,7.0,9.9,324,555,0
L,,219833,0.095,1.468,-0.884,6.2,11.9,-0.6,307,557,0
L,,219893,0.177,0.715,0.687,10.5,16.5,-3.3,542,709,0
L,,219953,0.312,1.091,-0.133,10.9,-6.8,-5.3,613,770,0
L,,220013,-0.205,1.044,0.150,6.6,-6.2,-2.3,618,778,0
L,,220073,0.101,1.046,0.184,4.4,-2.1,-2.9,628,796,0
L,,220133,0.004,0.946,0.229,4.3,0.7,-2.4,613,808,0
L,,220193,0.157,1.003,0.068,4.4,-0.5,-2.3,605,846,0
L,,220253,0.070,0.963,0.043,5.2,0.8,-2.5,547,806,0
L,,220315,0.067,1.015,0.015,3.9,-1.4,-2.8,513,789,0
L,,220374,0.005,1.112,0.052,6.0,0.0,-4.0,387,786,0
L,,220433,-0.067,1.183,0.080,9.4,1.9,-5.9,287,741,0
L,,220493,-0.006,1.197,-0.028,13.6,5.3,-7.4,255,791,0
L,,220553,0.409,1.393,0.024,19.4,11.1,-8.5,179,578,0
L,,220613,0.226,1.700,0.112,18.3,6.4,-14.6,237,628,0
L,,220673,-0.271,0.887,-0.201,10.6,21.4,-8.7,275,439,0
L,,220733,0.622,0.419,0.193,-7.8,20.0,-2.6,309,513,0
L,,220793,0.600,0.372,-0.100,-25.6,10.1,-0.4,320,520,0
L,,220853,0.556,0.855,-0.163,-34.2,10.6,6.1,324,534,0
L,,220913,0.518,1.268,-0.226,-31.4,12.8,14.3,317,528,0
L,,220973,0.493,1.580,-0.238,-28.9,5.6,11.1,334,513,0
L,,221035,-0.280,1.535,-0.743,-15.3,4.5,7.2,307,512,0
L,,221093,0.045,1.331,-0.663,9.5,5.7,-0.9,305,534,0
L,,221153,0.889,1.788,-0.061,16.1,5.5,-6.1,559,720,0
L,,221213,0.164,1.109,-0.093,8.0,-4.6,-5.8,574,734,0
L,,221303,0.120,0.961,0.113,4.1,-1.2,-3.5,629,803,0
L,,221363,0.000,1.016,0.190,3.5,-0.2,-2.1,609,804,0
L,,221423,0.165,0.960,0.102,3.0,0.0,-1.7,599,814,0
L,,221483,-0.055,0.978,0.070,3.1,-1.4,-1.6,606,830,0
L,,221543,0.045,0.959,0.063,2.8,-0.5,-2.0,611,827,0
L,,221603,0.014,1.028,0.058,3.5,0.7,-2.3,603,830,0
L,,221664,0.039,1.065,0.110,5.7,0.3,-3.8,563,823,0
L,,221723,0.035,1.146,0.037,8.2,1.0,-4.5,434,827,0
L,,221785,-0.028,1.141,-0.110,10.5,1.4,-5.5,276,814,0
L,,221842,-0.118,1.178,-0.088,13.6,5.0,-6.0,158,798,0
L,,221903,0.607,1.350,0.114,18.9,6.3,-8.0,126,732,0
L,,221963,-0.051,1.529,0.150,15.9,2.0,-13.1,200,534,0
L,,222023,-0.552,0.901,-0.278,9.2,15.1,-15.8,258,451,0
L,,222083,0.594,0.321,0.130,-3.9,24.2,-3.4,290,514,0
L,,222143,0.578,0.369,-0.082,-23.0,9.9,0.8,298,537,0
L,,222203,0.499,0.768,-0.103,-34.2,2.2,6.8,316,559,0
L,,222263,0.368,1.325,-0.042,-33.2,9.1,13.5,318,560,0
L,,222323,0.343,1.907,-0.307,-29.7,10.9,13.7,293,543,0
L,,222383,-0.621,1.576,-1.128,-15.4,10.7,5.6,319,519,0
L,,222445,-0.094,1.422,-0.680,13.1,-6.8,-7.2,398,622,0
L,,222503,0.221,0.938,-0.094,18.3,-7.8,-8.5,599,760,0
L,,222563,-0.025,0.742,0.148,5.9,-8.7,-5.5,563,722,0
L,,222624,0.223,0.898,0.078,4.5,-2.2,-4.2,604,775,0
L,,222683,0.047,1.049,0.186,4.2,-0.1,-4.5,619,800,0
L,,222743,0.113,1.020,0.105,4.8,3.3,-3.7,619,810,0
L,,222803,0.095,1.013,0.011,3.4,0.0,-2.3,616,816,0
L,,222863,0.059,1.025,0.032,3.3,-1.7,-1.9,596,813,0
L,,222923,0.037,1.073,0.023,5.2,0.4,-2.9,539,804,0
L,,222983,0.022,1.119,0.056,9.1,1.4,-4.3,476,850,0
L,,223043,0.168,1.208,-0.134,12.9,2.4,-5.0,264,861,0
L,,223103,0.002,1.145,-0.028,16.2,4.1,-6.0,168,803,0
L,,223165,0.323,1.474,-0.034,18.7,3.3,-7.4,117,583,0
L,,223223,0.055,1.603,0.231,20.0,0.8,-9.9,166,679,0
L,,223283,-0.300,0.690,-0.686,9.6,2.7,-6.9,281,470,0
L,,223343,0.249,0.170,0.087,-5.9,12.7,3.5,327,546,0
L,,223403,0.307,0.339,0.042,-26.5,2.9,3.1,317,562,0
L,,223463,0.347,0.870,-0.053,-32.8,4.7,7.7,345,557,0
L,,223523,0.438,1.269,-0.084,-36.1,4.2,11.2,336,572,0
L,,223583,0.218,1.659,-0.379,-30.7,6.9,13.4,341,569,0
L,,223643,-0.128,1.581,-0.823,-20.6,5.6,7.7,342,559,0
L,,223704,-0.016,1.445,-0.768,9.8,7.6,-2.6,334,589,0
L,,223763,1.135,1.544,-0.092,21.0,1.6,-7.8,592,747,0
L,,223823,-0.324,1.430,-0.436,7.0,-13.9,-10.0,612,771,0
L,,223884,0.035,1.003,0.162,8.8,-1.2,-2.4,632,796,0
L,,223943,0.072,1.016,0.060,3.7,-3.4,-3.1,643,821,0
L,,224003,-0.013,1.044,0.100,5.0,0.9,-2.5,612,807,0
L,,224063,-0.033,1.028,0.050,4.0,1.3,-2.0,602,827,0
L,,224124,0.029,1.028,0.002,4.6,-1.7,-2.0,583,847,0
L,,224183,-0.020,1.052,0.002,5.5,0.3,-4.0,531,856,0
L,,224244,0.019,1.151,0.012,7.5,0.6,-5.1,381,809,0
L,,224303,0.030,1.131,-0.081,11.7,2.9,-6.3,191,788,0
L,,224363,-0.094,1.234,-0.008,16.8,7.5,-7.0,147,637,0
L,,224423,0.563,1.627,0.016,19.3,8.2,-10.0,134,589,0
L,,224483,-0.013,1.734,0.230,17.3,5.0,-9.0,192,500,0
L,,224544,-0.285,0.633,-0.268,9.5,9.8,-8.6,312,507,0
L,,224603,0.423,0.228,-0.011,-8.2,16.8,-0.7,332,528,0
L,,224664,0.484,0.454,-0.031,-26.5,11.1,-0.2,321,542,0
L,,224723,0.333,0.893,-0.132,-34.9,4.6,4.0,347,558,0
L,,224784,0.332,1.339,-0.073,-34.5,11.6,10.1,367,558,0
L,,224843,0.542,1.693,-0.349,-28.6,13.4,10.1,353,559,0
L,,224903,-0.321,1.608,-1.139,-14.7,6.1,4.3,347,540,0
L,,224963,-0.630,1.269,-0.928,17.5,-0.3,-6.1,424,623,0
L,,225023,0.326,1.417,-0.680,15.1,-11.5,-7.3,584,737,0
L,,225083,-0.175,1.110,0.038,4.7,-9.8,-3.4,545,695,0
L,,225143,0.142,0.973,0.024,5.0,-0.2,-2.4,619,781,0
L,,225204,0.202,1.066,0.208,2.8,0.0,-3.5,642,816,0
L,,225265,0.143,1.003,0.091,2.6,-2.5,-2.1,638,817,0
L,,225324,-0.011,0.957,0.111,3.6,-1.4,-1.9,626,819,0
L,,225383,0.032,1.045,0.055,4.7,-1.2,-2.8,609,820,0
L,,225443,-0.001,1.026,0.091,6.7,0.4,-4.1,557,833,0
L,,225502,0.036,1.196,0.000,9.3,1.9,-4.9,433,842,0
L,,225563,-0.040,1.307,-0.142,15.0,7.8,-6.4,267,810,0
L,,225624,0.124,1.292,0.000,17.7,10.8,-6.9,162,775,0
L,,225683,0.327,1.398,-0.025,18.5,5.2,-12.0,110,576,0
L,,225744,-0.324,1.011,0.194,15.3,7.7,-7.2,187,500,0
L,,225803,-0.058,0.383,0.267,2.3,16.4,-1.8,299,454,0
L,,225863,0.321,0.155,-0.107,-14.1,16.4,0.7,303,510,0
L,,225924,0.520,0.590,-0.087,-30.8,12.5,1.8,310,532,0
L,,225983,0.482,1.064,-0.216,-35.9,10.7,7.5,325,556,0
L,,226043,0.395,1.690,-0.204,-32.6,13.5,13.9,324,585,0
L,,226103,0.136,1.742,-0.595,-25.2,6.0,9.6,307,540,0
L,,226164,0.055,1.495,-1.217,2.6,13.5,-0.1,304,531,0
L,,226223,-0.060,0.532,2.067,3.8,3.1,-7.5,517,680,0
L,,226284,0.334,1.285,-0.160,13.0,-7.5,-6.1,598,752,0
L,,226343,-0.205,0.940,0.208,5.8,-8.8,-4.1,618,780,0
L,,226403,0.186,0.947,0.047,3.4,-0.1,-3.6,637,800,0
L,,226463,-0.071,0.977,0.145,2.2,0.8,-2.4,647,820,0
L,,226523,0.066,1.082,0.142,2.7,-0.4,-2.0,636,819,0
L,,226583,0.168,1.025,0.101,3.9,-1.1,-2.2,618,819,0
L,,226645,0.060,1.076,0.045,4.3,-1.8,-2.8,599,824,0
L,,226704,-0.004,1.049,0.076,6.1,0.5,-4.3,531,811,0
L,,226763,0.021,1.105,0.044,8.3,2.9,-5.4,295,830,0
L,,226824,-0.095,0.922,0.073,9.5,5.1,-5.7,195,806,0
L,,226883,-0.037,1.233,-0.079,13.5,6.6,-7.0,142,818,0
L,,226943,0.476,1.389,0.010,16.2,8.4,-8.1,130,702,0
L,,227003,-0.089,1.563,0.101,15.9,1.6,-10.0,150,516,0
L,,227063,-0.467,0.744,-0.910,7.0,9.1,-10.3,300,501,0
L,,227124,0.428,0.336,0.135,-4.5,14.9,2.0,277,501,0
L,,227183,0.232,0.461,0.120,-22.7,11.4,6.7,321,532,0
L,,227244,0.373,0.711,-0.001,-31.8,4.8,11.3,295,501,0
L,,227303,0.170,1.513,-0.029,-35.7,5.6,13.2,299,496,0
L,,227365,0.338,1.762,-0.368,-29.2,15.0,11.1,266,503,0
L,,227423,-0.106,1.576,-0.950,-17.0,10.0,4.4,270,513,0
L,,227483,0.151,1.297,-0.822,11.0,-2.1,-3.2,279,544,0
L,,227543,1.164,1.540,0.115,14.8,-0.3,-5.7,577,732,0
L,,227603,0.163,1.115,-0.459,9.5,-1.5,-7.0,583,734,0
L,,227664,-0.155,0.984,0.169,6.3,-3.8,-1.8,606,761,0
L,,227723,-0.029,1.121,0.141,4.7,1.3,-3.0,638,802,0
L,,227784,-0.033,0.985,0.120,4.1,0.6,-1.6,619,792,0
L,,227843,-0.025,1.007,0.124,2.7,-1.0,-2.3,629,816,0
L,,227904,0.001,1.055,0.087,2.7,-1.6,-2.0,613,811,0
L,,227963,0.025,1.024,0.065,3.3,0.0,-2.8,586,812,0
L,,228025,-0.018,1.067,0.107,5.6,1.4,-4.1,513,822,0
L,,228083,-0.032,1.161,0.067,9.3,3.6,-5.4,286,812,0
L,,228143,-0.058,1.147,-0.126,10.3,2.6,-5.7,209,798,0
L,,228204,0.028,1.358,0.039,14.4,8.0,-5.1,132,789,0
L,,228263,0.699,1.318,-0.050,18.6,5.7,-8.5,111,508,0
L,,228324,-0.204,1.216,0.121,15.1,7.8,-7.9,199,430,0
L,,228383,0.045,0.305,0.259,2.8,11.4,-4.7,280,491,0
L,,228444,0.397,0.199,0.084,-5.9,22.7,0.9,259,492,0
L,,228503,0.473,0.579,0.009,-25.4,13.2,4.9,256,486,0
L,,228563,0.392,0.948,-0.129,-33.9,5.9,7.4,276,505,0
L,,228624,0.118,1.560,-0.053,-35.8,3.8,10.0,287,516,0
L,,228683,0.126,1.725,-0.419,-27.4,9.8,10.0,295,511,0
L,,228745,-0.217,1.488,-1.308,-12.5,5.1,0.5,269,494,0
L,,228803,-0.136,1.085,-0.514,13.7,-12.3,-7.0,488,666,0
L,,228864,0.012,1.272,-0.254,13.3,-8.2,-9.1,588,743,0
L,,228923,-0.113,0.806,0.196,3.8,-9.8,-3.1,590,747,0
L,,228983,0.336,0.927,0.066,3.6,-2.8,-4.4,566,712,0
L,,229043,-0.132,1.032,0.240,4.4,1.1,-3.4,595,754,0
L,,229103,0.259,0.975,0.128,4.1,-1.6,-2.7,612,779,0
L,,229164,-0.030,0.981,0.101,4.4,0.3,-1.8,622,809,0
L,,229223,-0.120,1.020,0.007,3.3,-2.3,-2.3,618,818,0
L,,229284,0.017,1.028,0.049,4.6,-0.4,-3.6,573,788,0
L,,229343,0.037,1.114,0.031,7.4,1.4,-4.2,534,819,0
L,,229404,0.005,1.115,-0.123,8.3,0.2,-4.5,282,828,0
L,,229465,-0.049,1.189,-0.061,11.8,4.9,-4.1,241,690,0
L,,229523,0.200,1.544,0.046,17.2,7.6,-5.0,211,768,0
L,,229583,0.303,1.669,-0.151,18.9,5.7,-12.7,198,644,0
L,,229643,-0.187,1.128,-0.150,16.2,14.7,-5.6,248,449,0
L,,229704,-0.006,0.101,0.442,0.2,13.2,-2.7,302,477,0
L,,229763,0.307,0.208,-0.041,-14.6,11.0,2.6,305,515,0
L,,229824,0.427,0.562,-0.102,-28.7,7.2,4.9,305,522,0
L,,229883,0.536,1.132,-0.192,-32.4,11.9,8.1,314,553,0
L,,229944,0.436,1.517,-0.156,-32.8,6.5,9.6,329,540,0
L,,230003,0.318,1.648,-0.488,-24.5,6.9,9.9,303,531,0
L,,230063,-0.253,1.548,-1.093,-7.1,11.2,1.4,307,520,0
L,,230125,0.088,1.228,0.551,15.5,2.8,-5.7,539,707,0
L,,230183,0.406,0.977,0.097,12.8,-9.3,-6.6,548,694,0
L,,230244,-0.080,0.956,0.033,4.0,-8.2,-3.9,557,713,0
L,,230303,0.316,1.034,0.084,2.7,-0.7,-3.5,595,753,0
L,,230364,-0.008,0.996,0.195,1.4,-0.9,-3.8,642,806,0
L,,230423,0.114,1.023,0.152,4.1,1.0,-1.9,627,787,0
L,,230484,-0.016,0.971,0.080,3.8,-0.9,-1.8,633,796,0
L,,230543,-0.012,1.030,0.053,3.2,-4.0,-2.0,605,781,0
L,,230603,0.054,1.046,0.097,5.2,-0.9,-3.7,617,816,0
L,,230664,0.007,1.097,0.063,7.2,0.3,-5.0,528,753,0
L,,230723,-0.069,1.154,-0.091,9.2,2.3,-5.3,405,828,0
L,,230784,-0.083,1.253,-0.079,10.5,4.8,-5.3,277,847,0
L,,230845,0.312,1.312,-0.038,13.3,9.3,-7.3,170,808,0
L,,230904,0.548,1.451,-0.145,18.7,6.2,-9.0,238,733,0
L,,230963,-0.255,1.124,0.073,13.9,4.1,-7.3,239,477,0
L,,231024,0.103,0.548,0.170,2.2,7.7,-7.1,319,535,0
L,,231083,0.325,0.222,-0.041,-11.1,16.9,1.1,276,533,0
L,,231143,0.502,0.605,-0.089,-25.3,12.1,3.3,264,501,0
L,,231203,0.415,0.997,-0.181,-33.5,6.6,5.7,289,512,0
L,,231304,0.186,1.498,-0.265,-28.8,11.1,9.5,302,539,0
L,,231324,0.095,1.686,-0.341,-26.5,10.7,10.3,322,538,0
L,,231383,-0.086,1.429,-0.953,-12.3,13.1,3.5,271,517,0
L,,231444,-0.049,1.378,-0.669,15.0,6.2,-4.3,505,675,0
L,,231503,0.487,0.954,0.026,14.4,-9.7,-5.9,584,739,0
L,,231565,-0.383,1.016,0.033,7.2,-7.2,-3.3,547,698,0
L,,231624,0.225,0.930,0.017,3.0,-3.7,-3.9,604,759,0
L,,231683,-0.189,1.031,0.165,3.2,-2.7,-2.6,628,791,0
L,,231744,0.241,0.955,-0.004,3.6,-2.8,-3.0,635,804,0
L,,231803,0.116,0.952,0.020,3.9,0.1,-1.7,632,814,0
L,,231864,-0.030,1.079,0.039,3.2,-2.9,-2.8,615,807,0
L,,231923,0.020,1.007,-0.009,3.7,-0.5,-3.7,596,808,0
L,,231984,-0.022,1.146,0.047,6.9,1.6,-5.4,536,814,0
L,,232043,-0.095,1.254,0.018,10.4,3.1,-6.2,308,844,0
L,,232103,0.037,1.518,0.112,17.0,9.9,-7.7,211,701,0
L,,232164,0.144,1.586,0.116,23.2,17.9,-13.0,143,674,0
L,,232255,-0.831,0.302,-0.123,8.4,23.2,-14.9,252,477,0
L,,232314,0.757,0.153,0.091,-5.9,26.0,-4.6,292,518,0
L,,232374,0.689,0.355,-0.036,-27.4,7.9,-1.6,333,535,0
L,,232433,0.595,0.875,-0.074,-35.0,6.7,5.8,354,547,0
L,,232494,0.644,1.479,-0.219,-34.3,11.9,14.5,344,564,0
L,,232583,0.154,1.667,-1.117,-22.7,10.9,8.8,300,502,0
L,,232643,-0.228,1.522,-0.826,3.9,4.7,-2.2,328,518,0
L,,232704,0.224,1.900,0.373,12.6,4.2,-7.9,449,567,0
L,,232763,0.100,0.611,0.132,5.7,-10.4,-7.2,601,761,0
L,,232824,-0.009,1.097,0.211,6.0,-4.0,-3.2,620,785,0
L,,232883,0.159,1.011,0.112,1.8,-2.7,-2.8,634,807,0
L,,232944,-0.019,1.005,0.058,3.4,1.4,-2.2,639,823,0
L,,233005,-0.002,1.045,0.091,3.3,0.7,-2.4,634,831,0
L,,233064,0.099,1.027,0.092,4.0,-1.3,-2.6,619,828,0
L,,233124,0.101,1.043,0.060,5.9,0.0,-3.8,586,838,0
L,,233183,-0.057,1.121,0.023,8.2,0.6,-5.1,480,843,0
L,,233244,0.057,1.179,-0.077,10.8,0.4,-5.4,292,838,0
L,,233303,-0.062,1.506,0.078,17.3,7.9,-6.1,199,827,0
L,,233364,0.415,1.579,0.214,22.8,12.1,-11.8,163,645,0
L,,233423,0.030,1.286,0.141,17.2,10.3,-10.6,223,513,0
L,,233484,-0.014,0.611,0.453,2.4,10.5,-6.7,290,499,0
L,,233574,0.326,0.297,0.016,-24.6,4.4,5.2,327,550,0
L,,233633,0.213,0.742,0.009,-33.3,0.2,10.9,341,574,0
L,,233695,0.264,1.420,0.006,-37.2,3.4,15.6,354,582,0
L,,233753,0.227,2.008,-0.503,-30.3,12.7,14.4,318,529,0
L,,233814,-0.437,1.627,-1.345,-14.3,6.5,3.2,321,535,0
L,,233874,0.225,1.733,-0.260,12.3,-7.4,-6.1,456,658,0
L,,233933,-0.009,1.107,-0.273,15.2,-7.4,-9.6,587,740,0
L,,233994,-0.154,1.028,-0.002,4.9,-8.4,-3.6,577,734,0
L,,234053,0.230,0.957,0.032,4.2,-1.9,-5.3,626,797,0
L,,234114,-0.047,1.019,0.145,3.7,-1.1,-2.3,616,792,0
L,,234173,0.084,1.010,0.004,3.4,-1.9,-1.6,611,802,0
L,,234234,0.046,1.021,-0.003,4.0,-1.7,-2.1,566,765,0
L,,234293,0.056,1.038,0.030,5.0,-1.6,-3.2,555,790,0
L,,234354,0.026,1.107,0.015,7.4,0.2,-4.3,493,782,0
L,,234416,0.070,1.177,-0.045,11.3,0.2,-4.9,379,850,0
L,,234473,-0.059,1.227,-0.096,15.0,3.2,-5.5,203,835,0
L,,234534,0.296,1.362,0.167,19.6,4.7,-8.4,140,686,0
L,,234593,0.187,1.746,0.143,24.0,8.9,-11.3,135,487,0
L,,234654,0.162,0.958,-0.215,17.6,11.7,-6.6,257,526,0
L,,234713,0.266,-0.034,0.451,-5.2,15.6,-0.6,273,557,0
L,,234774,0.562,0.274,-0.039,-24.6,10.0,-3.5,279,575,0
L,,234833,0.769,0.791,-0.090,-35.8,9.8,0.6,294,587,0
L,,234894,0.579,1.340,-0.108,-36.4,11.5,10.3,304,590,0
L,,234954,0.384,1.796,-0.449,-33.1,10.4,10.5,299,574,0
L,,235043,-0.081,1.467,-1.371,2.5,11.4,-1.1,318,554,0
L,,235104,1.212,2.412,-0.063,14.2,3.7,-1.9,558,704,0
L,,235166,-0.333,1.345,-0.532,9.0,-5.4,-7.8,579,734,0
L,,235223,-0.067,0.998,0.033,5.8,-3.5,-1.3,606,768,0
L,,235284,0.061,1.048,0.147,2.3,-1.1,-4.3,611,777,0
L,,235343,-0.001,1.060,0.126,4.1,1.2,-2.0,614,795,0
L,,235404,0.130,0.999,0.064,5.1,-0.1,-2.2,617,807,0
L,,235463,0.100,0.975,-0.044,4.0,-1.9,-2.6,607,817,0
L,,235524,-0.034,1.030,0.011,2.1,-1.9,-2.5,590,818,0
L,,235583,0.027,1.136,0.136,6.9,0.6,-4.5,546,825,0
L,,235644,0.102,1.179,0.034,10.6,1.5,-4.8,376,812,0
L,,235704,-0.043,1.287,-0.087,15.8,8.8,-5.0,186,809,0
L,,235763,0.209,1.560,0.186,17.8,4.9,-6.2,155,769,0
L,,235825,0.097,1.653,0.277,20.2,2.4,-12.9,132,629,0
L,,235883,-0.011,0.531,-0.283,17.8,21.2,-9.2,248,534,0
L,,235944,0.495,0.138,0.465,-3.3,23.3,-5.3,305,531,0
L,,236003,0.484,0.367,-0.111,-23.2,11.7,-3.8,332,569,0
L,,236064,0.684,0.847,-0.181,-33.2,11.8,1.4,343,533,0
L,,236124,0.622,1.263,-0.191,-34.6,10.0,9.4,368,574,0
L,,236184,0.237,1.735,-0.385,-29.8,11.2,11.2,329,583,0
L,,236244,-0.139,1.613,-0.813,-19.8,3.2,7.7,337,581,0
L,,236303,-0.051,1.719,-1.009,10.4,4.4,-5.1,427,676,0
L,,236364,0.381,0.955,-0.584,20.1,-7.2,-7.4,598,748,0
L,,236423,-0.148,0.911,0.044,4.8,-7.6,-2.7,600,756,0
L,,236484,0.207,0.986,0.040,5.1,-1.1,-3.2,630,798,0
L,,236545,-0.164,1.035,0.135,5.2,2.3,-3.0,634,823,0
L,,236604,0.131,1.015,0.031,4.2,1.7,-3.1,588,799,0
L,,236664,0.123,0.953,0.019,4.6,0.7,-1.8,563,813,0
L,,236724,-0.125,0.955,-0.010,2.1,-3.4,-1.7,534,807,0
L,,236784,0.040,1.095,0.071,4.3,0.0,-3.5,471,823,0
L,,236843,-0.018,1.178,0.034,7.4,0.0,-4.8,373,807,0
L,,236904,-0.019,1.149,-0.120,11.6,2.7,-5.2,209,826,0
L,,236963,-0.024,1.215,-0.056,15.6,6.6,-6.5,153,721,0
L,,237024,0.383,1.625,-0.006,18.9,6.8,-8.6,142,728,0
L,,237083,0.122,1.819,0.026,17.7,4.3,-8.8,224,597,0
L,,237144,-0.646,0.105,-0.617,5.5,12.3,-7.0,294,523,0
L,,237204,0.404,0.182,0.180,-7.4,17.1,-2.4,299,553,0
L,,237265,0.469,0.504,-0.048,-24.2,12.6,2.9,279,524,0
L,,237324,0.454,0.839,-0.049,-34.1,6.4,4.6,304,541,0
L,,237383,0.306,1.459,-0.130,-34.8,11.7,9.6,317,563,0
L,,237444,0.259,1.588,-0.245,-29.9,19.4,9.4,312,572,0
L,,237503,0.218,1.401,-0.697,-18.7,12.2,4.1,318,543,0
L,,237605,0.093,1.319,-0.651,10.6,-10.8,-6.1,356,599,0
L,,237624,-0.158,0.489,1.455,8.1,-10.4,-9.4,478,627,0
L,,237684,0.101,1.148,0.020,9.3,-8.5,-6.9,595,746,0
L,,237744,-0.176,0.731,0.199,4.8,-7.1,-6.0,599,752,0
L,,237804,0.114,1.031,0.148,4.5,0.4,-2.6,609,764,0
L,,237864,-0.296,0.985,0.233,2.7,0.8,-1.6,610,784,0
L,,237925,0.020,0.975,0.048,4.3,-1.7,-3.0,586,782,0
L,,237983,0.136,0.921,0.083,3.8,0.0,-1.4,591,812,0
L,,238043,-0.042,0.998,0.000,3.8,-0.9,-1.8,572,814,0
L,,238104,-0.037,1.056,0.056,4.0,0.1,-3.2,529,816,0
L,,238164,-0.057,1.098,0.003,5.1,1.4,-3.5,404,835,0
L,,238224,0.012,1.047,-0.074,7.3,1.6,-4.6,351,832,0
L,,238284,-0.038,0.942,0.040,5.3,3.0,-4.7,263,802,0
L,,238343,0.130,1.430,-0.028,13.5,9.9,-5.1,163,794,0
L,,238404,0.652,1.320,-0.143,16.3,11.0,-9.9,150,581,0
L,,238463,-0.196,1.275,0.114,13.0,14.1,-9.5,223,448,0
L,,238524,0.229,0.670,0.583,0.6,8.5,-6.1,317,538,0
L,,238583,0.373,0.223,0.111,-13.2,18.6,2.0,304,528,0
L,,238645,0.566,0.740,-0.017,-28.5,15.1,3.5,301,477,0
L,,238704,0.275,1.424,-0.109,-30.6,16.6,8.0,238,424,0
L,,238764,0.398,1.517,-0.316,-24.1,13.8,3.6,298,501,0
L,,238824,0.251,1.413,-0.637,-20.2,6.4,6.0,314,513,0
L,,238883,-0.026,1.334,-0.855,-7.7,-2.9,1.3,336,574,0
L,,238944,-0.573,1.102,-0.500,9.0,-8.1,-5.7,474,679,0
L,,239003,0.270,1.135,-0.481,16.4,-6.1,-5.5,595,754,0
L,,239064,0.015,0.907,-0.005,3.5,-5.5,-4.6,579,736,0
L,,239124,0.116,1.027,-0.002,4.3,0.4,-2.2,573,722,0
L,,239184,-0.049,0.980,0.137,2.1,0.7,-2.3,632,799,0
L,,239244,0.176,1.067,0.184,2.8,-0.4,-1.6,627,800,0
L,,239304,0.141,0.986,0.112,3.7,-0.1,-1.1,642,828,0
L,,239366,0.058,1.013,0.055,4.5,-0.2,-1.9,589,777,0
L,,239423,0.043,1.041,0.033,5.2,0.5,-2.5,569,779,0
L,,239484,0.000,1.096,0.047,7.7,1.2,-3.3,455,766,0
L,,239543,0.147,1.101,-0.046,10.5,2.7,-3.8,306,804,0
L,,239604,0.020,1.198,-0.064,13.3,4.5,-3.6,144,669,0
L,,239664,0.343,1.487,0.118,18.7,7.7,-4.0,156,801,0
L,,239724,0.165,1.412,0.079,19.5,-2.2,-6.2,110,653,0
L,,239784,-0.066,0.935,0.108,14.1,7.9,-4.2,251,460,0
L,,239844,-0.400,0.337,0.520,1.8,17.2,0.4,298,558,0
L,,239904,0.162,0.246,0.042,-15.5,12.6,4.6,261,528,0
L,,239963,0.307,0.709,-0.102,-27.5,8.6,6.7,290,528,0
L,,240025,0.162,1.373,-0.107,-34.2,0.9,7.3,236,436,0
L,,240083,0.103,1.563,-0.241,-30.4,-0.8,6.3,238,464,0
L,,240144,0.105,1.545,-0.463,-23.1,-2.8,5.8,295,571,0
L,,240204,-0.040,1.351,-0.799,-8.8,-0.2,-0.7,313,565,0
L,,240264,-0.020,1.187,-0.510,7.3,-9.0,-6.0,349,584,0
L,,240324,0.656,1.977,-0.032,14.2,-11.4,-7.2,510,648,0
L,,240384,0.309,1.008,0.004,7.9,-5.3,-7.2,553,693,0
L,,240474,0.302,0.960,0.095,4.2,-2.1,-6.5,612,772,0
L,,240534,-0.020,0.983,0.145,4.3,-1.5,-3.6,612,778,0
L,,240594,0.155,1.011,0.030,2.2,-1.9,-2.8,626,809,0
L,,240654,0.058,0.994,0.037,3.9,1.0,-2.5,586,767,0
L,,240713,0.083,0.990,-0.051,3.2,-4.2,-2.6,595,791,0
L,,240775,-0.033,1.060,0.016,4.3,-1.6,-4.0,556,775,0
L,,240833,-0.057,1.116,-0.058,7.9,2.0,-5.4,510,829,0
L,,240894,-0.003,1.268,-0.062,12.7,4.6,-6.1,271,804,0
L,,240954,-0.127,1.530,0.012,15.8,7.5,-8.9,200,701,0
L,,241014,0.081,1.488,0.113,16.7,15.6,-15.2,162,707,0
L,,241074,-0.282,0.654,-0.249,5.6,19.6,-9.9,311,521,0
L,,241134,0.438,0.053,0.509,-6.3,23.1,-2.7,333,572,0
L,,241194,0.673,0.354,0.020,-23.5,10.7,-0.3,322,530,0
L,,241253,0.607,0.851,-0.062,-34.1,9.5,5.0,344,567,0
L,,241314,0.591,1.481,-0.059,-34.3,12.1,11.4,305,542,0
L,,241374,0.419,1.907,-0.453,-27.5,10.3,11.4,226,440,0
L,,241435,-0.085,1.642,-1.674,-3.9,15.0,4.1,262,498,0
L,,241494,-0.568,0.801,0.305,14.8,6.5,-5.1,499,675,0
L,,241554,0.281,1.036,-0.104,13.2,-9.2,-4.8,585,740,0
L,,241614,-0.004,0.963,0.020,5.8,-3.3,-5.8,542,689,0
L,,241674,0.059,0.997,0.125,2.6,-2.6,-2.3,621,786,0
L,,241734,-0.010,1.004,0.134,3.5,0.9,-3.1,563,723,0
L,,241793,0.084,1.065,0.136,3.0,0.8,-2.3,599,782,0
L,,241854,0.080,0.909,0.054,3.0,-0.5,-1.6,589,798,0
L,,241914,0.017,0.980,-0.023,2.2,-1.5,-1.2,580,813,0
L,,241974,-0.014,1.045,0.009,2.5,-0.8,-2.0,566,831,0
L,,242034,0.022,1.015,0.048,4.0,0.9,-2.9,504,846,0
L,,242094,0.001,1.086,-0.032,6.0,1.9,-3.5,395,831,0
L,,242156,-0.054,1.134,-0.048,8.9,1.6,-4.5,246,691,0
L,,242214,0.099,1.236,-0.053,12.6,6.1,-5.0,179,792,0
L,,242274,0.208,1.231,0.076,17.1,5.8,-6.6,162,798,0
L,,242333,0.084,1.520,0.033,16.2,7.3,-10.4,148,549,0
L,,242394,-0.064,1.100,-0.088,11.0,20.9,-6.8,267,472,0
L,,242454,0.053,0.252,0.405,1.5,24.2,-2.2,337,528,0
L,,242514,0.529,0.213,-0.035,-18.6,13.8,-1.5,307,545,0
L,,242574,0.684,0.724,-0.088,-32.1,3.3,3.9,324,552,0
L,,242634,0.385,1.216,-0.081,-32.7,6.5,11.4,346,583,0
L,,242694,0.132,1.654,-0.103,-31.1,9.7,10.1,341,559,0
L,,242754,-0.183,1.601,-0.890,-20.3,10.6,7.2,282,483,0
L,,242814,0.477,1.210,-0.657,5.4,3.7,-3.0,320,516,0
L,,242875,0.139,1.275,1.257,10.7,3.6,-10.2,561,711,0
L,,242934,0.194,1.109,-0.165,9.2,-3.3,-5.1,577,725,0
L,,242994,0.082,0.953,0.107,2.6,-5.2,-3.9,582,733,0
L,,243054,0.145,1.010,0.241,3.0,0.0,-5.4,608,762,0
L,,243114,0.017,1.009,0.180,4.3,1.0,-2.8,615,770,0
L,,243174,0.010,1.023,0.160,2.7,-2.7,-2.3,641,801,0
L,,243234,0.050,1.013,0.098,3.6,0.0,-1.1,639,803,0
L,,243293,-0.056,1.058,0.089,3.1,-0.3,-1.4,636,808,0
L,,243354,0.060,1.037,0.051,3.9,0.1,-2.5,632,826,0
L,,243414,-0.002,1.081,0.008,5.7,0.6,-3.8,601,826,0
L,,243474,-0.131,1.111,0.044,9.8,4.3,-4.2,442,851,0
L,,243566,-0.019,1.328,0.015,14.4,8.1,-3.5,148,788,0
L,,243624,0.356,1.343,0.089,19.6,7.8,-7.0,171,791,0
L,,243684,0.303,2.082,-0.264,19.2,4.3,-12.3,180,686,0
L,,243744,-0.188,-0.544,0.387,10.6,15.5,-6.0,320,527,0
L,,243804,0.528,0.142,0.317,-1.1,29.6,-2.8,313,533,0
L,,243864,0.462,0.424,0.085,-22.1,12.8,0.5,304,550,0
L,,243924,0.529,0.868,-0.102,-32.8,5.9,2.7,341,573,0
L,,243984,0.419,1.282,-0.015,-35.2,1.5,7.7,336,588,0
L,,244044,0.261,1.705,-0.203,-32.1,5.0,10.0,329,571,0
L,,244104,-0.132,1.548,-0.872,-20.1,-1.3,5.7,323,565,0
L,,244164,0.187,1.347,-0.856,6.8,-8.5,-3.8,318,548,0
L,,244223,0.748,1.280,0.223,8.1,-2.5,-2.0,592,755,0
L,,244286,0.058,1.202,-0.453,9.3,-7.2,-7.8,583,739,0
L,,244344,0.012,0.967,0.170,4.4,-5.1,-3.4,599,756,0
L,,244404,0.224,0.991,0.156,3.0,-2.3,-4.3,616,782,0
L,,244464,0.088,0.985,0.062,3.8,1.3,-2.3,635,815,0
L,,244524,-0.010,1.020,0.050,3.3,-1.0,-3.5,631,811,0
L,,244583,0.036,1.022,0.086,2.8,-1.6,-1.8,643,831,0
L,,244644,0.033,1.039,0.035,3.0,-1.2,-2.5,628,828,0
L,,244704,0.019,1.060,0.047,4.9,0.0,-3.4,610,827,0
L,,244764,0.000,1.085,-0.013,8.0,1.7,-4.0,539,829,0
L,,244824,0.166,1.131,-0.061,8.0,2.2,-4.5,262,709,0
L,,244884,0.030,1.181,-0.091,12.8,5.8,-5.3,159,739,0
L,,244944,0.230,1.513,0.105,18.6,8.4,-4.5,136,676,0
L,,245005,0.479,1.980,0.004,14.8,-0.3,-9.5,132,624,0
L,,245064,-0.203,0.862,0.158,14.7,13.9,-4.0,257,505,0
L,,245124,-0.110,0.228,0.510,2.5,22.2,-0.6,289,548,0
L,,245184,0.321,0.213,0.036,-16.4,15.9,2.5,295,575,0
L,,245244,0.494,0.731,-0.093,-28.9,9.1,3.4,308,570,0
L,,245304,0.344,1.338,-0.217,-34.7,4.2,7.4,318,585,0
L,,245364,0.193,1.465,-0.257,-29.1,3.1,6.6,324,586,0
L,,245424,0.172,1.543,-0.500,-24.6,2.9,5.9,308,603,0
L,,245484,-0.201,1.359,-0.792,-8.1,8.0,0.9,318,575,0
L,,245544,0.235,1.721,-0.346,11.1,0.0,-7.1,383,632,0
L,,245604,0.452,1.282,-0.161,18.9,-9.9,-9.4,604,761,0
L,,245666,-0.188,0.856,0.123,7.8,-8.8,-3.7,620,779,0
L,,245724,0.194,0.932,0.021,6.3,-1.8,-3.9,639,812,0
L,,245784,0.098,1.016,0.040,5.5,2.2,-3.0,607,782,0
L,,245844,0.031,1.034,0.069,4.6,1.2,-2.3,603,810,0
L,,245904,-0.026,1.050,0.079,5.0,2.7,-2.9,590,838,0
L,,245994,0.041,0.917,-0.126,3.7,-0.5,-1.0,515,853,0
L,,246053,-0.014,0.988,-0.139,3.0,-1.1,-2.1,445,850,0
L,,246114,0.054,1.130,-0.014,6.4,0.3,-3.4,374,834,0
L,,246174,-0.121,1.138,-0.026,10.1,0.0,-4.2,187,662,0
L,,246234,-0.107,1.230,-0.105,13.8,3.8,-5.0,176,711,0
L,,246294,0.057,1.349,0.029,17.4,4.1,-7.2,169,715,0
L,,246354,0.074,1.492,0.057,15.5,6.3,-11.7,185,614,0
L,,246416,-0.168,1.125,-0.186,12.2,17.4,-9.9,243,507,0
L,,246474,0.156,0.461,0.314,0.0,19.8,-4.2,292,527,0
L,,246534,0.423,0.359,-0.244,-14.9,3.7,-1.8,335,554,0
L,,246594,0.186,0.730,-0.358,-25.1,0.3,1.1,362,565,0
L,,246654,0.196,1.013,-0.385,-25.8,7.5,4.9,354,576,0
L,,246714,0.437,1.176,-0.342,-25.1,4.9,5.4,355,600,0
L,,246774,0.315,1.244,-0.203,-21.8,3.8,7.0,368,619,0
L,,246834,0.145,1.249,-0.107,-18.2,6.8,5.8,376,630,0
L,,246894,0.314,1.162,-0.207,-10.8,11.9,5.1,366,619,0
L,,246954,0.234,1.047,-0.373,-0.7,4.9,0.8,374,625,0
L,,247014,-1.061,1.142,-0.161,10.0,2.9,-10.3,503,709,0
L,,247074,0.386,1.339,-0.423,16.2,-7.1,-6.9,572,716,0
L,,247135,-0.308,1.009,-0.042,7.3,-7.9,-2.9,609,765,0
L,,247194,0.183,0.969,0.010,3.7,-1.7,-2.3,644,809,0
L,,247254,-0.132,1.071,0.192,6.4,3.7,-3.0,650,827,0
L,,247314,-0.081,1.045,0.155,5.5,4.5,-2.2,633,837,0
L,,247375,0.021,1.083,0.054,5.3,1.0,-2.6,599,848,0
L,,247434,-0.062,0.943,-0.115,4.5,0.6,-3.2,492,843,0
L,,247494,0.044,0.961,-0.077,2.5,-1.8,-2.7,433,859,0
L,,247554,-0.034,1.114,-0.036,6.0,1.0,-4.2,299,752,0
L,,247644,-0.305,1.376,-0.230,13.0,3.0,-4.9,228,831,0
L,,247705,0.381,1.137,-0.032,13.8,6.3,-9.6,145,781,0
L,,247764,0.317,1.570,-0.217,16.3,11.6,-10.4,186,669,0
L,,247826,-0.258,1.025,0.285,8.7,12.3,-3.2,241,497,0
L,,247883,0.490,0.274,0.411,-2.9,12.7,-8.0,284,485,0
L,,247944,0.862,0.170,-0.150,-11.9,20.2,-1.7,304,516,0
L,,248004,0.575,0.474,-0.299,-26.1,6.5,1.3,336,535,0
L,,248064,0.555,0.963,-0.292,-30.5,8.1,7.0,331,545,0
L,,248125,0.498,1.116,-0.195,-28.8,9.3,11.2,351,545,0
L,,248184,0.389,1.544,-0.391,-27.0,5.2,11.7,321,507,0
L,,248244,-0.332,1.558,-0.608,-17.6,5.1,4.6,332,543,0
L,,248304,0.401,1.291,-0.602,8.0,4.7,-1.4,351,588,0
L,,248364,0.409,1.404,0.586,12.7,4.9,-10.9,572,731,0
L,,248424,-0.141,0.964,0.034,8.0,-7.4,-7.9,614,776,0
L,,248484,-0.027,1.034,0.099,3.9,-3.4,-1.0,616,775,0
L,,248545,0.028,1.095,0.180,3.2,-1.4,-2.8,636,801,0
L,,248604,0.049,0.986,0.052,4.3,3.5,-1.9,645,822,0
L,,248665,-0.049,0.990,0.078,3.9,2.3,-2.1,643,833,0
L,,248724,0.072,0.969,0.014,2.9,-1.4,-1.1,625,824,0
L,,248784,0.031,1.025,0.034,3.0,-0.8,-2.0,629,842,0
L,,248844,0.002,1.089,0.113,5.8,-0.3,-3.2,593,838,0
L,,248904,0.060,1.186,-0.062,10.0,2.4,-4.0,413,839,0
L,,248964,0.001,1.302,-0.057,13.1,1.5,-5.0,250,834,0
L,,249024,0.175,1.531,0.096,19.1,7.0,-4.4,180,795,0
L,,249084,0.377,1.629,-0.087,22.7,2.2,-12.1,179,643,0
L,,249144,-0.009,1.095,-0.060,15.2,7.6,-6.9,254,489,0
L,,249206,-0.068,0.237,0.416,-0.4,14.1,-1.9,335,558,0
L,,249264,0.280,0.076,0.021,-17.1,10.9,3.5,338,568,0
L,,249324,0.385,0.627,-0.062,-32.2,1.2,7.2,331,557,0
L,,249384,0.251,1.353,-0.136,-36.0,4.4,11.8,336,567,0
L,,249444,0.383,1.546,-0.284,-25.7,13.3,10.9,313,535,0
L,,249504,0.212,1.505,-0.861,-19.8,5.4,7.3,325,540,0
L,,249564,0.086,1.309,-0.883,3.8,4.8,-0.2,344,555,0
L,,249625,0.011,0.578,1.080,10.5,1.1,-5.3,555,722,0
L,,249684,0.339,0.954,0.019,11.6,-8.8,-5.9,590,747,0
L,,249745,-0.037,1.037,-0.058,5.7,-8.0,-4.2,578,734,0
L,,249804,0.167,1.009,0.026,3.4,-1.8,-3.3,634,808,0
L,,249864,0.047,0.932,0.077,4.7,1.6,-2.7,602,775,0
L,,249925,0.105,1.051,0.024,4.0,-0.8,-2.8,606,795,0
L,,249984,0.076,1.043,0.006,4.0,-0.5,-1.7,608,816,0
L,,250044,0.052,1.029,-0.012,4.1,-0.6,-1.7,607,846,0
L,,250104,0.078,1.063,0.036,4.9,-0.5,-2.3,517,799,0
L,,250165,0.006,1.141,0.020,8.3,1.1,-3.5,408,799,0
L,,250224,-0.020,1.127,-0.045,11.9,0.5,-3.2,259,818,0
L,,250285,-0.048,1.321,-0.028,16.2,5.2,-3.4,172,802,0
L,,250344,0.419,1.608,0.031,21.5,1.6,-8.8,154,782,0
L,,250404,0.004,1.516,0.101,20.4,4.1,-8.3,223,642,0
L,,250464,-0.174,1.026,-0.345,10.8,0.7,-5.6,320,539,0
L,,250524,0.443,0.130,-0.040,-9.3,13.8,0.0,335,552,0
L,,250584,0.442,0.476,-0.053,-25.0,11.0,0.7,322,551,0
L,,250646,0.323,1.006,-0.177,-33.2,11.9,3.7,343,551,0
L,,250705,0.406,1.308,-0.230,-32.7,6.0,7.3,344,575,0
L,,250764,0.591,1.512,-0.327,-30.5,3.5,8.0,332,549,0
L,,250825,0.108,1.309,-0.701,-16.1,-4.7,7.4,340,567,0
L,,250884,0.440,1.333,-0.585,5.6,-15.4,-2.7,349,579,0
L,,250944,-0.451,0.999,0.877,8.2,-2.4,-6.7,531,697,0
L,,251003,0.311,1.438,-0.217,11.7,-6.9,-2.9,610,767,0
L,,251064,0.264,0.910,0.028,3.7,-5.4,-11.2,617,778,0
L,,251125,0.070,0.974,0.015,3.9,-1.3,-1.8,649,820,0
L,,251184,0.128,0.982,0.167,2.4,-0.1,-3.2,637,803,0
L,,251245,0.175,0.920,0.089,3.1,-0.4,-2.2,643,818,0
L,,251306,0.138,0.977,0.061,3.5,-3.6,-2.2,647,826,0
L,,251364,0.178,1.049,0.039,3.6,-3.0,-4.2,643,833,0
L,,251424,0.059,1.062,-0.008,6.3,0.2,-3.2,591,807,0
L,,251484,0.065,1.109,-0.058,8.8,0.6,-4.0,479,791,0
L,,251544,0.017,1.160,-0.082,11.1,0.5,-4.1,323,860,0
L,,251604,0.090,1.379,-0.035,15.8,4.6,-3.6,191,851,0
L,,251665,0.459,1.498,0.059,18.9,2.0,-9.9,129,609,0
L,,251724,-0.176,1.253,-0.029,19.3,8.1,-10.1,189,652,0
L,,251785,-0.317,0.454,0.181,10.0,11.7,-6.7,310,551,0
L,,251844,0.410,0.183,-0.091,-8.9,13.7,-0.6,337,577,0
L,,251904,0.440,0.521,-0.053,-25.8,10.6,-1.1,295,591,0
L,,251964,0.484,1.030,-0.123,-32.5,8.7,3.8,305,596,0
L,,252026,0.410,1.457,-0.135,-31.2,9.4,7.1,299,592,0
L,,252115,0.364,1.473,-0.592,-22.3,2.2,8.1,326,587,0
L,,252174,0.185,1.387,-0.772,-0.8,8.3,2.3,348,592,0
L,,252234,-0.541,1.097,0.161,12.6,6.3,-6.9,507,686,0
L,,252294,0.253,1.141,-0.199,12.8,-7.1,-4.1,594,747,0
L,,252354,0.040,0.952,-0.002,3.3,-7.0,-5.6,600,761,0
L,,252415,0.013,0.955,0.074,5.2,-1.6,-1.8,636,800,0
L,,252474,-0.073,0.978,0.119,3.7,-1.0,-3.0,652,824,0
L,,252535,0.102,1.034,0.103,3.9,0.8,-2.1,647,833,0
L,,252594,0.053,1.013,0.036,4.6,-1.6,-2.3,647,846,0
L,,252655,-0.070,0.932,0.010,2.7,-2.0,-1.6,639,851,0
L,,252714,0.004,1.057,0.028,3.2,-0.2,-3.0,624,854,0
L,,252776,-0.031,1.106,0.052,5.6,0.3,-3.9,545,848,0
L,,252833,0.076,1.178,-0.090,9.0,1.4,-4.5,379,841,0
L,,252894,-0.079,1.165,-0.099,12.0,5.3,-5.5,191,830,0
L,,252955,0.120,1.437,-0.001,17.8,8.7,-6.9,157,787,0
L,,253014,0.188,1.553,-0.193,16.5,7.4,-11.5,203,741,0
L,,253075,-0.285,0.799,-0.175,11.7,12.0,-10.0,292,495,0
L,,253134,0.618,0.128,0.278,0.4,33.3,-4.0,331,547,0
L,,253194,0.528,0.427,0.014,-19.6,17.3,-1.2,319,546,0
L,,253254,0.489,0.859,-0.186,-30.1,8.1,1.1,340,552,0
L,,253314,0.349,1.170,-0.192,-30.0,8.0,7.0,325,527,0
L,,253375,0.344,1.450,-0.168,-30.0,8.5,7.5,341,569,0
L,,253436,0.240,1.487,-0.370,-22.2,4.4,8.1,332,561,0
L,,253524,-0.024,1.155,-0.721,4.6,-15.8,-1.5,320,568,0
L,,253584,0.460,1.461,0.242,11.2,6.8,1.0,577,732,0
L,,253644,0.389,0.867,-0.013,10.3,3.0,-6.5,611,768,0
L,,253705,-0.327,0.986,0.234,1.9,-7.0,-2.6,627,791,0
L,,253764,0.268,0.990,0.187,2.0,-0.9,-3.9,646,805,0
L,,253825,-0.123,0.964,0.212,3.7,3.4,-1.8,659,820,0
L,,253884,0.069,0.971,0.140,3.0,-0.5,-2.3,668,834,0
L,,253945,0.034,0.977,0.138,3.5,1.7,-1.7,660,832,0
L,,254004,0.017,1.013,0.082,3.6,0.2,-2.5,660,835,0
L,,254094,0.113,1.061,0.061,5.1,-1.1,-3.4,626,842,0
L,,254155,-0.101,1.112,0.046,8.6,2.0,-4.9,524,831,0
L,,254216,0.145,1.097,0.043,11.1,4.8,-5.5,216,864,0
L,,254274,0.137,1.431,0.086,15.0,7.9,-6.4,207,810,0
L,,254334,0.359,1.319,-0.059,19.1,6.5,-8.1,143,728,0
L,,254394,-0.225,1.024,0.113,14.2,12.8,-8.6,246,517,0
L,,254455,0.061,0.888,0.467,2.5,14.0,-9.3,294,568,0
L,,254514,0.445,0.221,0.023,-10.1,20.2,1.4,311,588,0
L,,254575,0.443,0.515,0.015,-26.4,10.0,4.7,306,576,0
L,,254634,0.214,1.224,-0.172,-32.0,4.7,9.2,320,598,0
L,,254695,0.145,1.600,-0.146,-30.9,3.1,9.0,257,540,0
L,,254754,0.050,1.674,-0.818,-22.3,1.8,8.6,297,516,0
L,,254814,-0.093,1.525,-1.116,-2.3,7.0,-1.3,298,557,0
L,,254875,0.757,1.512,1.168,8.3,-1.5,-5.2,556,717,0
L,,254936,0.259,0.937,0.168,6.4,-9.6,-4.1,510,655,0
L,,254995,-0.024,1.059,0.187,5.2,-5.8,-3.7,619,793,0
L,,255054,0.206,1.019,0.089,2.5,-4.0,-4.0,629,806,0
L,,255115,0.097,1.024,0.102,5.8,1.4,-3.2,638,820,0
L,,255174,0.033,0.947,0.012,4.0,-0.5,-2.3,639,833,0
L,,255235,0.087,0.980,-0.121,3.2,-1.2,-2.1,632,840,0
L,,255294,-0.007,1.024,-0.044,3.3,-1.5,-1.9,623,856,0
L,,255354,0.015,1.042,-0.034,4.8,0.2,-3.1,583,851,0
L,,255415,0.004,1.073,0.014,7.8,1.6,-3.6,478,830,0
L,,255474,0.023,1.199,-0.062,11.6,2.3,-3.6,231,751,0
L,,255535,0.079,1.443,0.028,16.8,5.4,-4.7,162,805,0
L,,255596,0.264,1.577,-0.023,20.2,3.7,-9.7,134,653,0
L,,255655,-0.088,1.142,0.008,18.8,12.8,-6.7,220,623,0
L,,255714,-0.011,0.321,0.451,2.8,12.4,-4.8,336,569,0
L,,255775,0.390,0.156,0.060,-15.6,9.3,1.3,350,577,0
L,,255834,0.445,0.711,0.010,-33.1,7.5,3.2,365,587,0
L,,255894,0.348,1.397,-0.072,-35.8,8.3,8.6,355,602,0
L,,255954,0.406,1.612,-0.277,-32.7,7.2,5.5,311,572,0
L,,256014,0.116,1.402,-0.725,-21.2,5.6,6.9,322,603,0
L,,256075,0.228,1.274,-0.764,3.2,4.5,0.2,330,592,0
L,,256134,-0.162,1.034,0.170,12.8,-1.3,-5.0,536,728,0
L,,256195,0.320,1.056,-0.114,13.4,-5.7,-6.2,611,772,0
L,,256254,-0.060,0.918,0.019,4.0,-7.0,-2.9,610,771,0
L,,256346,0.115,1.067,0.123,3.7,0.9,-2.5,649,813,0
L,,256405,-0.024,0.935,0.078,5.9,1.9,-1.1,654,821,0
L,,256464,0.008,1.040,0.055,4.0,-1.6,-1.7,654,831,0
L,,256554,0.061,1.022,0.040,4.3,-0.8,-2.1,641,842,0
L,,256615,-0.015,1.153,0.082,6.6,0.7,-3.1,620,856,0
L,,256674,-0.038,1.109,-0.076,11.4,2.6,-3.7,466,859,0
L,,256735,0.066,1.231,-0.108,13.7,1.8,-4.1,284,856,0
L,,256794,0.221,1.403,0.061,19.3,7.4,-5.3,173,762,0
L,,256854,0.123,1.628,0.003,18.6,1.7,-11.6,143,584,0
L,,256915,-0.132,0.372,0.120,12.3,9.9,-7.1,288,509,0
L,,256974,0.045,0.118,0.655,-2.4,25.5,-3.8,363,570,0
L,,257066,0.579,0.571,-0.069,-28.3,8.6,0.4,364,572,0
L,,257125,0.417,1.052,-0.158,-33.3,10.9,5.2,359,580,0
L,,257184,0.380,1.511,-0.229,-31.3,10.9,8.7,351,578,0
L,,257245,0.387,1.624,-0.626,-24.9,7.4,7.8,329,567,0
L,,257304,-0.386,1.537,-1.279,-8.0,4.5,1.4,355,589,0
L,,257365,0.628,1.178,1.510,9.8,-2.4,-5.3,579,742,0
L,,257424,0.175,0.981,-0.236,11.3,-4.8,-4.6,527,675,0
L,,257485,-0.058,0.985,0.045,4.5,-6.3,-3.4,556,703,0
L,,257544,0.222,0.961,0.074,2.4,-2.5,-3.6,606,768,0
L,,257605,0.064,1.055,0.165,4.9,1.8,-2.8,608,771,0
L,,257665,0.125,1.015,0.101,5.2,-1.2,-2.6,641,819,0
L,,257724,0.119,1.009,0.086,4.5,-0.5,-2.0,639,836,0
L,,257786,0.091,1.023,0.024,3.4,-0.4,-2.9,626,848,0
L,,257844,0.003,1.045,0.001,6.1,0.8,-3.7,574,858,0
L,,257905,0.135,1.222,-0.021,10.3,1.9,-4.2,396,848,0
L,,257964,0.059,1.318,-0.151,14.8,4.4,-4.4,195,783,0
L,,258025,0.402,1.520,0.099,21.4,10.5,-6.5,160,788,0
L,,258084,0.319,1.668,0.209,20.6,2.4,-11.2,206,706,0
L,,258144,-0.595,0.335,-0.417,6.9,6.2,-6.7,319,522,0
L,,258205,0.522,0.252,0.234,-4.9,21.4,-1.3,329,583,0
L,,258264,0.490,0.344,-0.011,-24.6,10.9,0.5,339,575,0
L,,258325,0.346,1.059,-0.087,-35.0,10.8,4.1,341,573,0
L,,258384,0.478,1.536,-0.164,-34.9,8.0,6.7,342,574,0
L,,258445,0.232,1.820,-0.487,-30.5,5.3,8.8,323,548,0
L,,258506,-0.395,1.506,-1.058,-12.3,7.9,2.8,341,544,0
L,,258565,0.051,1.446,-0.793,11.7,-8.3,-3.4,324,616,0
L,,258625,0.440,1.484,-0.044,17.3,-8.5,-13.4,599,753,0
L,,258684,-0.213,0.956,-0.113,7.8,-7.3,-5.1,591,750,0
L,,258745,0.028,1.009,0.050,6.9,-3.3,-2.2,630,795,0
L,,258804,-0.028,1.094,0.163,3.8,-0.2,-3.9,648,817,0
L,,258865,0.120,0.942,-0.008,6.6,0.9,-2.8,639,817,0
L,,258924,0.038,0.866,0.010,4.1,-1.6,-1.5,644,837,0
L,,258985,0.090,1.020,-0.018,4.7,-1.8,-2.3,633,845,0
L,,259044,-0.074,1.160,-0.149,7.5,0.7,-3.6,590,849,0
L,,259105,-0.006,1.077,-0.046,6.7,0.6,-3.8,500,841,0
L,,259166,-0.024,1.132,-0.140,8.4,1.6,-3.4,365,858,0
L,,259224,-0.070,1.281,-0.099,11.8,5.9,-2.8,210,848,0
L,,259285,0.319,1.456,-0.035,17.1,5.1,-4.1,179,768,0
L,,259344,-0.064,1.467,0.010,17.4,2.0,-10.5,171,746,0
L,,259405,-0.115,0.753,0.007,14.1,19.1,-6.1,289,505,0
L,,259464,0.023,0.084,0.459,0.5,24.4,-5.9,352,535,0
L,,259525,0.491,0.302,-0.058,-16.3,17.4,-4.7,341,559,0
L,,259615,0.681,0.969,-0.224,-31.9,15.3,-0.1,352,594,0
L,,259674,0.663,1.182,-0.168,-31.3,12.8,4.8,354,602,0
L,,259735,0.446,1.533,-0.190,-29.7,4.9,6.3,356,589,0
L,,259794,-0.019,1.637,-0.655,-19.0,1.7,8.4,326,578,0
L,,259855,0.124,1.342,-0.701,6.5,3.9,-3.9,346,564,0
L,,259916,1.037,1.931,-0.013,10.9,-2.9,-1.7,582,751,0
L,,259974,-0.137,1.066,-0.630,7.7,-7.0,-7.3,545,693,0
L,,260035,-0.122,0.998,0.172,4.3,-5.9,-2.3,642,809,0
L,,260094,0.348,1.040,0.176,2.1,-2.8,-4.6,652,811,0
L,,260155,-0.095,0.997,0.201,4.6,1.4,-1.7,610,758,0
L,,260214,0.092,0.994,0.053,3.6,0.0,-1.9,659,822,0
L,,260275,0.107,1.012,0.094,4.6,-0.3,-1.3,663,834,0
L,,260334,0.061,1.044,0.031,5.1,-1.8,-2.5,649,832,0
L,,260395,0.018,1.090,0.025,7.6,0.0,-3.7,627,852,0
L,,260455,0.024,1.183,-0.027,12.1,3.7,-4.0,465,836,0
L,,260514,0.117,1.201,-0.110,14.2,4.9,-4.9,197,801,0
L,,260575,0.211,1.584,0.055,20.3,8.9,-6.3,168,800,0
L,,260636,0.049,1.548,0.112,19.3,3.3,-12.6,214,749,0
L,,260695,-0.003,0.072,-0.021,9.5,10.2,-2.8,310,529,0
L,,260754,0.189,0.187,0.356,-3.9,24.1,-0.6,334,566,0
L,,260815,0.289,0.406,0.012,-23.1,10.7,1.1,355,577,0
L,,260904,0.253,1.320,-0.149,-33.8,10.6,5.3,305,490,0
L,,260964,0.132,1.661,-0.182,-30.7,7.9,3.8,306,518,0
L,,261025,0.383,1.633,-0.731,-21.6,10.4,5.7,352,541,0
L,,261084,0.099,1.741,-0.910,-6.0,3.5,-3.6,375,613,0
L,,261145,0.494,1.068,1.673,5.8,-2.4,-3.2,564,721,0
L,,261205,0.036,0.987,-0.081,10.7,-6.5,-3.9,599,760,0
L,,261264,-0.022,0.981,0.031,5.9,-3.9,-0.8,617,775,0
L,,261327,-0.101,0.988,0.063,3.2,-0.9,-2.8,621,777,0
L,,261384,0.000,1.026,0.072,3.5,0.8,-1.3,627,784,0
L,,261445,-0.047,1.087,0.105,4.1,-1.3,-2.1,651,822,0
L,,261535,0.109,1.028,-0.008,4.4,-2.7,-1.8,637,836,0
L,,261594,0.038,1.046,-0.010,5.5,-0.8,-2.9,612,850,0
L,,261655,-0.062,1.111,-0.029,8.4,2.1,-3.6,499,864,0
L,,261744,-0.059,1.212,-0.088,13.5,3.9,-3.7,205,815,0
L,,261804,0.202,1.488,0.036,20.8,9.7,-5.2,161,769,0
L,,261865,0.289,1.902,-0.154,16.1,5.6,-13.3,209,763,0
L,,261924,0.024,0.938,-0.020,11.2,19.5,-5.9,302,548,0
L,,261985,-0.055,0.058,0.496,-3.2,25.3,-2.9,333,570,0
L,,262044,0.377,0.378,-0.027,-18.6,15.8,-2.8,352,595,0
L,,262106,0.509,0.816,-0.115,-30.5,12.9,-0.2,373,604,0
L,,262165,0.630,1.064,-0.214,-32.3,7.4,4.5,382,602,0
L,,262225,0.531,1.336,-0.109,-32.1,3.2,7.3,384,608,0
L,,262285,0.336,1.589,-0.293,-24.8,-1.5,9.4,373,583,0
L,,262344,0.081,1.444,-1.063,-1.9,5.2,0.2,356,569,0
L,,262405,-0.204,0.712,0.974,9.0,-6.7,-6.9,519,711,0
L,,262464,0.154,0.958,-0.181,12.2,-4.5,-10.5,613,769,0
L,,262525,-0.124,0.924,0.086,2.9,-4.9,-4.3,602,753,0
L,,262584,0.225,0.995,0.075,3.0,-1.0,-1.8,628,783,0
L,,262645,-0.064,1.097,0.214,3.4,0.5,-3.2,645,801,0
L,,262705,0.227,1.044,0.136,4.4,1.5,-1.0,650,810,0
L,,262765,0.043,1.049,0.097,5.2,0.0,-0.8,647,819,0
L,,262827,0.105,1.049,0.013,4.9,-1.0,-1.0,648,838,0
L,,262884,0.082,1.031,0.028,5.9,-0.4,-1.9,626,841,0
L,,262945,0.087,1.081,-0.020,8.8,0.0,-2.1,586,856,0
L,,263004,0.161,1.093,0.054,12.2,-1.7,-1.9,378,853,0
L,,263065,0.171,1.261,-0.117,15.8,1.7,-0.9,198,849,0
L,,263125,0.187,1.467,0.074,20.1,-1.7,-2.4,125,726,0
L,,263185,0.071,1.400,0.178,20.0,-3.7,-8.4,173,742,0
L,,263245,0.033,1.301,0.011,11.2,6.7,0.5,266,487,0
L,,263305,-0.261,0.180,0.445,-1.3,9.0,1.3,308,524,0
L,,263365,0.097,0.456,0.010,-18.8,1.0,5.0,340,552,0
L,,263424,0.198,0.763,-0.108,-29.4,1.7,4.3,328,524,0
L,,263486,0.205,1.251,-0.177,-32.4,0.2,6.4,348,580,0
L,,263544,0.294,1.512,-0.101,-30.0,-4.1,7.4,360,588,0
L,,263605,-0.020,1.588,-0.441,-25.4,-0.2,7.1,341,553,0
L,,263665,-0.168,1.525,-1.293,-9.8,2.9,0.4,327,511,0
L,,263725,-0.077,0.803,0.666,10.7,-8.9,-6.7,554,722,0
L,,263785,0.444,0.987,0.066,15.4,-5.7,-8.1,610,767,0
L,,263845,-0.045,0.942,0.085,3.2,-8.9,-4.2,610,770,0
L,,263935,0.203,1.032,0.132,1.9,-4.9,-4.7,633,798,0
L,,263995,-0.023,1.026,0.090,2.9,-1.9,-2.4,595,746,0
L,,264055,-0.012,0.955,0.012,2.9,-2.2,-2.9,598,752,0
L,,264115,-0.058,0.997,0.052,3.2,0.3,-2.4,651,823,0
L,,264174,-0.036,1.040,0.046,2.9,-2.3,-2.9,640,821,0
L,,264236,0.025,1.064,0.000,4.3,-0.9,-4.2,615,827,0
L,,264294,-0.060,1.027,-0.012,6.7,2.4,-4.7,550,855,0
L,,264355,-0.027,1.131,-0.081,7.8,3.5,-5.3,377,863,0
L,,264415,-0.013,1.292,-0.098,12.5,10.1,-4.8,197,787,0
L,,264475,0.377,1.297,0.097,17.0,9.5,-8.3,162,806,0
L,,264535,-0.187,1.528,-0.093,15.6,9.5,-7.8,214,559,0
L,,264595,-0.040,0.577,0.171,13.7,20.6,-9.0,309,495,0
L,,264655,0.461,0.169,0.350,2.2,30.9,-4.2,320,531,0
L,,264714,0.583,0.348,-0.049,-16.5,17.7,-1.3,333,558,0
L,,264775,0.472,0.721,-0.069,-29.9,6.6,2.7,344,574,0
L,,264834,0.421,1.185,-0.055,-31.5,8.5,7.0,346,582,0
L,,264896,0.012,1.679,-0.192,-29.7,12.2,7.0,295,544,0
L,,264955,0.182,1.561,-0.809,-19.8,6.9,6.4,284,502,0
L,,265015,0.034,1.389,-0.970,3.4,13.0,-2.8,303,520,0
L,,265075,1.052,0.769,1.239,4.0,-8.5,-0.4,546,726,0
L,,265165,-0.033,0.894,0.000,6.1,-6.0,-4.5,585,755,0
L,,265225,0.291,0.949,0.180,4.2,-2.8,-2.7,610,780,0
L,,265285,0.100,1.007,0.212,1.8,-5.2,-3.2,624,795,0
L,,265345,0.004,1.044,0.125,4.0,-1.0,-2.6,640,814,0
L,,265405,-0.048,0.998,0.023,3.9,-2.4,-2.2,638,830,0
L,,265464,-0.121,0.981,0.028,4.2,-1.1,-1.8,611,814,0
L,,265525,0.009,1.039,0.003,4.3,-1.2,-3.3,603,842,0
L,,265584,-0.046,1.046,-0.040,5.4,0.7,-4.5,550,859,0
L,,265646,0.033,1.157,-0.086,7.6,2.4,-5.6,393,860,0
L,,265705,-0.110,1.164,0.012,12.6,4.9,-10.5,291,833,0
L,,265765,0.140,1.603,0.031,16.8,11.9,-8.9,138,683,0
L,,265825,0.223,1.705,0.038,16.5,14.2,-13.5,213,690,0
L,,265885,0.144,0.835,-0.113,2.7,19.8,-10.9,303,520,0
L,,265945,0.509,0.160,0.669,-6.7,28.9,-4.9,337,551,0
L,,266004,0.882,0.255,-0.059,-24.5,15.1,-1.5,342,586,0
L,,266065,0.761,0.820,-0.080,-34.0,9.6,5.6,361,594,0
L,,266125,0.473,1.409,-0.211,-35.0,12.6,14.3,358,588,0
L,,266185,0.474,1.647,-0.456,-25.4,9.9,12.9,356,582,0
L,,266245,-0.539,1.501,-1.305,-6.8,1.4,3.3,330,587,0
L,,266305,-0.375,0.666,0.293,15.7,2.6,-7.1,557,735,0
L,,266367,0.541,1.200,0.034,11.8,-9.3,-6.4,586,735,0
L,,266425,0.134,0.866,0.022,4.2,-6.6,-7.9,603,760,0
L,,266485,0.105,1.026,0.053,3.4,-5.0,-2.8,641,804,0
L,,266544,0.032,1.016,0.073,2.0,-2.7,-4.0,649,814,0
L,,266635,0.195,1.007,0.098,2.6,-2.4,-2.5,654,828,0
L,,266695,0.075,0.983,0.068,3.5,-2.6,-1.8,644,836,0
L,,266754,0.097,1.027,-0.017,4.2,-2.2,-2.7,601,805,0
L,,266815,0.035,1.016,-0.081,6.2,-1.0,-3.9,576,855,0
L,,266875,0.023,1.131,-0.104,7.4,0.4,-4.3,499,855,0
L,,266935,-0.094,1.184,-0.093,9.0,1.7,-4.7,363,857,0
L,,267025,-0.013,1.060,-0.208,12.8,5.3,-5.9,254,767,0
L,,267086,0.083,1.325,-0.167,14.2,4.6,-5.1,158,729,0
L,,267145,0.069,1.315,-0.105,13.5,4.3,-8.8,217,603,0
L,,267204,0.001,1.058,-0.108,9.2,11.2,-5.2,307,509,0
L,,267265,-0.041,0.569,0.383,-0.4,11.6,-3.0,312,545,0
L,,267325,0.090,0.551,-0.065,-9.6,13.2,0.3,361,554,0
L,,267385,0.525,0.710,-0.086,-21.2,10.9,4.3,365,594,0
L,,267445,0.286,0.992,-0.178,-28.8,4.6,6.3,366,609,0
L,,267505,0.250,1.290,-0.104,-30.8,5.9,8.6,385,612,0
L,,267565,0.285,1.462,-0.170,-28.4,7.2,9.6,386,621,0
L,,267625,0.084,1.488,-0.358,-21.7,6.2,6.0,376,590,0
L,,267685,0.240,1.248,-0.697,-4.9,5.5,-0.1,381,617,0
L,,267745,-0.081,1.118,-0.506,9.2,-8.1,-4.7,363,645,0
L,,267806,0.774,1.906,-0.402,20.0,-6.1,-5.8,618,771,0
L,,267865,-0.091,0.954,0.128,10.4,-9.5,-10.1,612,762,0
L,,267925,0.165,1.058,0.206,9.9,-2.1,-3.2,622,795,0
L,,267985,-0.192,1.207,0.076,6.2,0.0,-4.0,615,820,0
L,,268045,0.165,0.910,-0.094,3.9,-1.1,-1.9,581,828,0
L,,268105,0.041,0.997,-0.073,4.4,-1.1,-1.9,570,847,0
L,,268165,0.040,1.018,-0.066,3.9,-1.4,-2.2,528,855,0
L,,268225,0.102,1.032,-0.037,4.2,-0.5,-2.9,460,837,0
L,,268285,0.028,1.026,-0.089,6.5,0.4,-3.9,360,866,0
L,,268345,-0.013,1.151,-0.103,9.5,0.3,-4.7,236,809,0
L,,268405,-0.088,1.204,-0.088,14.4,3.6,-5.3,198,776,0
L,,268465,0.040,1.636,0.062,17.2,7.6,-7.7,161,809,0
L,,268527,0.013,1.639,0.173,20.9,13.5,-13.0,194,736,0
L,,268584,-0.094,-0.668,-0.398,5.5,15.6,-2.9,305,549,0
L,,268645,0.491,0.065,0.078,-9.0,8.5,-1.8,281,577,0
L,,268705,0.308,0.419,-0.231,-22.9,10.6,-1.4,284,578,0
L,,268765,0.548,0.836,-0.368,-31.2,6.5,2.8,318,584,0
L,,268825,0.495,1.136,-0.393,-30.1,8.2,9.0,323,607,0
L,,268885,0.377,1.475,-0.268,-26.2,8.8,11.1,323,617,0
L,,268945,-0.025,1.578,-0.345,-19.9,15.2,12.4,328,624,0
L,,269005,0.189,1.243,-0.313,-7.7,15.1,5.0,325,639,0
L,,269065,0.250,0.997,-0.427,2.9,5.9,0.0,291,653,0
L,,269125,0.207,1.251,0.127,11.6,3.2,-0.7,453,672,0
L,,269186,0.700,2.001,-0.217,19.5,-3.9,-12.6,626,780,0
L,,269245,-0.538,1.168,-0.385,12.5,-4.4,-7.7,629,790,0
L,,269305,0.085,1.014,-0.005,6.8,-0.8,-2.1,628,807,0
L,,269365,0.020,1.081,0.102,3.5,-0.6,-3.1,638,834,0
L,,269425,0.018,1.027,0.036,4.8,0.3,-2.5,585,805,0
L,,269485,-0.021,1.041,-0.006,6.2,2.5,-2.8,523,838,0
L,,269545,0.076,1.052,-0.062,4.5,-1.7,-1.8,458,863,0
L,,269605,0.142,0.965,-0.123,5.1,-0.4,-3.4,372,836,0
L,,269665,-0.095,0.996,-0.138,5.1,-0.6,-3.7,302,758,0
L,,269725,-0.060,1.122,-0.035,8.2,0.9,-5.2,265,764,0
L,,269785,0.004,1.118,-0.164,11.2,0.5,-6.6,199,648,0
L,,269845,0.040,1.406,-0.128,17.2,9.4,-7.5,176,732,0
L,,269907,0.206,1.635,0.061,17.9,7.1,-13.4,229,699,0
L,,269965,0.046,2.054,-0.229,19.8,16.3,-10.3,244,454,0
L,,270025,0.210,0.275,0.398,-2.1,24.2,-4.7,279,533,0
L,,270085,0.552,0.338,-0.136,-19.1,11.3,-3.2,306,553,0
L,,270145,0.597,0.630,-0.216,-30.3,8.0,1.7,306,560,0
L,,270235,0.385,1.269,-0.263,-29.6,11.6,8.6,317,601,0
L,,270295,0.355,1.490,-0.395,-27.3,5.5,8.1,329,610,0
L,,270355,0.047,1.225,-0.322,-19.5,2.3,7.0,333,606,0
L,,270415,0.003,1.333,-0.625,-1.2,8.5,0.7,341,605,0
L,,270475,0.369,0.853,-0.034,14.3,-5.6,-4.6,503,712,0
L,,270535,0.202,1.143,-0.114,14.8,-8.1,-8.5,610,770,0
L,,270595,-0.098,0.719,0.197,7.8,-8.4,-4.9,514,661,0
L,,270657,0.440,0.881,0.051,4.5,-4.8,-4.3,600,767,0
L,,270715,-0.198,0.998,0.089,4.4,-2.4,-2.0,638,831,0
L,,270775,0.035,1.058,0.040,3.6,-0.2,-3.3,630,833,0
L,,270835,0.155,1.037,0.020,6.3,0.9,-2.9,600,846,0
L,,270895,0.002,1.110,-0.014,3.7,-1.3,-2.7,539,858,0
L,,270955,0.047,1.019,-0.071,3.6,-0.9,-3.5,490,856,0
L,,271015,-0.033,1.015,-0.049,4.6,0.3,-4.0,435,855,0
L,,271075,-0.008,1.120,-0.074,7.6,2.6,-4.7,336,845,0
L,,271135,-0.115,1.191,-0.072,10.7,4.4,-5.1,215,804,0
L,,271195,0.374,1.504,-0.043,17.7,10.4,-7.9,174,700,0
L,,271255,-0.015,1.525,-0.004,18.1,12.8,-13.5,176,624,0
L,,271317,-0.103,0.508,-0.092,9.5,21.4,-7.7,275,532,0
L,,271375,0.354,-0.012,0.356,-3.1,24.4,-7.1,306,558,0
L,,271435,0.676,0.261,-0.147,-16.7,18.1,-6.1,308,569,0
L,,271495,0.625,0.652,-0.111,-29.8,7.8,-1.9,315,594,0
L,,271555,0.440,1.095,-0.069,-30.9,13.3,5.8,327,598,0
L,,271615,0.175,1.470,-0.059,-28.9,15.9,8.0,322,611,0
L,,271675,0.303,1.588,-0.406,-21.8,14.8,6.1,299,583,0
L,,271735,0.135,1.312,-0.878,-4.5,8.5,-0.2,318,590,0
L,,271795,0.055,0.997,-0.102,15.0,-4.8,-8.2,418,662,0
L,,271855,-0.027,0.946,-0.048,14.0,-9.6,-9.0,567,724,0
L,,271916,-0.332,0.794,-0.063,6.3,-8.8,-5.1,584,749,0
L,,271975,0.121,0.948,-0.028,5.5,-2.1,-0.5,637,807,0
L,,272037,-0.119,1.018,0.100,3.4,-0.1,-4.0,627,791,0
L,,272095,0.079,0.947,0.024,3.4,0.1,-0.8,657,832,0
L,,272155,-0.023,0.993,0.082,2.1,-1.5,-1.6,659,837,0
L,,272215,0.057,1.073,0.043,2.6,-1.3,-1.5,654,839,0
L,,272275,0.039,1.030,0.007,4.0,-0.9,-2.3,634,839,0
L,,272335,-0.028,1.135,0.001,7.8,1.7,-3.4,579,856,0
L,,272425,0.016,1.221,-0.107,14.0,4.8,-3.4,235,797,0
L,,272485,0.154,1.457,0.048,21.6,12.2,-3.9,156,777,0
L,,272545,0.282,1.580,-0.072,18.9,3.7,-14.1,146,658,0
L,,272605,-0.340,0.961,0.077,15.9,16.6,-8.0,273,492,0
L,,272695,0.493,0.056,0.199,-5.6,22.3,-1.6,348,580,0
L,,272756,0.349,0.464,0.016,-25.9,7.2,-0.2,341,591,0
L,,272845,0.500,1.157,-0.137,-33.9,9.4,4.5,322,602,0
L,,272905,0.557,1.500,-0.155,-31.5,6.8,6.5,343,607,0
L,,272965,0.155,1.628,-0.448,-28.4,-5.2,5.7,338,569,0
L,,273025,-0.424,1.592,-1.153,-9.9,-5.4,-0.3,344,582,0
L,,273085,0.124,0.448,1.203,9.4,-11.7,-4.8,557,734,0
L,,273145,0.295,1.067,-0.430,14.6,-3.0,-7.5,621,778,0
L,,273206,-0.209,1.018,0.061,2.7,-8.8,-3.0,620,781,0
L,,273265,0.356,0.943,0.067,3.4,-2.6,-3.5,652,813,0
L,,273325,0.021,0.994,0.180,4.5,4.9,-4.0,659,828,0
L,,273385,0.050,0.994,-0.057,3.7,-0.1,-2.2,653,837,0
L,,273445,0.112,0.934,0.027,2.5,-1.6,-1.2,648,842,0
L,,273506,0.060,1.038,0.039,4.1,-0.7,-2.1,641,843,0
L,,273565,0.082,1.008,0.011,6.2,-0.1,-3.2,600,830,0
L,,273625,0.031,1.100,0.003,10.3,2.0,-3.5,505,855,0
L,,273685,-0.050,1.193,-0.107,12.3,0.9,-3.2,277,857,0
L,,273746,0.018,1.499,-0.062,17.5,6.1,-2.5,159,814,0
L,,273835,0.022,1.412,-0.096,19.7,-1.3,-10.3,159,699,0
L,,273895,0.008,0.534,0.091,9.8,10.7,-5.3,231,507,0
L,,273956,-0.020,0.177,0.333,0.6,23.1,-1.0,307,566,0
L,,274015,0.232,0.432,0.062,-16.6,14.2,0.7,308,579,0
L,,274075,0.538,0.773,-0.088,-28.7,10.1,-0.5,323,593,0
L,,274135,0.558,1.165,-0.029,-35.5,-0.2,2.3,348,600,0
L,,274195,0.187,1.596,-0.074,-33.9,-1.1,5.9,338,579,0
L,,274256,0.025,1.530,-0.662,-21.0,6.7,5.1,344,568,0
L,,274315,0.233,1.338,-0.985,0.1,10.2,-1.9,328,571,0
L,,274375,1.291,0.777,0.508,12.7,-8.5,-0.5,542,725,0
L,,274435,0.095,0.984,0.015,11.3,-6.8,-7.4,519,662,0
L,,274496,-0.188,1.003,-0.076,6.9,-6.7,-1.6,583,748,0
L,,274555,0.318,0.956,0.016,2.5,-3.8,-4.5,638,810,0
L,,274615,-0.126,0.983,0.182,5.7,-0.2,-3.4,606,777,0
L,,274675,0.041,1.003,0.033,2.7,-2.2,-2.5,579,751,0
L,,274735,0.024,0.964,0.016,2.9,-0.2,-1.6,622,816,0
L,,274795,-0.022,1.001,-0.040,1.8,-2.2,-1.4,616,827,0
L,,274855,0.026,1.014,-0.049,3.1,-0.4,-2.8,594,828,0
L,,274916,-0.038,1.090,0.004,4.6,0.9,-3.7,559,810,0
L,,274975,-0.096,1.117,-0.019,7.2,2.8,-4.3,422,808,0
L,,275036,-0.116,1.199,-0.121,10.9,5.3,-4.8,298,853,0
L,,275095,0.268,1.217,-0.044,12.8,6.8,-6.3,193,672,0
L,,275155,0.439,1.264,-0.107,16.8,9.9,-8.0,130,452,0
L,,275215,-0.327,1.370,0.060,14.4,11.5,-11.1,255,519,0
L,,275275,-0.334,1.249,-0.363,9.8,13.7,-12.0,334,501,0
L,,275335,0.526,0.244,0.041,-6.0,25.3,-3.6,325,543,0
L,,275395,0.714,0.485,-0.026,-23.6,16.1,-4.3,321,551,0
L,,275456,0.574,0.947,-0.095,-33.0,8.7,-0.1,331,548,0
L,,275515,0.368,1.367,-0.099,-31.6,11.2,5.6,356,575,0
L,,275576,0.498,1.606,-0.183,-27.7,8.6,8.1,359,572,0
L,,275637,0.080,1.377,-0.559,-17.1,7.0,4.4,357,577,0
L,,275695,0.169,1.252,-0.589,3.7,0.3,-0.9,366,592,0
L,,275755,-0.058,0.788,0.671,11.9,-0.1,-5.1,497,687,0
L,,275815,-0.012,1.127,-0.180,13.4,-6.8,-8.3,588,742,0
L,,275875,-0.050,0.619,0.212,3.7,-11.6,-3.6,598,759,0
L,,275935,0.138,0.946,0.045,4.6,-1.4,-2.6,641,808,0
L,,275996,-0.139,1.058,0.099,3.1,-0.9,-3.9,639,812,0
L,,276055,0.219,0.878,0.038,4.0,0.3,-0.9,648,826,0
L,,276116,0.067,1.020,0.177,2.6,-1.8,-1.5,622,809,0
L,,276206,0.003,1.023,-0.001,3.3,-1.4,-2.3,615,837,0
L,,276265,0.020,1.039,-0.020,4.8,0.8,-3.3,584,849,0
L,,276326,-0.080,1.114,0.022,7.3,3.2,-4.2,486,866,0
L,,276387,-0.049,1.156,-0.077,10.7,3.2,-4.7,301,772,0
L,,276475,0.030,1.454,0.049,18.7,12.6,-4.8,217,785,0
L,,276536,0.105,1.492,-0.068,16.8,15.9,-12.7,191,519,0
L,,276625,-0.192,0.333,-0.147,11.6,25.9,-9.3,299,474,0
L,,276715,0.638,0.143,-0.025,-12.5,14.2,-5.6,326,559,0
L,,276775,0.751,0.601,0.002,-28.5,7.8,-1.6,340,572,0
L,,276835,0.550,0.980,-0.025,-36.2,6.0,3.2,343,590,0
L,,276895,0.334,1.611,-0.021,-33.3,12.6,9.4,356,587,0
L,,276985,0.021,1.542,-0.865,-20.2,4.4,2.3,330,580,0
L,,277045,0.271,1.331,-0.846,8.0,-5.0,-3.9,321,601,0
L,,277135,-0.108,1.214,-0.275,13.1,-9.8,-10.9,614,771,0
L,,277197,-0.156,1.004,0.128,4.4,-9.1,-3.3,619,786,0
L,,277255,0.293,0.967,0.017,4.7,-0.9,-2.9,632,799,0
L,,277315,-0.111,1.004,0.102,2.8,-4.0,-1.9,650,822,0
L,,277375,0.093,0.983,-0.008,3.6,-0.4,-2.6,641,821,0
L,,277465,0.059,1.055,0.039,3.8,-1.2,-2.0,639,833,0
L,,277525,0.070,0.976,-0.020,2.4,-0.6,-2.8,603,825,0
L,,277616,-0.029,1.145,0.083,7.7,1.7,-3.9,492,865,0
L,,277675,0.105,1.148,-0.141,11.9,3.6,-4.0,312,863,0
L,,277735,-0.096,1.402,-0.018,16.9,8.0,-3.9,206,836,0
L,,277795,0.256,1.408,-0.035,20.3,8.3,-5.9,170,765,0
L,,277855,-0.084,1.739,-0.145,19.0,3.1,-10.2,237,622,0
L,,277916,-0.433,0.311,-0.012,5.6,10.9,-9.4,308,490,0
L,,277977,0.477,0.273,0.061,-5.3,26.2,-2.6,355,562,0
L,,278036,0.388,0.515,-0.095,-21.0,21.3,-4.7,329,573,0
L,,278095,0.444,1.118,-0.293,-29.1,15.0,-3.4,326,595,0
L,,278156,0.467,1.272,-0.294,-27.7,11.3,-1.7,351,611,0
L,,278215,0.865,1.267,-0.396,-23.3,3.3,1.6,350,618,0
L,,278275,0.357,1.100,-0.209,-21.8,-7.4,3.8,375,633,0
L,,278335,-0.244,1.218,-0.381,-8.2,9.7,1.1,356,637,0
L,,278395,0.257,1.050,-0.442,5.2,10.5,-0.8,376,635,0
L,,278456,0.403,1.068,0.728,7.8,4.1,-1.1,552,715,0
L,,278515,0.243,0.906,-0.020,14.2,-10.6,-5.4,573,720,0
L,,278576,-0.407,1.058,0.040,6.0,-11.2,-2.7,612,778,0
L,,278635,0.451,0.918,0.154,5.7,1.8,-2.9,626,794,0
L,,278697,-0.053,1.015,0.106,5.5,2.4,-2.6,644,829,0
L,,278755,-0.046,0.958,0.047,4.9,2.0,-2.0,621,844,0
L,,278815,0.008,0.994,-0.089,5.2,3.0,-1.7,584,848,0
L,,278875,0.009,0.912,-0.101,3.7,0.0,-0.7,549,857,0
L,,278935,-0.121,0.998,-0.088,3.7,0.8,-0.7,529,860,0
L,,278996,-0.045,1.039,-0.061,4.0,2.2,-0.9,470,868,0
L,,279055,-0.082,1.038,-0.104,6.5,1.2,-0.9,372,843,0
L,,279116,-0.061,1.021,-0.140,5.2,2.1,-1.0,298,861,0
L,,279175,-0.096,1.032,-0.190,6.7,3.7,-0.4,243,845,0
L,,279236,-0.083,1.208,-0.210,10.0,5.8,-1.7,250,851,0
L,,279295,-0.088,1.323,-0.166,11.5,7.4,-3.8,186,827,0
L,,279357,-0.246,1.291,-0.013,11.7,13.9,-10.4,208,681,0
L,,279446,-0.027,1.706,-0.492,7.1,30.2,-14.1,288,499,0
L,,279505,0.532,0.446,0.112,-0.1,20.8,-6.6,333,527,0
L,,279565,0.484,0.459,-0.103,-11.7,6.6,-3.6,340,554,0
L,,279625,0.443,0.709,-0.189,-19.3,0.7,-0.9,359,558,0
L,,279685,0.426,1.057,-0.194,-20.7,1.4,2.7,349,572,0
L,,279746,0.319,1.186,-0.194,-20.3,-3.1,1.2,348,581,0
L,,279805,0.372,1.245,-0.151,-17.7,-3.3,0.8,375,591,0
L,,279866,0.212,1.139,-0.036,-15.2,-4.1,1.8,361,611,0
L,,279925,-0.088,1.068,-0.246,-10.0,8.3,1.7,363,634,0
L,,279986,0.329,0.935,-0.082,-5.9,4.2,0.3,364,630,0
L,,280045,0.285,0.994,-0.145,-0.7,1.0,-0.2,370,635,0
L,,280107,0.460,1.438,0.231,6.8,1.2,-1.9,407,639,0
L,,280166,0.294,1.347,0.114,10.5,-2.9,-3.4,581,751,0
L,,280225,0.052,1.120,-0.115,9.7,-4.7,-4.3,588,762,0
L,,280286,0.065,0.980,-0.066,5.7,-4.4,-3.0,623,802,0
L,,280345,0.189,1.051,-0.036,4.1,-3.1,-3.2,644,823,0
L,,280406,-0.060,1.019,0.034,3.2,-1.4,-2.1,657,833,0
L,,280465,0.106,0.952,-0.028,3.1,-0.2,-1.3,659,840,0
L,,280555,0.023,0.984,-0.010,3.3,-1.2,-0.9,633,841,0
L,,280616,0.007,1.012,-0.081,5.2,0.5,-1.6,589,845,0
L,,280675,-0.003,0.976,-0.150,4.6,-0.1,-2.2,535,866,0
L,,280736,0.026,1.086,-0.139,4.5,1.8,-2.1,473,868,0
L,,280797,0.000,1.123,-0.150,8.5,2.4,-2.9,335,859,0
L,,280855,-0.118,1.293,-0.162,11.1,3.3,-3.3,239,801,0
L,,280916,0.124,1.396,-0.106,15.1,3.9,-6.1,174,818,0
L,,280975,0.147,1.311,-0.190,13.9,3.4,-8.6,172,748,0
L,,281036,-0.217,0.893,-0.037,10.5,14.0,-9.2,272,560,0
L,,281095,-0.304,0.655,0.005,4.8,23.1,-8.9,281,538,0
L,,281156,0.528,0.190,-0.071,-6.8,19.2,-2.9,335,566,0
L,,281215,0.421,0.628,-0.118,-20.0,11.5,-2.7,345,595,0
L,,281276,0.497,0.799,-0.193,-26.9,6.3,-2.7,344,596,0
L,,281335,0.514,1.072,-0.223,-26.3,-0.2,2.1,357,607,0
L,,281395,0.352,1.300,-0.154,-23.6,-2.5,3.9,360,623,0
L,,281456,0.185,1.300,-0.147,-18.5,2.8,4.3,342,620,0
L,,281517,0.357,1.220,-0.373,-9.6,13.8,2.2,353,619,0
L,,281576,0.233,1.073,-0.410,0.7,9.3,-0.1,376,625,0
L,,281635,0.180,1.128,-0.380,11.9,-1.6,-3.0,511,710,0
L,,281696,0.441,1.139,-0.142,12.0,-5.6,-5.3,592,747,0
L,,281786,0.000,0.970,0.068,5.2,-2.5,-1.6,610,774,0
L,,281845,0.108,0.898,0.166,1.9,-4.2,-2.6,642,811,0
L,,281906,0.098,1.047,0.066,3.0,0.0,-1.1,652,822,0
L,,281965,-0.012,1.043,0.069,2.5,-1.7,-1.7,650,821,0
L,,282026,0.093,1.013,0.118,2.7,-0.9,-0.9,651,837,0
L,,282085,0.051,0.996,0.034,3.0,0.0,-1.3,645,843,0
L,,282145,-0.028,1.008,-0.004,4.0,1.0,-2.1,620,847,0
L,,282206,0.001,1.056,-0.032,4.3,1.4,-2.8,585,847,0
L,,282267,-0.098,1.049,-0.019,6.3,3.7,-3.4,462,858,0
L,,282326,-0.023,1.163,-0.124,8.0,3.7,-3.7,321,856,0
L,,282385,-0.072,1.205,-0.073,11.2,5.9,-4.5,222,854,0
L,,282446,0.270,1.368,0.006,15.5,7.7,-6.0,184,809,0
L,,282505,0.203,1.555,-0.127,17.6,12.0,-9.5,218,727,0
L,,282566,-0.094,1.205,-0.163,11.9,19.9,-8.0,213,500,0
L,,282625,-0.172,0.343,0.575,1.9,17.5,-6.3,320,515,0
L,,282685,0.502,0.221,0.051,-12.7,18.9,-0.5,318,566,0
L,,282746,0.477,0.507,-0.014,-24.3,12.6,1.5,297,585,0
L,,282805,0.395,1.074,0.017,-32.6,9.0,3.8,318,602,0
L,,282866,0.281,1.545,-0.069,-30.0,11.0,5.1,327,607,0
L,,282927,0.427,1.337,-0.230,-21.9,11.0,4.0,307,551,0
L,,282986,-0.003,1.347,-0.807,-11.8,6.2,1.6,332,574,0
L,,283045,0.192,1.700,-0.673,10.7,-6.4,-5.8,328,613,0
L,,283106,0.621,1.515,0.190,15.8,-11.6,-5.1,587,749,0
L,,283166,0.196,1.236,-0.054,8.9,-5.1,-5.6,538,673,0
L,,283225,-0.039,1.000,0.078,8.4,-4.1,-0.5,634,808,0
L,,283286,0.086,1.045,0.075,3.6,-5.4,-3.4,639,822,0
L,,283345,0.098,1.052,0.102,5.2,1.3,-1.9,627,809,0
L,,283406,-0.035,0.970,-0.005,3.5,-0.4,-2.1,628,840,0
L,,283465,0.002,0.972,-0.033,4.2,1.6,-1.6,601,842,0
L,,283526,-0.091,1.015,-0.052,2.9,0.3,-1.2,587,851,0
L,,283585,-0.019,1.023,-0.061,2.3,-0.4,-1.6,564,836,0
L,,283647,0.007,1.014,-0.029,2.8,0.0,-2.1,515,858,0
L,,283706,-0.012,1.002,-0.066,4.8,0.5,-2.2,420,863,0
L,,283765,-0.060,1.081,-0.104,7.4,1.9,-2.7,276,789,0
L,,283825,-0.059,1.144,-0.148,9.7,4.0,-3.4,227,851,0
L,,283885,0.031,1.238,-0.148,13.5,4.8,-3.5,194,805,0
L,,283975,-0.090,1.179,-0.114,10.9,4.0,-9.0,267,648,0
L,,284036,-0.243,0.891,-0.258,10.6,16.9,-7.1,276,505,0
L,,284095,-0.047,0.522,0.226,2.0,22.3,-5.4,308,492,0
L,,284156,0.398,0.349,-0.028,-11.7,19.9,-2.9,312,521,0
L,,284215,0.573,0.807,-0.144,-21.8,15.1,-2.3,320,579,0
L,,284276,0.624,1.231,-0.176,-25.6,4.4,-1.2,333,605,0
L,,284335,0.386,1.326,-0.096,-26.1,-0.5,2.7,353,619,0
L,,284397,0.159,1.297,-0.091,-24.5,-2.2,4.9,355,619,0
L,,284456,-0.012,1.337,-0.202,-16.1,7.3,3.7,355,603,0
L,,284515,0.416,1.035,-0.468,-2.4,7.2,-1.0,363,596,0
L,,284576,0.251,1.055,-0.401,6.1,-5.0,-3.0,351,622,0
L,,284635,0.550,1.031,0.260,8.5,-4.9,-0.7,576,743,0
L,,284696,0.320,0.918,0.107,7.7,-2.9,-6.4,613,771,0
L,,284786,0.191,0.985,0.050,3.8,2.5,-1.9,642,804,0
L,,284845,-0.121,0.994,0.182,1.1,-2.4,-1.9,651,812,0
L,,284906,0.195,0.974,0.133,2.5,1.0,-2.4,655,817,0
L,,284965,0.076,1.006,0.103,1.9,-1.1,-1.4,659,822,0
L,,285026,0.063,1.006,0.050,2.0,-0.2,-0.9,660,827,0
L,,285087,0.023,1.008,0.074,2.4,0.5,-0.9,656,833,0
L,,285146,0.055,1.007,0.064,2.2,0.7,-1.1,647,838,0
L,,285206,-0.012,1.015,0.028,2.3,0.0,-1.5,631,840,0
L,,285265,0.038,1.024,0.023,3.0,0.4,-1.9,611,847,0
L,,285326,-0.056,1.031,0.002,4.2,1.4,-1.9,551,847,0
L,,285385,-0.025,1.013,-0.038,5.3,1.9,-2.3,419,846,0
L,,285446,-0.045,1.099,-0.030,6.0,2.8,-2.1,282,857,0
L,,285505,0.069,1.101,-0.044,8.0,2.9,-2.8,257,834,0
L,,285566,0.098,1.179,-0.050,11.7,3.2,-2.6,179,815,0
L,,285625,0.320,1.069,-0.258,13.1,3.1,-3.6,174,734,0
L,,285686,-0.161,1.061,-0.363,10.7,0.3,-6.1,236,616,0
L,,285746,-0.139,0.986,-0.297,11.4,12.3,-6.7,238,532,0
L,,285807,-0.149,0.670,0.185,4.1,19.7,-7.3,323,578,0
L,,285866,0.284,0.330,-0.080,-5.3,17.8,-2.1,296,542,0
L,,285925,0.392,0.588,-0.294,-15.1,13.8,0.8,294,582,0
L,,285986,0.281,0.887,-0.374,-19.5,9.8,2.6,299,610,0
L,,286045,0.389,1.027,-0.344,-19.8,8.5,3.1,324,606,0
L,,286135,0.431,1.195,-0.231,-17.4,2.5,3.1,337,624,0
L,,286196,0.352,1.077,-0.189,-15.3,-3.7,4.3,354,630,0
L,,286255,0.368,0.824,-0.045,-10.6,-2.5,1.0,360,635,0
L,,286316,0.018,1.022,-0.053,-1.4,8.5,2.2,355,600,0
L,,286375,0.222,0.917,0.046,-1.0,9.5,0.7,352,583,0
L,,286436,0.136,0.988,-0.035,3.2,7.1,-0.9,331,602,0
L,,286496,0.175,0.949,0.437,9.2,6.7,-2.9,374,637,0
L,,286557,0.038,1.544,0.245,7.6,1.4,-11.0,553,709,0
L,,286616,-0.199,1.288,-0.420,5.9,-6.9,-5.6,596,761,0
L,,286675,0.061,0.978,0.048,3.3,-3.5,-2.9,627,793,0
L,,286736,0.124,1.024,0.019,2.7,-1.6,-3.5,648,811,0
L,,286795,-0.036,0.946,0.053,2.1,0.2,-2.8,659,823,0
L,,286856,0.066,0.962,0.037,2.2,3.0,-2.5,655,829,0
L,,286916,-0.032,1.012,0.086,0.9,0.3,-1.5,644,831,0
L,,286976,-0.051,1.004,0.061,1.4,1.7,-1.2,634,831,0
L,,287066,-0.091,1.144,0.048,3.5,1.9,-2.4,604,830,0
L,,287125,-0.040,1.044,0.008,3.9,1.7,-2.6,557,826,0
L,,287186,-0.007,1.057,0.022,5.4,2.9,-3.9,392,825,0
L,,287248,0.020,1.065,0.000,7.7,2.4,-4.9,300,827,0
L,,287305,-0.003,1.133,-0.059,10.1,4.1,-6.0,243,819,0
L,,287366,0.145,1.378,0.083,15.8,5.8,-7.0,184,814,0
L,,287425,-0.044,1.401,-0.156,16.7,7.3,-7.3,173,761,0
L,,287486,-0.283,1.024,-0.178,11.2,17.0,-8.9,192,492,0
L,,287545,-0.121,0.664,0.447,2.8,31.1,-5.6,293,548,0
L,,287606,0.383,0.324,-0.066,-8.2,22.3,-0.6,284,571,0
L,,287666,0.476,0.512,-0.195,-20.2,12.4,0.0,303,559,0
L,,287726,0.483,0.976,-0.275,-25.4,7.2,5.0,296,549,0
L,,287786,0.429,1.247,-0.218,-25.9,0.0,7.1,324,580,0
L,,287845,0.333,1.351,-0.203,-21.8,-2.8,7.0,323,581,0
L,,287906,0.174,1.182,0.037,-17.1,-0.8,11.6,322,570,0
L,,287967,-0.294,1.281,-0.423,-7.7,-4.2,2.3,333,587,0
L,,288026,0.321,1.373,-0.265,2.0,-4.2,0.3,347,600,0
L,,288085,0.563,1.027,0.592,6.8,-5.3,-1.1,548,722,0
L,,288146,0.243,1.049,0.151,9.0,-6.3,-8.5,561,716,0
L,,288206,0.150,0.932,-0.083,5.0,-4.9,-3.6,607,778,0
L,,288266,0.346,0.957,0.038,1.9,-6.6,-3.9,639,807,0
L,,288326,0.097,1.014,0.046,3.1,-2.5,-5.0,649,823,0
L,,288385,0.092,1.042,0.029,3.5,-1.8,-3.6,655,837,0
L,,288446,0.083,0.954,-0.099,3.6,-0.1,-2.8,647,846,0
L,,288505,-0.114,1.067,-0.001,2.9,-1.7,-1.1,644,845,0
L,,288566,0.061,0.963,-0.162,1.3,-2.2,-1.5,650,847,0
L,,288627,-0.060,1.048,-0.126,0.6,-1.8,-2.2,650,841,0
L,,288686,-0.037,1.092,0.001,1.0,-1.0,-1.4,629,821,0
L,,288746,0.004,1.119,-0.017,5.9,1.9,-3.0,601,854,0
L,,288806,-0.010,1.166,-0.099,8.6,1.3,-3.4,457,861,0
L,,288866,-0.018,1.139,-0.138,12.0,3.8,-3.4,250,872,0
L,,288925,0.049,1.248,-0.167,15.9,5.2,-3.8,156,843,0
L,,288986,0.142,1.283,-0.083,16.0,2.4,-4.2,149,748,0
L,,289045,-0.145,1.122,-0.013,12.1,3.7,-12.8,190,680,0
L,,289106,-0.205,-0.318,-0.420,8.3,6.5,-5.6,317,508,0
L,,289166,0.210,0.222,0.238,-4.4,23.3,-1.7,309,545,0
L,,289226,0.227,0.542,0.037,-19.0,17.0,-2.2,288,576,0
L,,289286,0.610,0.574,-0.178,-30.5,13.7,-2.2,291,602,0
L,,289347,0.549,1.213,-0.261,-31.3,1.7,-0.5,310,610,0
L,,289406,0.371,1.361,-0.290,-28.5,-0.5,4.2,326,618,0
L,,289465,0.154,1.449,-0.303,-24.1,0.0,6.9,324,620,0
L,,289526,-0.138,1.302,-0.408,-9.0,12.1,1.6,335,610,0
L,,289585,0.150,1.138,-0.435,7.1,3.0,-2.3,339,627,0
L,,289646,0.355,0.826,1.258,7.4,-10.6,-9.8,380,647,0
L,,289706,0.202,1.088,-0.263,9.0,-11.7,-10.6,599,756,0
L,,289766,0.225,0.610,0.037,8.2,-7.2,-3.4,617,782,0
L,,289826,0.110,0.959,0.079,5.6,0.0,-1.4,646,814,0
L,,289886,-0.037,1.039,0.114,3.6,-3.5,-3.1,638,824,0
L,,289946,0.028,1.016,0.032,5.3,5.6,-1.8,631,829,0
L,,290005,-0.026,1.018,0.027,3.9,-0.6,-2.6,605,845,0
L,,290067,0.082,0.977,-0.041,4.1,1.8,-2.1,583,851,0
L,,290125,0.075,0.984,-0.034,3.2,0.7,-1.9,524,853,0
L,,290186,-0.076,1.032,-0.074,3.5,0.2,-2.1,459,861,0
L,,290246,-0.050,1.021,-0.061,4.4,0.7,-2.9,362,871,0
L,,290306,-0.024,1.016,-0.116,5.6,1.4,-3.0,318,867,0
L,,290366,-0.104,1.087,-0.101,8.6,3.1,-4.3,213,863,0
L,,290426,-0.104,1.117,-0.141,9.5,3.6,-5.1,187,850,0
L,,290486,-0.169,1.397,-0.010,15.6,11.3,-8.6,156,766,0
L,,290545,-0.339,1.412,-0.087,12.8,22.1,-13.7,287,689,0
L,,290605,-0.002,0.408,-0.247,10.1,32.0,-10.2,259,516,0
L,,290666,0.478,0.305,0.229,-2.7,19.2,-7.3,286,529,0
L,,290727,0.403,0.482,-0.071,-13.5,18.9,-6.3,292,534,0
L,,290786,0.810,0.773,-0.191,-21.1,11.9,-3.3,300,577,0
L,,290846,0.788,0.945,-0.230,-25.2,5.2,-0.2,321,600,0
L,,290906,0.536,1.155,-0.128,-25.1,0.6,5.4,344,599,0
L,,290965,0.286,1.370,-0.182,-23.8,-5.0,6.5,336,561,0
L,,291026,-0.049,1.196,-0.279,-15.7,-1.0,7.1,329,579,0
L,,291085,0.309,1.108,-0.282,-2.3,10.8,3.3,350,583,0
L,,291146,0.517,1.203,-0.123,4.6,-3.5,0.1,328,625,0
L,,291206,-0.129,1.223,0.785,1.7,-5.6,-1.9,559,742,0
L,,291266,0.349,1.280,-0.148,10.5,-7.0,-5.1,537,700,0
L,,291326,0.114,0.996,-0.044,2.0,-4.9,-5.7,623,797,0
L,,291386,0.162,0.963,0.066,1.3,-1.5,-2.2,657,826,0
L,,291448,-0.070,1.051,0.103,1.2,-4.2,-2.8,668,832,0
L,,291505,-0.008,1.018,0.056,2.7,1.9,-2.3,671,838,0
L,,291566,-0.013,1.039,0.243,3.2,-1.7,-1.6,668,838,0
L,,291625,0.043,1.016,0.003,3.7,-1.6,-1.3,662,843,0
L,,291686,0.074,1.024,0.029,5.1,-2.0,-1.4,643,845,0
L,,291746,0.050,1.048,0.009,7.0,-0.1,-1.8,610,857,0
L,,291806,0.039,1.038,-0.112,7.6,-0.9,-2.2,515,865,0
L,,291866,0.001,1.132,-0.182,11.2,1.9,-1.8,395,864,0
L,,291926,0.179,1.060,-0.167,13.7,2.3,-4.5,181,729,0
L,,291986,0.014,1.476,-0.052,14.3,-1.1,-1.8,118,605,0
L,,292045,0.116,1.348,-0.092,15.9,-3.0,-5.5,141,766,0
L,,292106,-0.002,1.058,0.154,18.3,14.2,-5.4,207,532,0
L,,292167,-0.182,0.629,0.229,4.6,12.4,-4.9,318,568,0
L,,292226,0.296,0.317,-0.044,-10.5,11.5,-1.6,286,601,0
L,,292286,0.593,0.621,0.032,-26.1,13.9,-6.3,287,585,0
L,,292346,0.521,0.996,-0.149,-32.7,12.1,-1.5,291,596,0
L,,292406,0.526,1.322,-0.214,-31.7,8.8,-0.9,297,613,0
L,,292466,0.635,1.448,-0.435,-29.6,1.3,4.0,288,607,0
L,,292526,-0.069,1.469,-0.758,-18.6,-7.8,3.5,286,601,0
L,,292585,0.212,1.418,-0.726,8.3,0.7,-1.8,293,628,0
L,,292646,0.806,1.235,-0.013,12.4,2.9,-2.3,601,764,0
L,,292706,0.168,0.970,0.130,9.6,-4.8,-6.4,620,780,0
L,,292766,-0.116,1.006,0.013,6.1,-3.9,-1.4,631,799,0
L,,292828,0.121,1.012,0.167,2.2,-3.0,-3.7,653,826,0
L,,292886,0.015,1.105,0.195,2.8,-0.4,-1.7,651,830,0
L,,292946,-0.018,1.009,0.061,1.9,-2.6,-1.8,653,840,0
L,,293006,0.029,1.023,0.020,4.0,-0.5,-1.6,647,843,0
L,,293066,0.033,1.033,0.034,2.9,-1.3,-1.6,632,850,0
L,,293125,0.021,1.024,0.019,4.8,0.4,-2.1,596,845,0
L,,293216,0.007,1.048,0.008,6.4,1.1,-3.0,471,832,0
L,,293276,-0.003,0.990,-0.080,7.4,0.6,-3.6,323,861,0
L,,293335,-0.047,1.168,-0.085,10.7,4.0,-3.8,267,863,0
L,,293396,0.042,1.297,-0.080,14.7,5.7,-4.5,185,846,0
L,,293456,0.005,1.197,-0.087,16.5,10.5,-7.2,173,726,0
L,,293516,-0.051,1.204,0.066,14.5,9.7,-10.3,254,637,0
L,,293578,-0.463,0.192,-0.327,9.1,10.8,-10.9,260,473,0
L,,293636,0.196,0.182,0.020,-8.3,13.4,-4.5,295,555,0
L,,293696,0.472,0.492,-0.322,-20.9,17.6,-3.2,293,567,0
L,,293756,0.600,0.817,-0.605,-26.2,17.6,-0.3,299,593,0
L,,293816,0.723,1.175,-0.498,-23.6,14.1,5.6,319,610,0
L,,293875,0.689,1.166,-0.348,-20.3,9.9,7.3,331,622,0
L,,293936,0.283,1.244,-0.162,-17.4,4.0,7.1,336,634,0
L,,293996,0.047,1.257,-0.093,-8.8,9.7,5.7,328,622,0
L,,294056,0.265,1.006,-0.148,-1.4,11.6,2.3,330,629,0
L,,294116,-0.107,1.386,-0.277,6.4,5.6,-1.4,361,646,0
L,,294176,0.175,1.847,-0.021,16.5,1.9,-6.6,585,752,0
L,,294236,0.257,1.006,-0.394,9.7,-4.3,-5.0,612,777,0
L,,294297,-0.090,0.971,0.128,3.9,-7.5,-4.1,641,807,0
L,,294356,0.271,1.014,-0.016,3.8,-2.3,-4.1,633,794,0
L,,294416,-0.029,1.016,0.047,3.6,-1.7,-2.0,646,822,0
L,,294476,0.103,0.972,0.122,3.0,2.0,-1.8,648,836,0
L,,294536,0.002,1.039,-0.061,3.5,0.1,-0.9,625,825,0
L,,294596,0.046,1.057,-0.026,4.3,0.1,-1.3,621,847,0
L,,294656,0.050,1.053,-0.036,5.8,1.2,-1.3,569,860,0
L,,294716,0.030,1.080,-0.022,7.4,1.8,-1.5,468,861,0
L,,294776,0.143,1.130,-0.162,11.0,1.1,-1.5,354,866,0
L,,294866,-0.003,1.347,-0.176,15.1,3.7,0.6,120,717,0
L,,294926,0.194,1.202,-0.053,14.0,-4.9,-6.9,128,712,0
L,,294988,0.000,1.674,0.043,19.2,3.4,-5.9,174,647,0
L,,295046,-0.048,0.038,-0.343,11.2,11.4,-8.9,315,565,0
L,,295106,0.203,0.350,0.138,-4.0,15.8,-0.2,312,567,0
L,,295166,0.339,0.538,-0.094,-23.3,2.8,-0.7,309,583,0
L,,295226,0.305,0.858,-0.237,-28.8,2.2,-0.5,322,591,0
L,,295286,0.289,1.087,-0.209,-29.9,1.4,1.2,298,622,0
L,,295346,0.526,1.363,-0.229,-27.3,3.2,1.4,317,622,0
L,,295406,0.307,1.396,-0.257,-23.8,0.9,5.3,349,619,0
L,,295466,0.414,1.257,-0.601,-12.1,4.3,2.4,320,632,0
L,,295526,0.145,1.167,-0.575,2.4,-2.7,-1.0,333,639,0
L,,295586,-0.188,0.737,1.298,7.3,-3.6,-7.0,510,718,0
L,,295646,0.287,1.095,0.014,13.8,1.2,-8.2,622,779,0
L,,295708,0.184,0.825,0.190,6.0,-9.1,-5.0,627,794,0
L,,295796,0.227,1.015,0.093,2.1,-0.9,-3.6,648,812,0
L,,295856,-0.127,1.049,0.146,3.4,1.7,-1.8,663,831,0
L,,295916,0.277,0.925,0.041,3.4,1.1,-1.1,664,837,0
L,,295976,0.078,1.012,0.060,3.8,-0.6,-0.8,661,842,0
L,,296036,0.048,1.036,0.038,4.0,-0.6,-1.2,652,846,0
L,,296096,0.065,1.026,0.023,4.5,2.2,-1.6,636,852,0
L,,296156,0.008,1.055,-0.030,6.3,0.8,-1.9,601,858,0
L,,296246,-0.007,1.126,-0.108,10.5,2.9,-2.0,351,872,0
L,,296306,0.038,1.201,-0.164,13.7,4.5,-2.9,215,855,0
L,,296366,0.129,1.356,-0.143,14.9,3.4,-1.6,175,843,0
L,,296427,0.330,1.273,-0.114,16.4,-1.6,-3.3,168,793,0
L,,296486,0.076,1.649,-0.131,23.4,1.9,-2.7,223,648,0
L,,296546,-0.400,0.588,-0.369,10.8,3.2,-2.9,319,500,0
L,,296606,0.321,0.393,0.071,-3.1,18.0,3.7,334,564,0
L,,296666,0.341,0.643,-0.030,-23.0,1.6,2.8,291,582,0
L,,296726,0.254,1.085,-0.302,-29.8,-7.5,3.5,323,623,0
L,,296786,-0.069,1.147,-0.099,-31.7,-1.6,6.1,344,625,0
L,,296846,0.029,1.429,-0.106,-25.2,11.3,6.0,317,628,0
L,,296906,0.053,1.386,-0.388,-21.4,17.7,3.2,317,605,0
L,,296966,0.411,1.291,-1.014,-6.9,9.5,0.1,331,584,0
L,,297026,0.213,1.000,-0.327,14.4,-7.1,-5.5,437,674,0
L,,297086,0.182,1.191,-0.054,15.6,-3.9,-4.1,605,766,0
L,,297148,-0.156,0.911,-0.105,5.0,-12.2,-1.5,598,765,0
L,,297207,0.080,0.977,0.031,4.5,-0.1,-1.1,618,783,0
L,,297266,-0.195,1.088,0.126,2.0,-3.2,-2.8,632,794,0
L,,297326,0.011,1.046,0.067,3.9,2.1,-0.9,633,795,0
L,,297385,-0.053,1.023,-0.008,3.5,-1.3,-2.2,637,806,0
L,,297446,0.012,1.012,0.023,4.6,-0.7,-2.2,641,827,0
L,,297506,-0.041,1.030,0.004,4.8,0.0,-2.5,629,837,0
L,,297566,-0.082,1.063,-0.045,5.7,1.3,-3.6,594,844,0
L,,297626,-0.111,1.185,-0.066,7.9,4.7,-4.3,408,846,0
L,,297686,-0.083,1.149,-0.228,11.6,5.7,-4.6,307,832,0
L,,297746,0.000,1.289,-0.095,13.0,6.4,-5.5,181,753,0
L,,297806,0.187,1.219,-0.113,15.8,13.5,-8.3,171,771,0
L,,297868,-0.296,1.221,-0.029,12.8,11.0,-9.5,283,577,0
L,,297926,-0.332,0.436,-0.215,5.9,14.0,-11.5,314,498,0
L,,297986,0.599,0.282,0.092,-5.1,28.3,-6.5,319,564,0
L,,298046,0.775,0.552,-0.093,-22.0,18.0,-7.1,287,553,0
L,,298106,0.587,0.950,-0.092,-30.2,15.4,-1.9,307,569,0
L,,298166,0.559,1.191,-0.108,-28.9,17.0,3.6,315,573,0
L,,298226,0.496,1.474,-0.352,-30.2,11.6,3.9,291,519,0
L,,298286,0.013,1.536,-0.568,-18.9,5.1,4.9,321,556,0
L,,298346,0.616,1.545,-0.255,5.7,-0.7,-4.0,317,591,0
L,,298406,0.634,1.398,0.341,15.7,-7.9,-5.2,565,737,0
L,,298466,0.252,0.943,0.102,9.8,-3.3,-6.9,604,765,0
L,,298528,-0.182,0.946,0.044,4.0,-5.3,-2.0,626,794,0
L,,298586,0.190,1.011,0.114,1.7,-3.2,-2.8,647,810,0
L,,298646,-0.077,1.123,0.149,4.0,0.9,-3.8,634,791,0
L,,298707,0.120,1.010,0.137,2.6,-1.2,-1.9,655,820,0
L,,298766,0.209,0.994,0.041,3.5,-4.9,0.5,656,827,0
L,,298826,-0.044,1.051,0.053,4.5,-3.7,-2.2,651,832,0
L,,298886,0.014,1.003,-0.037,4.4,0.0,-2.5,634,823,0
L,,298946,-0.055,1.038,-0.002,3.9,0.1,-3.5,639,837,0
L,,299006,-0.039,1.231,0.013,6.3,3.0,-3.8,609,841,0
L,,299066,-0.222,1.071,-0.054,9.0,4.8,-4.1,450,827,0
L,,299126,-0.020,1.199,-0.189,11.2,5.8,-5.1,295,811,0
L,,299186,0.132,1.272,-0.079,13.8,7.1,-5.4,213,805,0
L,,299248,0.249,1.221,-0.059,13.5,11.2,-6.6,170,784,0
L,,299306,-0.238,1.272,-0.115,14.9,2.7,-7.0,287,555,0
L,,299366,-0.517,0.378,-0.448,8.7,6.6,-7.4,290,515,0
L,,299426,0.197,0.292,0.227,-3.3,17.3,0.4,287,555,0
L,,299486,0.286,0.625,-0.007,-19.3,16.2,3.1,275,572,0
L,,299546,0.424,0.922,-0.194,-29.4,7.5,3.2,265,547,0
L,,299606,0.322,1.318,-0.170,-31.5,0.5,2.4,308,577,0
L,,299666,0.240,1.479,-0.202,-25.7,1.9,3.5,301,598,0
L,,299726,0.235,1.324,-0.284,-21.4,3.5,5.0,327,600,0
L,,299787,0.284,1.250,-0.819,-7.7,8.7,0.7,311,587,0
L,,299846,-0.239,1.436,-0.446,11.3,0.7,-5.3,402,612,0
L,,299906,0.233,1.319,0.132,14.4,0.0,-11.9,571,715,0
L,,299967,-0.219,0.874,-0.307,8.9,-5.0,-4.9,598,757,0
L,,300026,0.012,0.979,0.032,5.7,-2.3,-0.9,576,730,0
L,,300086,0.039,1.036,0.100,2.8,-3.3,-3.1,613,777,0
L,,300146,0.188,1.029,0.038,3.4,-0.2,-0.9,615,786,0
L,,300207,-0.104,1.033,0.049,3.7,-1.5,-1.6,612,793,0
L,,300266,0.040,0.962,0.002,3.9,-2.0,-1.6,625,819,0
L,,300327,-0.075,1.044,-0.007,3.7,-2.8,-1.5,604,815,0
L,,300386,-0.011,1.016,-0.065,4.7,0.3,-2.4,568,815,0
L,,300446,-0.047,1.029,-0.092,4.9,0.9,-3.5,532,827,0
L,,300505,0.071,1.118,-0.061,7.4,2.0,-3.8,412,841,0
L,,300566,-0.062,1.165,-0.109,10.8,4.6,-6.0,300,795,0
L,,300627,-0.036,1.330,-0.150,14.6,9.8,-6.9,220,840,0
L,,300686,0.159,1.313,-0.086,17.4,15.3,-10.5,219,808,0
L,,300747,-0.277,1.550,-0.108,14.7,16.9,-10.3,294,582,0
L,,300806,-0.640,0.434,-0.263,8.4,20.6,-12.7,299,484,0
L,,300866,0.915,0.218,0.222,-3.5,27.9,-4.4,284,519,0
L,,300926,0.596,0.517,-0.152,-20.2,14.8,-5.4,280,552,0
L,,300986,0.529,0.945,-0.287,-27.5,3.2,-2.9,317,542,0
L,,301046,0.328,1.180,-0.244,-26.2,4.1,0.9,347,590,0
L,,301106,0.399,1.200,-0.239,-25.4,2.1,1.5,349,591,0
L,,301166,0.540,1.094,-0.167,-23.3,-5.0,2.5,349,599,0
L,,301226,0.010,1.248,-0.227,-14.4,-6.7,3.1,341,589,0
L,,301287,0.120,1.224,-0.584,-0.6,-7.0,-1.1,356,613,0
L,,301348,0.112,0.669,1.028,7.0,-0.8,-4.9,535,715,0
L,,301406,0.361,1.249,-0.121,14.8,-0.2,-4.8,602,755,0
L,,301466,-0.196,0.774,0.228,5.8,-9.7,-1.1,624,790,0
L,,301526,0.290,0.979,0.091,4.8,-2.3,-1.6,648,815,0
L,,301586,0.076,1.009,0.321,4.1,-2.8,-2.1,645,818,0
L,,301646,0.193,0.978,-0.025,3.9,1.0,-1.3,634,815,0
L,,301707,0.100,1.026,0.067,4.7,0.1,-0.3,629,821,0
L,,301766,0.063,1.035,-0.006,3.6,-1.7,0.0,622,827,0
L,,301827,0.037,1.035,-0.051,4.7,-0.1,-0.2,589,829,0
L,,301886,0.072,1.023,-0.073,5.9,0.6,-0.3,528,820,0
L,,301976,0.159,1.080,-0.135,8.9,0.0,0.1,379,824,0
L,,302037,0.047,1.131,-0.162,11.2,0.7,1.4,244,826,0
L,,302098,0.286,1.162,-0.156,14.0,-0.8,1.6,160,846,0
L,,302157,0.200,1.407,-0.093,17.0,-0.3,-0.6,142,794,0
L,,302216,0.106,1.455,-0.008,18.0,-5.0,-4.8,151,704,0
L,,302276,0.178,1.787,-0.417,18.9,2.2,-9.5,328,573,0
L,,302335,-0.207,0.250,0.360,-5.5,7.4,1.6,359,567,0
L,,302396,0.010,0.532,-0.089,-17.1,5.6,3.4,325,592,0
L,,302457,0.233,0.868,-0.203,-27.4,-2.0,1.6,299,559,0
L,,302516,0.256,0.894,-0.185,-30.8,-8.3,5.0,307,594,0
L,,302577,-0.014,1.356,-0.101,-29.3,-9.9,1.4,322,613,0
L,,302636,-0.086,1.424,-0.178,-27.0,-5.1,3.0,297,618,0
L,,302696,-0.018,1.318,-0.390,-17.1,5.3,2.4,308,618,0
L,,302758,0.321,1.309,-0.763,0.0,7.2,-1.2,325,613,0
L,,302816,-0.195,1.517,-0.293,9.5,-6.9,-8.5,385,669,0
L,,302876,0.385,1.339,0.078,12.7,-4.1,-9.7,608,763,0
L,,302936,0.144,0.848,-0.068,7.8,-4.2,-3.6,597,761,0
L,,302997,0.089,0.985,0.005,6.4,-1.1,-0.5,635,810,0
L,,303056,-0.015,1.053,0.056,4.7,0.5,-2.2,632,814,0
L,,303117,-0.031,1.005,0.042,4.2,2.0,-0.7,630,817,0
L,,303176,-0.050,1.038,0.031,4.3,-0.6,-1.0,611,821,0
L,,303236,-0.009,0.998,-0.032,4.9,-0.2,-1.6,616,848,0
L,,303296,-0.024,1.012,-0.052,5.2,0.8,-1.9,545,858,0
L,,303356,-0.006,1.059,-0.057,5.6,1.2,-1.8,387,844,0
L,,303416,0.072,1.104,-0.125,7.5,1.1,-2.1,324,862,0
L,,303478,-0.082,1.116,-0.086,10.5,2.4,-2.7,222,849,0
L,,303537,-0.041,1.245,-0.211,13.6,4.5,-2.9,191,856,0
L,,303596,0.147,1.479,-0.040,17.2,6.2,-5.1,169,792,0
L,,303657,-0.104,1.571,0.007,16.6,4.2,-8.8,239,622,0
L,,303716,-0.197,0.154,-0.567,10.0,12.1,-6.7,297,460,0
L,,303776,0.381,0.292,0.115,-1.1,20.9,-1.3,293,540,0
L,,303836,0.257,0.408,-0.049,-16.8,9.3,-3.2,330,566,0
L,,303896,0.430,0.872,-0.187,-25.3,5.9,-0.9,332,591,0
L,,303957,0.473,1.054,-0.144,-29.6,1.7,3.0,336,616,0
L,,304016,0.339,1.307,-0.135,-30.7,-2.4,4.3,339,632,0
L,,304077,0.099,1.569,-0.085,-27.3,0.3,6.1,331,609,0
L,,304138,0.087,1.406,-0.576,-15.4,10.8,3.6,332,584,0
L,,304197,0.464,1.190,-0.745,3.2,3.5,-1.4,333,585,0
L,,304256,0.200,0.933,0.735,11.0,-1.4,-5.1,550,735,0
L,,304316,0.251,1.049,-0.178,15.3,-7.5,-5.3,617,773,0
L,,304376,-0.198,1.169,0.058,6.1,-8.2,-1.2,632,804,0
L,,304436,0.242,0.934,-0.018,4.4,-0.5,-3.9,640,814,0
L,,304497,-0.126,1.015,0.014,8.8,6.5,-3.3,630,813,0
L,,304586,-0.109,1.004,0.008,4.3,0.5,-1.5,613,840,0
L,,304646,0.046,0.981,-0.057,4.1,0.0,-1.7,579,845,0
L,,304737,0.112,0.983,-0.101,3.1,0.2,-2.1,511,855,0
L,,304796,-0.076,1.057,-0.040,3.4,0.5,-2.4,411,862,0
L,,304856,0.063,1.168,-0.010,6.7,2.7,-2.4,318,825,0
L,,304917,-0.112,1.106,-0.102,10.6,2.3,-4.0,215,743,0
L,,304976,0.068,1.347,-0.099,14.2,4.7,-4.6,194,809,0
L,,305037,0.161,1.359,-0.042,17.9,4.1,-7.5,181,770,0
L,,305096,-0.281,1.013,0.099,13.2,10.9,-9.1,279,635,0
L,,305157,-0.358,0.074,-0.354,8.9,23.2,-8.8,271,480,0
L,,305216,0.871,0.101,0.225,-2.9,17.7,-5.6,287,565,0
L,,305277,0.612,0.438,-0.155,-20.1,9.8,-2.9,318,571,0
L,,305336,0.381,0.908,-0.363,-29.1,7.2,-1.0,334,604,0
L,,305396,0.552,1.051,-0.219,-28.6,9.3,1.8,317,625,0
L,,305456,0.593,1.214,-0.265,-26.9,3.6,4.0,325,632,0
L,,305516,0.435,1.366,-0.225,-24.2,1.0,6.2,301,610,0
L,,305577,-0.062,1.385,-0.528,-9.5,15.2,6.1,324,599,0
L,,305638,0.012,1.236,-0.587,7.3,1.9,-0.5,347,612,0
L,,305697,0.502,1.037,0.721,10.0,9.0,0.8,537,716,0
L,,305756,0.485,0.678,-0.011,14.7,-7.2,-4.0,575,736,0
L,,305816,-0.054,0.979,-0.037,6.0,-7.5,-2.9,595,766,0
L,,305876,0.269,0.975,0.035,2.9,-3.6,-2.7,628,806,0
L,,305936,-0.107,1.017,0.017,0.6,-3.7,-2.6,599,764,0
L,,305997,0.060,1.000,0.068,1.6,-2.7,-2.0,644,830,0
L,,306056,0.010,1.053,0.070,3.5,2.7,-2.1,644,839,0
L,,306117,-0.001,1.019,-0.012,3.3,0.0,-2.1,628,844,0
L,,306176,-0.019,0.995,-0.049,3.0,0.2,-1.1,613,859,0
L,,306237,-0.030,1.032,-0.031,4.2,0.7,-2.3,570,862,0
L,,306298,-0.079,1.070,-0.042,6.1,2.3,-2.8,457,864,0
L,,306356,0.025,1.107,-0.111,8.7,3.0,-3.3,302,871,0
L,,306416,-0.159,1.219,-0.139,12.2,5.1,-3.5,222,864,0
L,,306476,0.060,1.284,-0.050,13.7,4.1,-6.4,168,810,0
L,,306537,-0.088,1.489,-0.097,17.4,6.7,-9.2,173,774,0
L,,306596,-0.318,1.040,-0.067,14.7,18.6,-10.1,261,445,0
L,,306686,0.379,0.206,0.447,-2.4,28.1,-6.1,291,534,0
L,,306746,0.372,0.367,-0.099,-19.3,13.1,-2.4,302,557,0
L,,306806,0.472,0.793,-0.113,-29.4,7.7,-0.3,332,578,0
L,,306896,0.429,1.360,-0.104,-32.3,3.6,2.3,355,612,0
L,,306957,0.243,1.588,-0.201,-28.6,1.4,6.3,345,611,0
L,,307016,0.040,1.404,-0.478,-19.3,1.5,3.8,346,614,0
L,,307078,-0.020,1.358,-0.777,0.5,0.5,0.3,347,623,0
L,,307136,0.236,1.564,0.306,14.1,-6.9,-5.6,414,668,0
L,,307197,0.288,1.535,-0.179,16.6,-2.7,-13.3,610,768,0
L,,307256,0.024,0.890,0.049,5.9,-9.0,-5.0,628,790,0
L,,307317,0.149,0.949,0.008,5.2,-0.7,-1.5,647,814,0
L,,307376,-0.031,1.100,0.279,3.6,1.9,-4.3,658,828,0
L,,307436,0.206,0.871,0.041,3.7,3.2,-2.2,657,835,0
L,,307497,-0.017,1.039,0.053,2.4,-0.6,-1.1,653,840,0
L,,307556,0.040,1.006,0.005,3.6,-0.2,-1.8,641,846,0
L,,307617,0.020,1.016,-0.030,3.9,0.0,-2.2,623,849,0
L,,307676,0.027,0.978,-0.060,4.1,0.3,-2.7,588,855,0
L,,307737,-0.047,1.143,0.031,6.8,1.5,-3.2,496,865,0
L,,307798,0.000,1.163,-0.081,9.9,1.7,-3.5,264,858,0
L,,307857,0.037,1.117,-0.046,14.8,5.7,-4.6,174,849,0
L,,307916,0.260,1.403,0.012,17.9,3.2,-4.1,163,795,0
L,,307976,-0.053,1.408,-0.115,16.1,-1.9,-8.8,230,690,0
L,,308037,-0.114,0.807,0.004,11.1,15.1,-3.8,238,431,0
L,,308096,-0.064,0.413,0.383,1.8,24.9,-0.9,292,495,0
L,,308157,0.310,0.355,0.101,-16.1,14.9,1.5,271,533,0
L,,308216,0.514,0.731,-0.186,-27.5,6.5,0.0,265,569,0
L,,308277,0.286,1.162,-0.170,-33.3,-3.7,2.2,300,569,0
L,,308336,0.117,1.381,-0.192,-30.9,-3.7,3.0,320,603,0
L,,308397,0.017,1.557,-0.253,-25.8,-0.7,4.5,285,564,0
L,,308458,0.076,1.370,-0.912,-12.1,7.2,2.0,298,584,0
L,,308516,0.415,1.467,-0.409,11.0,-5.8,-4.5,336,622,0
L,,308576,0.493,1.567,0.077,16.0,-9.1,-7.9,583,734,0
L,,308636,-0.017,1.399,-0.435,9.8,-1.5,-6.0,608,771,0
L,,308697,0.011,0.990,0.059,5.4,-2.6,-1.3,640,812,0
L,,308756,0.151,1.012,0.098,3.6,-2.9,-1.9,644,812,0
L,,308846,0.177,1.049,0.017,3.2,-1.3,-1.5,632,809,0
L,,308907,0.037,1.034,-0.008,3.2,-2.6,-1.1,627,807,0
L,,308966,0.091,1.066,0.120,4.5,-0.9,-1.2,641,838,0
L,,309027,0.078,1.059,-0.004,7.2,0.4,-1.6,622,848,0
L,,309086,0.089,1.131,-0.091,10.3,0.8,-1.3,504,834,0
L,,309147,0.107,1.153,-0.186,13.1,0.0,-0.3,343,855,0
L,,309238,0.048,1.493,-0.047,17.3,-1.6,-1.4,146,827,0
L,,309296,0.156,1.670,-0.036,17.8,-3.5,-8.3,158,663,0
L,,309357,-0.038,0.766,-0.079,15.9,14.2,-3.3,258,521,0
L,,309416,0.088,0.319,0.310,2.8,14.7,-5.4,305,552,0
L,,309476,0.491,0.346,-0.099,-12.6,15.9,-3.0,313,585,0
L,,309537,0.590,0.586,-0.035,-29.9,5.5,-7.8,314,580,0
L,,309596,0.792,1.265,-0.194,-28.3,4.9,-0.9,314,590,0
L,,309657,0.560,1.233,-0.178,-28.4,2.0,0.4,309,599,0
L,,309716,0.430,1.468,-0.102,-29.7,-3.3,7.3,313,592,0
L,,309777,-1.002,2.136,-0.883,-19.1,16.5,15.6,290,610,0
L,,309836,0.350,1.233,-0.670,3.9,5.3,-0.7,330,608,0
L,,309897,-0.241,0.960,0.861,8.8,2.2,-7.1,528,715,0
L,,309958,0.267,1.049,-0.137,13.3,-4.0,-1.6,585,732,0
L,,310016,0.187,0.876,0.252,2.9,-5.4,-5.1,595,751,0
L,,310077,-0.043,1.009,0.108,2.1,-1.4,-0.4,635,796,0
L,,310166,-0.121,1.046,0.283,3.0,-0.2,-1.2,654,818,0
L,,310227,0.099,1.013,0.133,5.6,1.5,-1.0,653,830,0
L,,310287,0.093,0.990,0.034,5.4,-0.1,-0.8,650,839,0
L,,310346,0.073,1.011,0.013,4.9,-1.3,-0.3,648,852,0
L,,310407,0.095,1.020,-0.020,6.6,-0.1,-0.9,623,857,0
L,,310466,0.063,1.077,-0.049,9.4,1.2,-1.0,541,870,0
L,,310527,0.250,1.020,-0.101,11.1,-2.2,-1.2,324,804,0
L,,310586,-0.002,1.204,-0.146,14.1,0.8,0.4,238,866,0
L,,310648,0.219,1.272,0.040,18.2,-0.9,-1.3,154,839,0
L,,310707,0.111,1.693,-0.143,19.1,-6.0,-6.1,165,745,0
L,,310766,-0.051,0.833,-0.122,15.6,12.1,-2.0,268,477,0
L,,310827,0.009,0.323,0.056,3.6,10.1,-2.2,367,543,0
L,,310886,0.374,0.247,0.000,-12.1,13.2,-2.6,352,594,0
L,,310947,0.446,0.627,-0.080,-26.0,8.3,-5.3,305,566,0
L,,311006,0.561,1.319,-0.125,-29.8,1.3,1.2,306,591,0
L,,311108,0.317,1.219,-0.163,-28.6,-2.3,2.6,322,610,0
L,,311126,0.244,1.387,-0.182,-27.2,-1.0,2.2,322,600,0
L,,311187,0.148,1.341,-0.375,-18.4,4.7,3.4,338,622,0
L,,311247,0.234,1.208,-0.810,1.3,9.7,-1.0,344,620,0
L,,311306,0.014,0.861,0.851,10.6,-0.5,-4.2,491,694,0
L,,311368,0.185,1.267,-0.272,13.3,-10.0,-6.5,610,769,0
L,,311426,-0.168,0.981,-0.005,3.6,-9.8,-2.8,629,802,0
L,,311487,0.151,0.995,0.036,4.8,0.2,-1.5,646,821,0
L,,311546,-0.249,1.155,0.070,5.4,0.8,-4.3,627,799,0
L,,311607,0.207,0.983,0.007,2.7,0.5,-1.4,656,835,0
L,,311666,-0.031,1.000,0.047,3.6,-1.2,-1.3,656,843,0
L,,311727,0.041,1.057,0.021,4.7,-0.2,-1.5,647,850,0
L,,311787,-0.015,1.013,-0.037,5.1,0.2,-2.2,627,861,0
L,,311846,-0.082,1.078,-0.018,6.4,1.0,-2.8,519,869,0
L,,311907,0.028,1.102,-0.095,8.6,2.4,-2.6,349,875,0
L,,311966,-0.044,1.138,-0.120,13.5,4.5,-3.0,227,809,0
L,,312028,-0.083,1.424,-0.120,16.6,6.8,-3.7,185,831,0
L,,312086,0.149,1.347,-0.088,18.7,14.9,-8.7,193,823,0
L,,312147,-0.500,1.086,0.038,15.0,11.8,-9.1,285,554,0
L,,312207,-0.206,0.595,-0.195,9.1,15.6,-8.1,308,512,0
L,,312296,0.429,0.404,-0.028,-16.5,19.2,-4.7,320,559,0
L,,312386,0.727,1.053,-0.203,-26.8,6.1,-2.6,291,540,0
L,,312447,0.473,1.161,-0.150,-29.3,-0.1,-0.2,319,569,0
L,,312506,0.352,1.502,-0.125,-27.9,-1.1,4.2,341,606,0
L,,312567,0.038,1.363,-0.348,-20.2,1.8,4.4,345,598,0
L,,312626,0.236,1.275,-0.378,-6.0,12.4,0.8,342,584,0
L,,312687,0.102,1.162,-0.617,13.2,-3.4,-4.0,392,654,0
L,,312747,0.307,0.951,0.316,16.5,-5.4,-8.9,548,699,0
L,,312808,-0.247,1.269,-0.482,9.4,-3.8,-6.0,604,765,0
L,,312867,-0.024,1.022,0.042,6.7,-1.3,-1.3,617,780,0
L,,312926,0.016,1.011,0.073,4.2,-4.7,-2.1,624,794,0
L,,312987,0.031,1.026,0.021,4.7,1.5,-1.5,617,793,0
L,,313046,-0.045,0.988,0.058,4.2,-0.6,-1.5,615,809,0
L,,313107,0.035,1.008,-0.063,4.3,-0.2,-1.4,619,835,0
L,,313166,-0.048,1.010,-0.052,3.9,-0.6,-1.8,607,841,0
L,,313227,-0.035,1.032,-0.043,4.1,0.3,-2.4,582,852,0
L,,313287,-0.038,1.071,-0.072,6.2,2.0,-2.7,501,863,0
L,,313347,-0.057,1.156,-0.160,8.2,2.2,-2.6,351,855,0
L,,313407,-0.090,1.171,-0.201,10.9,4.3,-3.3,239,807,0
L,,313466,0.073,1.254,-0.135,13.7,4.1,-4.3,199,840,0
L,,313528,0.269,1.332,-0.031,14.7,6.7,-6.8,178,762,0
L,,313586,-0.158,1.367,-0.124,16.5,12.3,-9.1,289,631,0
L,,313647,-0.141,0.823,-0.489,10.9,15.3,-9.7,331,519,0
L,,313707,0.052,0.231,-0.053,-7.6,13.3,-3.1,338,557,0
L,,313767,0.589,0.589,-0.130,-22.3,22.6,-3.1,345,574,0
L,,313827,0.740,0.957,-0.213,-29.1,19.6,-0.2,361,583,0
L,,313886,0.726,1.290,-0.218,-30.0,8.1,1.6,359,606,0
L,,313977,0.319,1.456,-0.334,-24.9,-1.5,4.6,368,607,0
L,,314037,-0.319,1.493,-0.452,-11.7,4.6,3.9,371,619,0
L,,314097,0.081,1.214,-0.505,5.1,3.1,-1.4,380,626,0
L,,314157,0.036,1.021,0.821,7.0,-0.1,-1.9,515,709,0
L,,314218,0.298,1.098,-0.054,14.1,-7.4,-6.9,595,746,0
L,,314277,-0.039,0.911,0.196,5.9,-11.2,-4.7,613,777,0
L,,314336,0.217,0.948,0.035,5.4,-0.9,-3.6,637,818,0
L,,314397,-0.197,0.991,0.105,4.2,-1.3,-3.3,640,833,0
L,,314457,0.057,1.015,0.040,4.1,2.8,-2.2,586,807,0
L,,314517,-0.020,1.015,0.032,3.7,0.5,-1.9,576,854,0
L,,314577,0.023,1.006,0.008,3.6,-0.9,-1.8,547,871,0
L,,314637,0.011,0.981,-0.127,2.6,-3.6,-1.5,528,867,0
L,,314697,-0.028,1.103,-0.028,4.4,-0.8,-2.1,493,858,0
L,,314756,0.015,1.097,-0.057,7.7,1.2,-2.9,329,755,0
L,,314816,-0.128,1.131,-0.099,10.7,1.3,-3.0,254,847,0
L,,314876,-0.047,1.171,-0.182,12.7,4.4,-3.1,255,805,0
L,,314938,-0.043,1.472,-0.007,16.9,4.3,-4.7,211,800,0
L,,314997,0.000,1.335,-0.092,15.1,7.1,-10.2,241,640,0
L,,315057,-0.070,0.937,-0.222,11.5,19.7,-5.2,255,550,0
L,,315117,0.212,0.241,0.421,-2.3,22.7,-6.5,286,560,0
L,,315177,0.651,0.455,0.019,-16.9,13.0,-3.2,311,581,0
L,,315237,0.648,0.831,-0.161,-27.1,6.2,-1.7,329,581,0
L,,315296,0.520,1.016,-0.159,-28.3,3.4,3.0,352,603,0
L,,315357,0.422,1.354,-0.124,-29.1,1.2,4.3,370,625,0
L,,315416,0.218,1.480,-0.109,-27.4,-3.2,7.7,353,599,0
L,,315477,0.072,1.330,-0.303,-16.8,-4.8,4.0,344,598,0
L,,315537,-0.025,1.280,-0.701,1.9,-11.6,-1.8,367,625,0
L,,315597,0.162,0.815,0.909,6.7,-9.2,-3.0,555,732,0
L,,315659,0.487,0.706,-0.240,15.8,-5.5,-5.1,621,781,0
L,,315716,0.183,0.922,-0.039,2.1,-5.8,-5.3,622,793,0
L,,315777,0.197,0.962,0.035,4.9,-1.9,-2.8,649,825,0
L,,315836,0.066,0.984,0.045,4.2,-1.4,-2.6,655,840,0
L,,315897,0.000,0.844,-0.048,2.8,-0.2,-1.2,654,847,0
L,,315957,0.063,1.018,-0.012,3.5,-0.9,-1.1,653,852,0
L,,316017,0.001,1.095,-0.071,4.1,-1.5,1.0,644,859,0
L,,316077,0.150,1.043,-0.050,4.3,-0.8,-0.8,612,846,0
L,,316137,0.091,1.045,-0.039,6.6,0.1,-1.0,530,826,0
L,,316197,0.188,1.005,-0.180,8.4,-1.1,-0.3,424,787,0
L,,316256,0.024,1.174,-0.159,12.2,1.1,0.1,296,851,0
L,,316318,0.239,1.186,-0.164,15.2,1.4,1.5,152,775,0
L,,316376,0.253,1.512,-0.003,18.0,-4.2,0.0,119,560,0
L,,316437,0.295,1.784,-0.018,22.5,-7.2,-3.5,144,656,0
L,,316497,0.340,2.065,-0.602,20.5,-0.8,-8.2,262,490,0
L,,316557,-0.397,0.350,0.318,-4.4,2.9,2.3,284,538,0
L,,316617,0.195,0.368,0.019,-17.7,4.4,6.5,281,558,0
L,,316677,0.113,0.715,-0.221,-29.3,6.8,4.2,300,572,0
L,,316737,0.352,1.441,-0.307,-33.1,-1.5,5.8,293,589,0
L,,316796,0.115,1.357,-0.302,-29.5,-4.1,1.0,307,611,0
L,,316857,0.146,1.457,-0.247,-25.0,3.4,3.4,302,609,0
L,,316916,0.172,1.315,-0.546,-15.2,1.9,2.7,322,628,0
L,,316977,-0.154,1.219,-0.773,3.0,9.5,-1.0,328,605,0
L,,317039,-0.039,0.679,1.369,8.4,4.0,-7.0,473,709,0
L,,317097,0.158,1.230,-0.205,15.9,-3.2,-8.8,612,770,0
L,,317157,-0.060,0.971,0.039,4.3,-9.3,-3.1,605,771,0
L,,317217,0.223,0.902,-0.001,4.4,0.5,-2.6,625,801,0
L,,317277,-0.132,1.012,0.125,3.0,-0.9,-3.2,624,809,0
L,,317336,0.020,1.030,0.066,4.2,4.2,-2.1,626,829,0
L,,317397,0.000,0.997,0.011,3.1,-0.9,-1.5,609,838,0
L,,317457,0.011,1.003,0.013,3.6,-0.6,-2.2,569,853,0
L,,317517,-0.102,1.047,0.009,3.3,-0.3,-2.3,500,865,0
L,,317577,-0.115,1.082,-0.022,5.4,2.0,-2.4,392,869,0
L,,317637,-0.064,1.082,-0.052,7.5,2.9,-3.5,349,867,0
L,,317697,-0.073,1.014,-0.114,9.3,2.7,-4.0,284,866,0
L,,317758,-0.015,1.020,-0.174,10.8,5.1,-4.1,242,833,0
L,,317817,0.145,1.312,-0.084,13.9,3.0,-4.1,180,807,0
L,,317876,-0.004,1.364,-0.118,16.3,8.6,-8.7,186,593,0
L,,317936,-0.352,1.184,-0.013,10.1,16.6,-6.8,220,452,0
L,,317997,-0.017,0.901,0.134,4.3,19.3,-8.5,316,537,0
L,,318057,0.540,0.194,0.217,-11.1,11.4,-6.9,333,544,0
L,,318117,0.540,0.620,-0.007,-24.5,15.4,-3.3,331,547,0
L,,318177,0.480,1.030,-0.208,-30.0,13.0,0.0,343,581,0
L,,318237,0.527,1.316,-0.137,-31.2,8.7,1.9,351,593,0
L,,318297,0.211,1.783,-0.300,-27.0,3.2,5.3,367,603,0
L,,318357,-0.050,1.386,-0.509,-17.1,8.2,2.2,361,593,0
L,,318418,0.121,1.141,-0.496,8.9,7.9,-2.4,404,636,0
L,,318477,0.075,1.951,-0.238,18.8,-6.5,-10.5,562,724,0
L,,318567,-0.046,0.962,-0.081,6.0,-5.4,-0.7,546,705,0
L,,318626,0.213,0.887,-0.018,4.2,-2.8,-2.1,593,767,0
L,,318717,-0.037,0.930,0.020,4.6,1.3,-1.9,599,796,0
L,,318777,-0.052,1.054,0.000,5.2,0.9,-2.3,611,846,0
L,,318836,-0.102,1.054,-0.064,5.5,1.9,-1.8,561,846,0
L,,318897,-0.022,1.022,-0.095,5.4,0.3,-2.0,521,867,0
L,,318957,0.040,1.014,-0.168,5.1,0.2,-2.4,468,870,0
L,,319017,-0.261,1.177,-0.069,6.7,3.7,-1.9,361,842,0
L,,319077,-0.033,1.016,-0.145,10.0,2.1,-3.4,255,860,0
L,,319137,0.005,1.237,-0.083,15.4,3.5,-6.0,240,829,0
L,,319199,0.141,1.627,-0.138,17.9,6.5,-7.8,177,779,0
L,,319257,-0.074,1.590,0.118,18.3,10.0,-9.9,277,566,0
L,,319317,-0.404,0.743,-0.581,7.9,11.2,-11.8,295,511,0
L,,319376,0.651,0.190,-0.041,-7.4,22.7,-4.5,300,552,0
L,,319437,0.487,0.509,-0.102,-23.5,13.3,-5.2,331,561,0
L,,319497,0.523,0.930,-0.370,-29.0,13.6,-2.0,342,582,0
L,,319557,0.668,1.364,-0.278,-29.7,9.3,5.6,356,594,0
L,,319617,0.549,1.199,-0.274,-28.7,2.9,4.4,372,617,0
L,,319677,0.052,1.432,-0.221,-20.8,3.5,5.1,376,626,0
L,,319737,0.095,1.231,-0.578,-6.0,10.9,1.4,373,612,0
L,,319797,0.121,1.144,-0.592,10.6,1.3,-1.9,363,612,0
L,,319859,0.698,2.242,-0.076,17.0,-3.4,-6.9,593,749,0
L,,319916,-0.162,1.348,-0.341,10.5,-2.1,-6.5,614,778,0
L,,319977,-0.089,1.035,0.023,6.7,-0.8,0.0,622,789,0
L,,320037,0.038,1.046,0.081,3.0,-2.3,-1.9,629,799,0
L,,320097,-0.037,0.958,0.025,5.3,4.6,-1.0,627,808,0
L,,320157,0.110,1.111,0.115,4.4,-2.9,-1.3,635,830,0
L,,320217,0.000,1.012,0.027,4.1,1.0,-1.3,618,833,0
L,,320277,0.020,0.968,-0.072,3.3,-0.9,-1.6,607,853,0
L,,320337,-0.006,0.976,-0.078,4.2,0.4,-2.0,565,856,0
L,,320397,-0.067,1.092,-0.052,5.5,1.0,-2.5,517,861,0
L,,320457,-0.081,1.021,-0.058,5.6,2.3,-2.5,370,863,0
L,,320517,-0.101,1.105,-0.114,11.5,3.9,-3.6,257,834,0
L,,320579,0.142,1.325,-0.049,14.9,4.6,-4.4,188,799,0
L,,320637,0.234,1.226,-0.130,17.6,6.6,-7.8,203,723,0
L,,320697,-0.374,1.075,0.075,13.4,10.3,-8.4,283,555,0
L,,320757,-0.075,0.842,-0.238,9.3,14.5,-9.7,341,521,0
L,,320817,0.573,0.255,-0.024,-9.8,16.1,-2.8,304,529,0
L,,320877,0.646,0.548,-0.075,-23.5,14.5,-2.4,288,490,0
L,,320967,0.618,1.085,-0.142,-32.0,7.3,3.9,351,568,0
L,,321027,0.406,1.448,-0.160,-30.7,5.2,4.9,356,567,0
L,,321087,0.356,1.557,-0.464,-23.8,0.2,7.2,313,527,0
L,,321147,-0.141,1.446,-0.973,-5.8,10.2,1.5,353,568,0
L,,321207,-0.871,1.144,-0.368,16.5,0.7,-3.9,464,697,0
L,,321267,0.396,1.179,-0.313,16.2,-3.5,-4.5,594,745,0
L,,321329,0.256,0.694,0.079,3.6,-4.8,-2.6,586,742,0
L,,321387,-0.090,0.995,0.050,4.7,-1.2,-1.7,623,787,0
L,,321477,-0.054,0.909,0.099,4.6,1.9,-2.8,628,796,0
L,,321567,0.065,1.039,0.058,3.1,0.0,-1.5,609,796,0
L,,321627,0.100,0.996,-0.016,3.9,-0.4,-1.5,587,800,0
L,,321687,0.037,1.044,-0.024,4.7,0.0,-1.5,572,816,0
L,,321777,0.002,1.063,-0.052,5.5,0.3,-1.6,502,818,0
L,,321837,0.085,1.079,-0.116,7.5,0.6,-1.3,350,778,0
L,,321897,-0.008,1.188,-0.184,10.7,2.0,-1.4,292,867,0
L,,321957,-0.031,1.203,-0.207,12.5,3.5,-1.4,211,819,0
L,,322017,0.278,1.229,-0.204,15.5,1.0,-0.5,172,819,0
L,,322079,0.219,1.195,-0.311,15.1,-0.9,-4.4,190,773,0
L,,322137,-0.224,0.859,-0.133,13.9,5.1,-3.8,255,512,0
L,,322197,-0.394,0.630,0.078,3.3,8.0,-5.6,310,524,0
L,,322257,0.208,0.335,0.067,-9.0,22.0,0.2,301,553,0
L,,322317,0.274,0.645,-0.060,-21.1,8.2,0.2,338,575,0
L,,322377,0.285,1.139,-0.157,-27.9,0.9,0.5,353,610,0
L,,322437,0.229,1.358,-0.083,-30.8,-6.7,2.7,348,584,0
L,,322497,0.162,1.473,-0.120,-28.6,-5.7,4.0,323,554,0
L,,322557,0.128,1.331,-0.544,-19.8,2.2,3.8,311,552,0
L,,322617,0.144,1.294,-0.807,-5.1,0.3,-1.0,344,586,0
L,,322677,-0.288,1.122,-0.418,14.4,-9.0,-5.8,492,711,0
L,,322737,0.182,1.141,-0.172,15.1,-4.6,-7.4,592,750,0
L,,322798,0.018,0.814,0.059,6.0,-8.3,-4.1,582,746,0
L,,322857,0.112,1.022,-0.001,5.5,-1.9,-0.9,631,803,0
L,,322917,0.001,1.079,0.030,4.3,-3.5,-3.2,628,795,0
L,,322977,0.025,0.990,-0.034,4.0,1.3,-1.6,629,802,0
L,,323037,0.000,1.021,-0.001,2.9,-1.5,-1.7,636,817,0
L,,323097,0.086,0.983,-0.062,2.7,0.0,-1.3,650,848,0
L,,323157,0.004,1.022,-0.033,2.9,-1.1,-1.7,571,761,0
L,,323217,0.027,1.032,-0.034,4.3,0.4,-2.2,545,766,0
L,,323277,0.003,1.070,-0.050,6.8,1.8,-2.2,501,779,0
L,,323337,0.028,1.124,-0.179,8.7,1.4,-1.7,390,834,0
L,,323427,0.020,1.131,-0.108,15.2,4.3,-2.5,229,822,0
L,,323487,0.340,1.399,-0.156,18.4,2.1,-3.8,194,809,0
L,,323548,-0.079,1.123,-0.034,12.8,0.6,-11.7,233,749,0
L,,323607,0.046,0.819,-0.314,11.8,13.1,-3.3,284,511,0
L,,323667,-0.095,0.186,0.378,-2.4,24.1,-2.6,312,586,0
L,,323727,0.387,0.521,-0.004,-14.5,17.9,-0.6,325,582,0
L,,323787,0.442,0.963,-0.280,-25.3,4.6,-2.3,278,524,0
L,,323847,0.255,1.174,-0.265,-28.1,-5.8,-1.4,284,510,0
L,,323907,0.100,1.251,-0.176,-26.1,-5.3,1.4,305,534,0
L,,323967,0.180,1.255,-0.122,-24.3,-3.8,1.5,327,582,0
L,,324027,0.119,1.238,-0.341,-19.1,-3.0,2.2,332,589,0
L,,324087,0.232,1.204,-0.514,-9.2,-2.8,-0.4,339,604,0
L,,324147,0.212,1.103,-0.564,7.7,-7.8,-3.9,347,617,0
L,,324208,0.555,1.003,0.305,10.3,-2.6,-1.3,553,716,0
L,,324267,0.370,0.886,0.164,12.3,-2.5,-6.5,618,778,0
L,,324327,-0.234,1.075,-0.017,5.7,-5.9,-1.9,620,792,0
L,,324387,0.232,1.004,0.154,4.1,-2.8,-3.2,625,793,0
L,,324447,-0.071,1.040,0.092,4.3,1.3,-2.3,621,797,0
L,,324507,0.019,1.011,0.082,3.1,-1.1,-1.9,622,801,0
L,,324567,0.038,1.010,0.019,2.9,-0.8,-1.2,627,821,0
L,,324627,-0.003,0.987,-0.039,3.3,-0.4,-1.2,572,771,0
L,,324687,0.019,1.004,-0.058,3.1,0.6,-1.2,590,829,0
L,,324748,-0.011,0.995,-0.052,2.8,0.9,-1.3,559,825,0
L,,324807,0.012,1.023,-0.067,3.4,1.1,-1.4,514,825,0
L,,324867,-0.006,1.036,-0.095,5.1,1.0,-1.4,448,846,0
L,,324928,-0.037,1.095,-0.116,6.2,1.2,-1.6,354,836,0
L,,324987,-0.054,1.122,-0.177,8.1,3.0,-1.5,285,851,0
L,,325047,0.062,1.216,-0.113,12.7,4.1,-1.9,230,843,0
L,,325107,0.311,1.149,-0.215,12.8,0.2,-1.1,192,806,0
L,,325167,0.363,1.065,-0.332,13.7,-3.8,-4.8,260,734,0
L,,325227,-0.144,1.265,-0.300,13.2,1.6,-4.4,313,533,0
L,,325288,-0.626,0.543,-0.233,7.2,-0.1,-6.0,321,552,0
L,,325347,0.305,0.406,0.145,-2.9,22.1,1.8,311,545,0
L,,325407,0.127,0.506,-0.035,-19.6,14.0,1.0,320,536,0
L,,325467,0.389,0.940,-0.266,-28.6,3.9,0.0,339,560,0
L,,325527,0.159,1.083,-0.052,-31.4,-8.9,0.4,383,607,0
L,,325587,0.100,1.325,-0.154,-28.6,-6.9,1.8,360,584,0
L,,325649,0.183,1.359,-0.462,-21.0,-4.3,3.2,330,556,0
L,,325708,-0.267,1.379,-0.911,-7.5,-5.5,-0.6,347,589,0
L,,325767,-0.019,1.120,-0.650,13.3,-10.8,-2.8,472,701,0
L,,325828,0.343,1.174,-0.369,17.2,-5.4,-5.5,569,721,0
L,,325887,-0.153,1.063,0.129,6.3,-8.5,-3.8,607,784,0
L,,325947,0.219,1.026,-0.038,5.5,-2.2,-3.2,614,795,0
L,,326007,0.001,1.005,0.080,4.1,-3.9,-3.1,604,790,0
L,,326067,0.045,1.049,0.039,6.1,0.2,-2.5,616,823,0
L,,326127,0.000,0.991,-0.056,5.0,1.0,-1.9,582,832,0
L,,326187,0.040,0.993,-0.105,4.5,1.0,-1.7,534,818,0
L,,326248,-0.055,1.024,-0.116,3.5,0.2,-0.6,482,801,0
L,,326309,0.041,1.000,-0.158,3.1,0.2,-1.1,493,850,0
L,,326368,-0.016,1.029,-0.144,4.0,1.4,-0.7,424,842,0
L,,326427,-0.017,1.110,-0.193,6.6,2.1,-0.3,339,819,0
L,,326487,0.002,0.901,-0.234,7.9,1.7,-0.4,312,813,0
L,,326546,0.040,1.141,-0.175,6.7,2.3,0.7,239,826,0
L,,326607,0.239,1.378,-0.143,11.2,1.1,-1.8,210,763,0
L,,326667,-0.039,1.200,-0.307,10.9,-0.3,-6.6,242,745,0
L,,326727,-0.381,0.841,-0.353,12.7,13.1,-9.1,280,587,0
L,,326788,0.171,0.288,0.251,3.5,33.2,-7.4,330,578,0
L,,326847,0.455,0.519,-0.026,-7.8,27.8,-7.8,345,588,0
L,,326907,0.724,0.984,-0.241,-20.0,14.5,-11.0,363,591,0
L,,326967,0.718,1.117,-0.289,-15.6,3.6,-3.0,386,618,0
L,,327029,0.587,1.103,-0.171,-21.6,0.0,-1.1,387,637,0
L,,327087,0.763,1.101,-0.148,-19.0,-3.0,3.6,362,619,0
L,,327147,0.373,1.249,-0.295,-16.9,-13.3,6.0,340,597,0
L,,327208,-0.076,1.222,-0.363,-8.8,-11.7,3.2,351,611,0
L,,327267,-0.081,1.240,-0.243,2.8,-6.1,-0.9,371,622,0
L,,327328,0.340,0.633,0.498,6.9,-2.4,-1.7,423,684,0
L,,327387,0.394,1.496,-0.210,7.5,-4.1,-2.6,573,738,0
L,,327447,0.206,0.878,-0.185,4.6,-4.4,-4.8,548,713,0
L,,327507,0.135,1.136,0.002,2.4,-4.2,-4.7,599,787,0
L,,327567,0.276,1.016,0.041,0.9,-3.0,-4.0,621,808,0
L,,327627,0.034,0.976,0.080,1.2,-2.2,-3.4,636,832,0
L,,327689,0.286,1.048,-0.132,2.1,-2.1,-3.7,643,837,0
L,,327748,0.066,1.005,0.005,-1.4,-2.7,-1.2,653,840,0
L,,327807,0.006,1.031,-0.063,-1.7,-2.3,-0.8,658,842,0
L,,327868,0.074,1.016,0.029,-1.4,-1.0,-0.9,662,842,0
L,,327927,0.055,1.034,0.042,0.1,-0.8,-1.1,668,846,0
L,,327987,0.066,1.026,0.047,1.3,-0.7,-0.7,665,846,0
L,,328047,0.016,0.999,-0.019,1.6,0.0,-1.0,654,840,0
L,,328107,-0.055,1.018,0.023,1.3,-0.1,-1.2,654,842,0
L,,328167,-0.033,1.006,0.004,0.9,0.9,-1.1,648,841,0
L,,328227,0.052,0.966,-0.056,1.9,0.7,-1.4,643,844,0
L,,328288,0.010,0.996,-0.045,1.4,0.5,-2.3,623,845,0
L,,328347,-0.016,1.029,-0.033,2.7,0.7,-3.2,590,833,0
L,,328409,-0.106,1.020,-0.058,3.8,2.1,-3.9,483,772,0
L,,328467,-0.171,1.079,-0.078,4.0,3.8,-4.2,382,792,0
L,,328527,-0.092,1.068,-0.166,3.4,3.2,-4.2,323,860,0
L,,328587,-0.132,1.095,-0.109,5.7,4.5,-5.4,275,826,0
L,,328646,-0.161,1.107,-0.151,6.3,8.5,-5.1,258,759,0
L,,328708,0.011,1.096,-0.234,8.4,12.4,-4.7,231,709,0
L,,328767,-0.075,1.161,-0.290,8.7,17.5,-6.5,251,540,0
L,,328828,0.040,0.829,-0.608,8.7,12.4,-4.6,329,537,0
L,,328887,0.756,0.457,0.229,6.4,31.1,0.4,359,572,0
L,,328948,0.555,0.673,-0.226,-5.3,5.9,10.1,334,505,0
L,,329007,0.242,0.858,-0.056,-13.7,-11.0,15.2,350,557,0
L,,329067,0.150,1.178,-0.028,-18.3,-13.9,18.1,374,585,0
L,,329128,0.051,1.086,-0.157,-19.2,-13.0,16.0,389,604,0
L,,329187,0.060,1.259,-0.304,-15.4,-12.2,12.9,370,586,0
L,,329248,0.131,1.266,-0.604,-9.9,-11.6,12.9,344,550,0
L,,329307,-0.041,1.372,-0.535,-4.3,-7.1,10.2,353,557,0
L,,329368,0.348,0.779,-0.452,3.2,-13.5,5.9,340,554,0
L,,329458,-0.768,0.712,0.050,-4.6,-23.1,-8.9,284,589,0
L,,329517,-0.012,1.039,0.076,-1.7,18.5,-10.3,294,707,0
L,,329578,0.874,1.323,-0.113,-3.8,1.4,-7.5,370,755,0
L,,329637,-0.030,0.821,-0.170,-4.0,-5.0,-5.3,498,796,0
L,,329698,0.241,0.922,-0.212,-5.2,-0.5,-4.6,556,806,0
L,,329757,0.225,1.096,-0.107,-4.6,2.4,-2.5,576,787,0
L,,329819,0.099,1.029,0.012,-3.4,0.7,-2.1,613,786,0
L,,329877,0.223,1.005,0.139,-1.4,4.1,-2.2,615,778,0
L,,329937,0.078,0.997,0.004,-1.6,4.2,0.0,617,778,0
L,,329998,0.181,0.978,0.070,-1.1,5.3,0.0,599,758,0
L,,330057,0.139,0.961,0.064,0.0,3.6,0.5,619,780,0
L,,330118,0.079,0.997,0.070,0.0,1.7,0.5,590,740,0
L,,330177,0.193,1.024,0.066,0.4,-0.5,0.6,612,764,0
L,,330238,0.142,0.998,0.046,0.8,-1.4,0.5,605,760,0
L,,330297,0.191,0.967,0.043,0.9,-1.7,0.4,597,751,0
L,,330357,0.181,0.968,0.045,0.9,-0.6,0.4,591,753,0
L,,330417,0.159,1.001,0.026,0.9,-0.9,0.2,586,751,0
L,,330477,0.155,0.996,0.033,0.7,-0.1,0.3,614,785,0
L,,330539,0.213,0.985,0.008,1.0,-0.4,0.0,612,788,0
L,,330597,0.227,0.981,-0.021,1.5,-1.6,-0.4,602,779,0
L,,330687,0.252,1.029,0.001,2.8,-1.9,-0.3,571,755,0
L,,330748,0.127,1.012,-0.023,3.5,-2.7,-1.3,497,721,0
L,,330807,0.050,0.949,-0.272,2.8,-2.0,-0.7,442,701,0
L,,330868,0.047,0.920,-0.120,1.2,0.9,1.1,458,748,0
L,,330927,0.159,1.005,-0.119,0.6,0.4,0.6,467,773,0
L,,330988,0.166,0.997,-0.117,1.2,-0.7,0.7,477,775,0
L,,331047,0.122,0.987,-0.121,0.7,-0.8,0.2,492,777,0
L,,331107,0.166,0.972,-0.148,0.2,-0.7,0.3,494,779,0
L,,331167,0.155,0.984,-0.117,0.1,-0.1,0.2,503,779,0
L,,331227,0.141,0.970,-0.135,0.0,0.3,0.1,515,780,0
L,,331289,0.163,0.977,-0.134,-0.1,0.4,0.1,504,785,0
L,,331347,0.136,0.977,-0.129,-0.3,0.5,0.1,492,789,0
L,,331408,0.199,0.944,-0.102,-0.7,0.0,-0.8,494,790,0
L,,331467,0.141,0.996,-0.108,0.1,-0.2,-0.3,502,789,0
L,,331557,0.150,0.975,-0.121,0.3,-0.1,-0.3,526,790,0
L,,331618,0.148,0.984,-0.142,0.2,0.0,-0.1,534,792,0
L,,331677,0.140,0.985,-0.106,0.2,-0.3,-0.1,542,791,0
L,,331738,0.159,0.976,-0.139,0.2,0.0,0.1,542,790,0
L,,331797,0.112,0.983,-0.120,0.1,-0.5,0.0,547,789,0
L,,331857,0.151,0.979,-0.129,0.1,-0.2,0.2,541,789,0
L,,331917,0.118,0.988,-0.119,0.2,-0.4,0.2,547,790,0
L,,331979,0.143,0.976,-0.128,0.1,-0.6,0.2,544,789,0
L,,332038,0.147,0.975,-0.138,0.1,-0.2,0.3,545,789,0
L,,332097,0.128,0.980,-0.130,0.1,-0.4,0.2,552,792,0
L,,332158,0.151,0.976,-0.128,0.1,-0.4,0.2,556,791,0
L,,332217,0.138,0.977,-0.131,0.0,-0.3,0.2,558,791,0
L,,332278,0.142,0.978,-0.118,0.0,-0.4,0.2,559,791,0
L,,332337,0.148,0.978,-0.138,0.0,-0.3,0.2,557,792,0
L,,332397,0.140,0.986,-0.122,0.0,-0.3,0.2,559,791,0
L,,332458,0.149,0.976,-0.132,0.0,-0.3,0.1,561,792,0
L,,332517,0.148,0.983,-0.129,0.0,-0.2,0.2,561,793,0
L,,332578,0.140,0.984,-0.124,0.0,-0.4,0.0,560,791,0
L,,332637,0.146,0.977,-0.121,0.0,-0.4,0.1,561,792,0
L,,332699,0.151,0.979,-0.127,0.0,-0.2,0.2,564,793,0
L,,332757,0.140,0.986,-0.115,0.0,-0.4,0.1,564,792,0
L,,332818,0.152,0.976,-0.125,0.0,-0.4,0.1,566,791,0
L,,332877,0.150,0.978,-0.118,0.0,-0.1,0.3,567,792,0
L,,332937,0.134,0.986,-0.121,0.0,-0.5,0.2,571,793,0
L,,332998,0.158,0.983,-0.121,0.0,-0.3,0.3,569,791,0
L,,333057,0.141,0.987,-0.119,0.0,-0.4,0.2,570,792,0
L,,333118,0.151,0.972,-0.132,0.0,-0.5,0.3,571,792,0
L,,333177,0.157,0.990,-0.118,0.0,-0.4,0.2,566,792,0
L,,333238,0.073,0.993,-0.090,0.0,-0.7,-0.2,557,779,0
L,,333297,0.126,1.025,-0.121,0.7,3.8,-0.4,539,765,0
L,,333358,0.025,0.983,-0.162,2.1,8.8,-0.3,505,710,0
L,,333419,0.328,0.955,-0.287,3.9,8.4,-0.6,453,689,0
L,,333477,0.351,0.935,-0.316,2.7,0.5,-0.4,463,702,0
L,,333538,0.263,0.954,-0.269,2.8,-2.2,0.3,459,695,0
L,,333597,0.275,0.965,-0.295,2.9,-4.1,0.7,463,701,0
L,,333658,0.196,0.907,-0.253,3.3,-4.9,0.7,471,703,0
L,,333717,0.112,0.836,-0.086,1.8,-4.0,0.2,470,706,0
L,,333778,0.408,0.649,0.245,-4.0,-10.3,0.0,437,708,0
L,,333837,-0.180,1.085,-0.076,-4.6,-6.1,-0.9,378,744,0
L,,333898,0.432,0.937,-0.254,-2.7,0.5,-1.6,350,745,0
L,,333958,-0.191,1.032,-0.143,-4.3,-5.4,-1.3,320,698,0
L,,334047,0.026,1.105,-0.079,-3.8,-2.0,-1.2,574,833,0
L,,334109,0.040,1.009,-0.061,-3.9,-1.8,-0.5,618,842,0
L,,334167,0.044,1.066,0.017,-3.4,-1.3,-0.2,635,845,0
L,,334227,0.000,0.991,0.051,-1.4,-4.2,-0.6,641,848,0
L,,334288,0.040,1.021,-0.012,-0.7,-3.5,-0.2,651,849,0
L,,334347,0.021,0.999,-0.017,-1.2,-4.1,0.3,649,838,0
L,,334408,0.002,1.024,0.013,-0.9,-3.2,0.4,648,831,0
L,,334467,0.056,0.988,0.011,-0.7,-1.9,0.2,644,823,0
L,,334528,0.026,0.997,0.006,-0.7,-1.1,0.8,643,820,0
L,,334587,0.058,1.114,0.000,-0.9,-0.3,1.1,644,817,0
L,,334648,0.147,0.985,0.001,-0.3,-0.4,0.6,644,816,0
L,,334708,0.013,1.011,0.009,0.3,0.4,0.5,651,826,0
L,,334767,0.065,0.998,0.020,0.5,0.9,0.4,652,830,0
L,,334829,0.003,0.986,0.040,0.1,1.0,0.2,656,833,0
L,,334887,0.100,1.001,0.030,-0.2,0.4,-0.1,658,833,0
L,,334948,0.046,0.987,0.027,-0.4,-0.4,0.0,661,835,0
L,,335007,0.019,0.988,0.036,-0.4,-0.3,-0.4,663,838,0
L,,335068,0.046,0.987,0.017,-0.6,-0.2,-0.5,666,837,0
L,,335127,0.011,1.003,0.036,-0.4,-0.3,-0.4,665,836,0
L,,335188,0.029,1.009,0.039,0.0,-1.7,0.1,669,842,0
L,,335248,0.057,1.005,0.026,0.4,-1.7,0.4,671,840,0
L,,335307,0.016,1.008,0.031,0.0,-0.9,0.0,669,841,0
L,,335368,0.012,1.020,0.060,0.0,0.0,0.0,670,841,0
L,,335427,0.014,0.997,0.045,0.0,0.1,0.0,673,843,0
L,,335489,0.021,1.016,0.051,0.1,0.6,-0.2,674,844,0
L,,335547,0.068,0.971,0.028,0.8,2.4,-0.3,676,846,0
L,,335608,0.033,1.000,0.018,0.5,1.6,0.1,671,848,0
L,,335667,0.006,1.023,0.038,0.4,0.8,0.2,670,853,0
L,,335757,-0.017,0.986,0.006,0.0,0.5,0.4,659,856,0
L,,335818,0.044,1.013,0.023,-0.5,-1.4,0.0,669,857,0
L,,335877,0.093,1.016,0.017,-0.2,-0.7,-0.3,679,858,0
L,,335938,-0.021,0.988,0.053,-0.1,-1.1,0.0,688,865,0
L,,335998,0.009,1.016,0.045,-0.3,-1.0,0.0,689,866,0
L,,336057,0.039,0.996,0.049,0.0,-1.2,0.0,687,865,0
L,,336118,0.032,0.875,0.024,0.0,-0.9,0.0,687,865,0
L,,336177,0.015,1.015,0.046,0.2,-0.7,-0.2,687,863,0
L,,336239,0.023,1.005,0.035,0.6,0.6,-0.1,686,863,0
L,,336297,-0.044,1.021,0.061,0.8,1.3,0.3,684,862,0
L,,336387,0.127,0.945,-0.060,0.2,0.8,0.2,673,862,0
L,,336447,-0.006,1.025,0.040,0.0,0.8,0.3,673,865,0
L,,336507,-0.008,0.999,0.041,-0.7,-1.0,0.3,670,866,0
L,,336568,-0.011,1.091,0.062,-0.2,-0.4,0.1,678,866,0
L,,336627,0.013,0.955,0.027,0.0,0.5,1.2,676,862,0
L,,336688,0.031,1.004,0.020,-0.2,-0.5,0.2,681,861,0
L,,336748,0.039,1.026,0.033,-0.2,0.0,0.4,687,864,0
L,,336807,0.024,0.995,0.034,-0.3,0.5,0.8,688,864,0
L,,336868,0.037,1.006,0.063,-0.1,1.0,1.1,689,864,0
L,,336927,0.067,0.991,0.051,-0.2,0.8,1.0,686,861,0
L,,336989,0.059,1.019,0.075,0.2,0.8,1.1,651,828,0
L,,337047,0.040,0.972,0.031,0.4,1.4,1.5,629,827,0
L,,337108,0.076,1.002,0.076,0.2,1.1,1.8,629,833,0
L,,337167,0.092,0.990,0.026,0.0,-0.3,2.0,600,792,0
L,,337228,0.126,1.022,0.051,-0.3,0.8,2.3,620,806,0
L,,337288,0.094,1.005,0.081,-0.1,0.8,3.0,662,853,0
L,,337347,0.175,1.019,0.076,-0.1,1.5,3.3,655,844,0
L,,337408,0.249,1.021,0.051,0.0,2.3,3.5,617,807,0
L,,337498,0.219,1.029,0.149,0.8,6.1,2.8,422,701,0
L,,337587,0.340,0.997,0.183,-2.7,16.1,3.9,430,656,0
L,,337648,0.333,0.752,0.136,-1.4,15.2,4.0,422,677,0
L,,337709,0.132,0.959,-0.084,0.3,14.6,3.2,427,675,0
L,,337768,0.273,1.058,-0.041,3.7,13.4,2.2,418,652,0
L,,337828,0.222,0.915,0.041,3.2,1.4,1.1,438,655,0
L,,337887,0.062,0.692,1.144,0.1,3.0,1.7,448,684,0
L,,337948,0.442,0.891,0.408,-0.5,2.1,0.3,540,740,0
L,,338007,0.266,0.946,0.206,0.6,0.0,1.1,574,761,0
L,,338068,0.284,0.991,0.177,0.0,-1.0,0.4,599,776,0
L,,338127,0.312,0.985,0.237,0.0,0.0,0.4,597,774,0
L,,338188,0.274,1.007,0.208,-0.5,-2.6,-0.1,511,745,0
L,,338248,0.246,0.993,-0.194,3.7,-7.4,-0.9,419,709,0
L,,338308,0.182,0.935,-0.087,4.5,-5.7,-0.2,431,707,0
L,,338368,0.347,1.032,-0.192,8.9,-4.8,-0.8,426,703,0
L,,338429,0.354,1.012,-0.024,10.2,-8.1,-1.1,413,706,0
L,,338488,0.462,0.986,-0.201,11.7,-11.9,1.7,392,699,0
L,,338578,0.222,1.036,-0.148,9.3,-16.3,-2.8,384,657,0
L,,338637,0.091,0.928,-0.060,10.8,-5.5,-2.4,364,653,0
L,,338698,-0.011,0.864,-0.994,7.9,0.9,-1.7,273,551,0
L,,338757,0.151,1.014,-0.081,-3.9,-0.5,1.2,291,605,0
L,,338818,0.125,0.870,-0.325,-1.4,-0.2,0.9,330,624,0
L,,338877,0.252,0.846,-0.365,-1.5,-1.2,1.4,398,648,0
L,,338938,0.210,0.959,-0.332,-1.6,-1.1,1.9,410,664,0
L,,338998,0.163,0.955,-0.274,-0.1,-0.5,1.5,382,679,0
L,,339058,0.237,0.868,-0.020,-1.6,2.9,1.3,394,680,0
L,,339118,0.173,0.869,0.044,-5.3,2.5,1.5,408,691,0
L,,339179,0.204,0.928,-0.046,-8.3,5.7,1.9,429,691,0
L,,339238,0.239,0.993,-0.076,-9.7,6.6,1.2,436,694,0
L,,339297,0.179,1.077,-0.149,-8.6,8.0,0.0,438,702,0
L,,339358,0.276,1.012,-0.282,-6.9,9.2,-0.4,447,701,0
L,,339417,0.414,0.996,-0.403,-3.5,3.2,-0.8,455,705,0
L,,339478,0.302,1.009,-0.291,-1.7,-5.1,-0.6,457,710,0
L,,339538,0.180,1.230,0.019,-2.2,-6.7,-1.4,439,712,0
L,,339598,0.453,1.041,-0.146,-1.6,-3.0,0.2,563,746,0
L,,339658,0.134,1.036,0.039,0.2,1.9,0.2,577,759,0
L,,339717,0.308,0.932,0.119,0.0,-0.8,0.2,574,759,0
L,,339778,0.292,1.004,0.074,0.4,-0.9,0.3,530,695,0
L,,339870,0.245,0.983,0.037,0.5,-0.5,0.0,509,689,0
L,,339928,0.315,0.962,0.089,0.1,0.2,0.4,470,689,0
L,,339988,0.248,0.935,0.156,0.0,0.7,0.1,453,684,0
L,,340047,0.313,1.053,-0.141,2.2,0.2,-0.3,401,711,0
L,,340107,0.256,1.013,-0.229,5.0,-1.2,-0.8,411,713,0
L,,340167,0.317,0.969,-0.043,5.2,-0.2,-0.4,416,716,0
L,,340228,0.278,1.003,-0.084,5.8,-3.4,-0.5,413,701,0
L,,340288,0.118,0.977,-0.025,7.9,-0.9,-1.4,403,665,0
L,,340348,0.234,0.889,-0.113,5.2,-1.1,-1.4,449,700,0
L,,340408,0.220,0.936,-0.193,3.9,-1.4,-0.6,440,706,0
L,,340467,0.254,0.922,-0.054,2.0,-1.6,-0.3,452,703,0
L,,340558,0.251,0.990,-0.058,1.0,-2.7,-0.1,421,700,0
L,,340620,-0.186,1.537,-1.755,3.0,-6.1,1.1,302,621,0
L,,340678,0.262,0.983,-0.225,1.9,-4.2,-0.7,339,641,0
L,,340738,0.122,0.858,-0.304,2.0,-2.7,-0.7,382,630,0
L,,340797,0.116,0.823,-0.383,1.4,-1.4,-0.2,381,613,0
L,,340858,0.053,0.821,-0.381,-0.2,-0.3,0.2,389,637,0
L,,340917,0.170,0.789,-0.390,-1.6,1.1,0.6,390,653,0
L,,340978,0.153,0.961,-0.233,-3.4,-2.4,1.6,380,660,0
L,,341038,0.182,1.097,-0.079,-1.1,-2.3,0.1,374,665,0
L,,341098,0.163,0.877,0.124,-4.4,-3.5,-0.1,391,675,0
L,,341158,0.153,0.935,0.042,-6.1,1.8,0.2,402,684,0
L,,341218,0.116,1.101,-0.230,-5.0,7.1,-1.1,395,690,0
L,,341278,0.325,1.057,-0.065,-2.8,5.7,-1.3,387,692,0
L,,341339,0.008,1.161,-0.610,3.5,0.6,-4.2,400,735,0
L,,341397,0.412,1.051,-0.411,4.3,-3.3,-2.5,410,803,0
L,,341458,-0.083,1.008,-0.082,3.7,-1.1,-1.9,358,763,0
L,,341518,0.182,0.971,-0.209,1.5,-1.4,-0.6,352,784,0
L,,341578,-0.050,1.163,0.088,-0.7,-1.2,0.1,351,752,0
L,,341638,0.289,0.737,-0.169,0.4,2.8,-0.2,358,716,0
L,,341698,0.055,0.806,-0.336,0.9,0.8,0.8,359,692,0
L,,341757,0.014,0.682,-0.443,0.3,-0.6,0.3,365,658,0
L,,341818,0.032,0.837,-0.324,0.0,-2.3,0.1,389,707,0
L,,341877,0.019,0.894,-0.335,-0.2,-1.6,0.0,384,713,0
L,,341938,0.123,1.109,-0.159,-2.3,-2.0,0.5,372,742,0
L,,342000,0.176,0.738,-0.183,-1.8,-0.4,1.4,358,772,0
L,,342058,-0.085,0.897,-0.276,-2.3,-0.9,1.2,348,659,0
L,,342118,0.065,1.262,0.184,-2.7,-0.3,0.0,362,750,0
L,,342178,0.319,1.028,-0.082,-3.5,1.4,0.0,377,802,0
L,,342238,0.102,1.145,-0.104,-4.4,-0.9,1.1,435,843,0
L,,342297,-0.007,1.098,-0.110,-5.8,-2.2,1.7,545,814,0
L,,342358,0.222,1.188,0.075,-3.1,-1.8,-0.3,632,815,0
L,,342417,0.058,1.018,-0.120,-3.3,-0.8,0.7,632,795,0
L,,342478,0.073,1.039,0.038,-4.5,0.5,1.2,636,794,0
L,,342538,0.224,0.983,0.148,-4.1,0.0,1.2,549,689,0
L,,342598,0.145,0.986,0.203,-1.8,-2.1,1.0,615,764,0
L,,342658,0.158,0.993,0.196,0.0,-1.6,0.0,628,778,0
L,,342719,0.192,0.968,0.163,0.2,-1.5,-0.2,596,739,0
L,,342778,0.116,0.969,0.203,0.8,0.3,-0.1,618,763,0
L,,342837,0.172,0.997,0.167,1.0,-0.2,0.0,634,782,0
L,,342898,0.132,1.005,0.138,1.7,0.1,-0.3,604,748,0
L,,342958,0.180,0.909,0.264,1.5,0.0,-0.6,632,782,0
L,,343018,0.150,0.970,0.052,2.6,-0.7,-0.4,645,803,0
L,,343078,0.052,1.028,0.110,2.3,-1.8,-2.1,632,792,0
L,,343138,0.225,0.987,-0.001,3.3,-0.2,-0.2,578,758,0
L,,343198,0.040,1.039,-0.039,3.5,-0.7,-0.8,590,822,0
L,,343258,0.166,1.094,0.064,3.2,0.3,-1.0,477,857,0
L,,343318,0.202,1.029,-0.017,2.2,-1.4,-0.3,348,864,0
L,,343379,0.064,1.003,-0.017,2.4,-0.7,0.0,294,862,0
L,,343438,0.091,0.966,-0.041,1.9,-0.3,-0.2,326,793,0
L,,343498,0.038,0.956,-0.051,1.8,0.0,-0.1,308,751,0
L,,343558,0.056,0.948,-0.108,1.2,0.5,0.1,304,765,0
L,,343618,0.059,0.910,-0.130,2.2,0.6,-0.7,310,801,0
L,,343678,0.080,0.971,-0.197,1.3,0.3,0.0,348,829,0
L,,343738,0.081,0.872,-0.279,1.4,-0.2,0.2,351,804,0
L,,343798,-0.003,0.839,-0.269,0.5,-0.8,0.0,365,845,0
L,,343858,0.014,0.974,-0.169,0.0,-1.5,-0.1,359,852,0
L,,343917,0.187,0.976,-0.156,-0.3,-1.8,0.2,365,854,0
L,,343978,0.079,1.010,-0.124,-0.4,-3.2,0.4,339,828,0
L,,344038,0.099,0.962,-0.144,0.0,-1.9,0.2,341,842,0
L,,344099,0.083,0.960,-0.201,-0.2,-2.9,0.3,337,861,0
L,,344158,0.082,0.936,-0.194,-0.3,-3.9,0.3,335,846,0
L,,344218,0.101,1.022,-0.124,0.0,-1.1,0.6,305,848,0
L,,344278,-0.030,1.020,-0.028,-0.8,-3.2,0.0,327,859,0
L,,344338,0.166,0.970,-0.162,-1.0,-0.4,0.3,326,863,0
L,,344398,0.154,1.223,0.005,-0.5,-2.9,-0.1,319,863,0
L,,344458,0.329,0.886,-0.271,0.2,-4.4,0.0,341,860,0
L,,344518,0.060,0.995,-0.081,-2.1,-11.3,0.9,354,863,0
L,,344578,-0.110,0.834,-0.101,-3.2,-8.9,0.9,371,859,0
L,,344638,-0.100,1.036,0.004,-2.1,1.5,-0.6,414,864,0
L,,344698,0.102,0.936,-0.149,-3.5,-0.6,-0.4,440,852,0
L,,344758,0.078,1.063,0.020,-4.0,-0.9,0.8,599,865,0
L,,344820,0.071,1.077,0.028,-1.6,0.1,0.2,618,814,0
L,,344878,0.005,0.965,0.041,-1.4,-2.4,0.4,654,845,0
L,,344938,-0.065,1.038,0.045,-1.6,-2.4,0.3,658,845,0
L,,344998,0.094,1.018,0.020,-0.9,-2.3,0.2,653,835,0
L,,345058,0.013,1.026,0.088,0.0,-2.5,0.0,660,841,0
L,,345118,0.053,1.011,0.047,0.4,-1.6,0.0,661,842,0
L,,345178,0.060,1.021,0.044,0.4,0.0,-0.2,651,831,0
L,,345238,0.021,1.007,0.027,1.1,1.3,-0.4,642,823,0
L,,345298,-0.008,1.004,0.055,1.3,2.0,0.0,589,761,0
L,,345358,0.012,0.979,0.035,0.4,0.5,0.5,665,855,0
L,,345418,0.016,1.002,0.031,0.6,1.0,0.8,671,861,0
L,,345480,0.024,1.015,0.016,0.7,1.4,1.0,595,764,0
L,,345538,0.011,0.989,0.046,0.7,1.2,1.3,638,811,0
L,,345597,0.086,1.001,-0.008,0.4,0.6,1.0,614,783,0
L,,345658,0.066,1.022,0.029,0.3,0.5,0.9,632,802,0
L,,345718,0.103,1.010,0.028,1.7,0.6,0.9,530,665,0
L,,345778,0.062,1.001,0.003,2.2,0.2,0.5,650,818,0
L,,345838,0.060,1.040,0.013,2.9,0.2,0.6,650,822,0
L,,345898,0.044,1.028,-0.027,4.0,0.0,0.9,643,819,0
L,,345958,0.073,0.935,-0.094,3.2,1.5,1.6,620,805,0
L,,346018,0.101,0.934,-0.105,1.9,1.4,1.2,594,776,0
L,,346078,0.159,0.975,-0.118,0.6,-0.5,1.1,586,765,0
L,,346138,0.135,0.992,-0.110,0.8,-0.6,0.9,605,793,0
