side,stage,device_ms,ax,ay,az,gx,gy,gz,toe,heel,phase,L_toe,L_heel,R_toe,R_heel
R,,7189880.0,-0.157,1.709,-0.191,0.4,9.9,-16.6,247,550,0,,,,
R,,7189890.0,-0.121,1.951,0.346,-0.2,10.8,-18.6,326,559,0,,,,
R,,7189900.0,-0.648,1.113,0.487,-5.3,13.9,-23.4,405,609,0,,,,
R,,7189910.0,-0.288,1.133,-0.318,-12.7,11.3,-22.7,481,649,0,,,,
R,,7189920.0,0.905,0.734,-1.01,-6.2,2.0,-17.1,536,682,0,,,,
R,,7189930.0,1.249,1.399,0.198,-2.6,0.6,-21.4,565,701,0,,,,
R,,7189940.0,1.128,1.58,0.566,-10.9,6.7,-23.2,583,718,0,,,,
R,,7189950.0,0.2,0.86,0.332,-10.2,14.1,-21.9,597,729,0,,,,
R,,7189960.0,0.023,1.346,-0.025,-8.0,12.1,-20.8,612,739,0,,,,
R,,7189970.0,0.043,0.921,-0.037,-6.3,6.9,-18.5,621,747,0,,,,
R,,7189980.0,0.16,0.95,-0.055,-3.3,5.7,-18.1,627,754,0,,,,
R,,7189990.0,-0.013,0.738,0.049,-3.7,8.3,-29.7,631,760,0,,,,
R,,7190000.0,-0.413,1.028,-0.186,1.4,4.2,-11.2,637,763,0,,,,
R,,7190010.0,-0.69,0.93,-0.196,-0.7,5.6,-5.9,646,769,0,,,,
R,,7190020.0,0.12,1.22,-0.212,2.3,3.4,-5.8,649,775,0,,,,
R,,7190030.0,-0.107,1.115,-0.287,-0.4,5.1,-3.5,652,780,0,,,,
R,,7190040.0,-0.027,1.218,-0.355,-2.5,7.5,-8.9,658,785,0,,,,
R,,7190050.0,-0.282,0.906,-0.556,-4.3,4.1,-7.3,661,789,0,,,,
R,,7190060.0,-0.262,0.99,-0.339,-4.4,0.6,-6.9,665,793,0,,,,
R,,7190070.0,-0.127,1.016,-0.315,-6.2,-1.7,-6.0,668,798,0,,,,
R,,7190080.0,0.121,0.951,-0.128,-6.1,-3.1,-6.1,671,801,0,,,,
R,,7190090.0,0.186,0.948,0.014,-3.8,-1.3,-5.6,675,805,0,,,,
R,,7190100.0,0.214,0.965,-0.056,-2.3,0.1,-5.4,680,811,0,,,,
R,,7190110.0,0.175,0.976,-0.199,-1.3,0.6,-5.8,683,813,0,,,,
R,,7190120.0,0.184,1.007,-0.177,-0.7,1.2,-5.9,682,813,0,,,,
R,,7190130.0,0.142,1.007,-0.242,-1.0,1.5,-5.6,684,816,0,,,,
R,,7190140.0,0.108,0.924,-0.229,-0.5,2.3,-5.9,687,819,0,,,,
R,,7190150.0,-0.06,0.967,-0.307,-1.6,1.4,-5.2,687,821,0,,,,
R,,7190160.0,-0.095,0.982,-0.373,-1.8,-0.4,-4.4,689,821,0,,,,
R,,7190170.0,-0.02,0.935,-0.35,-2.5,-2.1,-3.9,690,823,0,,,,
R,,7190180.0,-0.01,0.947,-0.256,-2.7,-3.0,-3.5,689,823,0,,,,
R,,7190190.0,0.013,0.946,-0.189,-2.5,-3.1,-3.2,690,826,0,,,,
R,,7190200.0,0.236,2.087,-0.779,-1.8,-7.5,-11.7,691,828,0,,,,
R,,7190210.0,-0.012,0.526,0.649,-6.5,-4.5,-1.9,693,828,0,,,,
R,,7190220.0,0.404,0.45,-0.051,-1.3,-3.9,1.1,691,829,0,,,,
R,,7190230.0,0.02,1.105,-0.243,0.0,-0.2,-1.6,694,832,0,,,,
R,,7190240.0,-0.049,1.174,-0.322,0.1,-0.3,-1.7,694,832,0,,,,
R,,7190250.0,0.212,1.016,-0.146,-1.7,-1.0,-2.9,694,832,0,,,,
R,,7190260.0,-0.021,0.914,-0.288,-1.1,0.2,-3.3,695,835,0,,,,
R,,7190270.0,-0.27,0.989,-0.311,-0.7,-1.0,-2.9,693,835,0,,,,
R,,7190280.0,0.012,0.982,-0.171,-2.3,-1.4,-2.4,695,837,0,,,,
R,,7190290.0,0.161,1.008,-0.088,-2.8,-0.7,-2.7,695,839,0,,,,
R,,7190300.0,-0.315,0.953,-0.269,-2.4,-2.0,-3.3,699,843,0,,,,
R,,7190310.0,-0.106,1.051,-0.25,-2.8,-2.6,-4.0,697,849,0,,,,
R,,7190320.0,0.065,0.993,-0.186,-3.8,-3.1,-2.8,697,846,0,,,,
R,,7190330.0,-0.083,1.117,-0.07,-3.2,-2.8,-2.8,694,847,0,,,,
R,,7190340.0,-0.141,0.998,-0.174,-1.6,-3.1,-2.5,692,850,0,,,,
R,,7190350.0,0.021,1.04,-0.162,-2.0,-3.9,-2.8,693,853,0,,,,
R,,7190360.0,0.058,1.076,-0.242,-3.3,-3.9,-3.3,687,854,0,,,,
R,,7190370.0,0.03,1.033,-0.199,-3.6,-3.9,-4.0,679,856,0,,,,
R,,7190380.0,0.037,1.001,-0.233,-3.8,-3.5,-3.9,671,857,0,,,,
R,,7190390.0,-0.002,1.033,-0.269,-4.0,-3.2,-4.5,661,860,0,,,,
R,,7190400.0,-0.044,1.05,-0.264,-4.7,-3.6,-4.9,650,862,0,,,,
R,,7190410.0,-0.001,1.046,-0.244,-5.6,-4.2,-5.1,636,866,0,,,,
R,,7190420.0,0.009,1.056,-0.256,-6.2,-4.5,-5.9,622,868,0,,,,
R,,7190430.0,0.024,1.055,-0.231,-6.9,-4.5,-6.6,572,872,0,,,,
R,,7190440.0,0.063,1.057,-0.221,-6.9,-3.6,-7.7,534,873,0,,,,
R,,7190450.0,-0.009,1.162,-0.208,-6.9,-3.5,-7.5,513,876,0,,,,
R,,7190460.0,0.006,1.285,-0.087,-8.1,-4.0,-8.1,503,879,0,,,,
R,,7190470.0,0.058,1.185,-0.123,-8.8,-3.8,-8.7,453,882,0,,,,
R,,7190480.0,0.019,1.208,-0.105,-9.1,-4.0,-9.2,403,882,0,,,,
R,,7190490.0,0.129,1.195,-0.019,-8.2,-3.8,-10.0,326,885,0,,,,
R,,7190500.0,-0.014,1.276,-0.064,-8.7,-3.2,-9.9,280,885,0,,,,
R,,7190510.0,0.151,1.191,-0.126,-7.5,-2.5,-11.5,262,886,0,,,,
R,,7190520.0,-0.336,1.345,-0.264,-8.3,-2.4,-10.6,220,887,0,,,,
R,,7190530.0,-0.193,1.433,-0.21,-11.6,-5.3,-10.9,191,889,0,,,,
R,,7190540.0,-0.089,1.371,-0.217,-13.9,-6.8,-11.8,175,885,0,,,,
R,,7190550.0,0.01,1.373,-0.183,-14.8,-7.8,-12.5,147,884,0,,,,
R,,7190560.0,0.03,1.379,-0.184,-14.5,-7.8,-12.7,118,883,0,,,,
R,,7190570.0,0.082,1.494,-0.193,-15.5,-8.4,-13.8,133,876,0,,,,
R,,7190580.0,0.217,1.516,-0.232,-15.5,-7.8,-14.1,142,869,0,,,,
R,,7190590.0,0.422,1.504,-0.199,-16.2,-6.8,-15.3,150,863,0,,,,
R,,7190600.0,0.235,1.588,-0.411,-14.4,-5.7,-17.7,137,859,0,,,,
R,,7190610.0,0.165,1.692,-0.376,-14.0,-6.0,-16.9,142,858,0,,,,
R,,7190620.0,0.234,1.792,-0.467,-14.3,-7.1,-17.6,137,852,0,,,,
R,,7190630.0,0.19,1.783,-0.335,-13.8,-8.0,-18.7,121,850,0,,,,
R,,7190640.0,0.172,1.715,-0.615,-14.0,-7.8,-20.6,121,843,0,,,,
R,,7190650.0,0.093,1.464,-0.813,-14.1,-10.9,-20.8,123,828,0,,,,
R,,7190660.0,0.134,1.59,-0.711,-17.8,-12.8,-19.1,115,791,0,,,,
R,,7190670.0,0.27,1.583,-0.589,-16.8,-12.5,-11.0,109,721,0,,,,
R,,7190680.0,0.419,0.942,-0.777,-12.9,-11.3,-10.5,97,617,0,,,,
R,,7190690.0,0.119,0.362,-0.49,-14.1,-5.3,-9.5,164,501,0,,,,
R,,7190700.0,-0.047,1.319,-0.475,-12.5,-6.5,-13.1,264,487,0,,,,
R,,7190710.0,-1.02,-1.038,0.29,-13.0,-8.8,-7.3,263,487,0,,,,
R,,7190720.0,-0.727,0.69,0.544,-2.6,-6.2,-5.6,275,513,0,,,,
R,,7190730.0,0.234,0.939,-0.043,-3.0,-1.3,-6.1,256,505,0,,,,
R,,7190740.0,0.373,0.456,-0.525,-3.8,1.6,-1.4,246,540,0,,,,
R,,7190750.0,0.469,0.325,-0.562,-1.5,3.9,7.7,262,556,0,,,,
R,,7190760.0,0.267,0.285,-0.073,1.6,2.9,5.3,277,547,0,,,,
R,,7190770.0,0.158,0.407,0.029,1.8,2.4,7.7,285,551,0,,,,
R,,7190780.0,0.158,0.4,0.197,1.5,3.2,10.3,284,540,0,,,,
R,,7190790.0,0.447,0.338,0.167,2.7,8.0,11.9,297,534,0,,,,
R,,7190800.0,0.163,0.244,0.114,4.2,9.0,15.5,308,550,0,,,,
R,,7190810.0,0.087,0.222,-0.109,7.2,10.2,17.8,284,561,0,,,,
R,,7190820.0,0.062,0.224,-0.13,10.1,10.4,19.1,286,560,0,,,,
R,,7190830.0,0.101,0.336,-0.034,12.6,11.2,20.7,296,554,0,,,,
R,,7190840.0,0.043,0.516,0.05,14.2,12.5,22.3,282,545,0,,,,
R,,7190850.0,-0.012,0.549,-0.048,15.1,14.4,23.8,294,539,0,,,,
R,,7190860.0,-0.033,0.638,-0.076,16.7,13.7,25.5,315,540,0,,,,
R,,7190870.0,-0.047,0.637,-0.134,18.7,13.2,26.2,307,544,0,,,,
R,,7190880.0,-0.013,0.733,-0.147,20.8,11.5,27.0,305,537,0,,,,
R,,7190890.0,-0.04,0.799,-0.142,23.7,11.2,26.7,303,542,0,,,,
R,,7190900.0,0.021,1.045,-0.139,23.3,10.7,27.8,312,547,0,,,,
R,,7190910.0,0.007,1.049,-0.152,22.8,10.1,27.9,309,547,0,,,,
R,,7190920.0,0.051,1.28,-0.149,21.5,10.3,29.0,309,556,0,,,,
R,,7190930.0,0.066,1.229,-0.215,22.7,10.3,30.1,310,561,0,,,,
R,,7190940.0,0.014,1.221,-0.212,22.7,10.1,28.7,307,560,0,,,,
R,,7190950.0,-0.048,1.443,-0.23,21.4,9.6,29.7,311,561,0,,,,
R,,7190960.0,-0.083,1.617,-0.248,21.6,8.8,30.0,307,560,0,,,,
R,,7190970.0,-0.108,1.381,-0.321,23.4,7.6,26.6,304,557,0,,,,
R,,7190980.0,-0.207,1.552,-0.331,23.4,6.6,30.1,294,552,0,,,,
R,,7190990.0,-0.25,1.816,-0.257,22.2,4.9,30.7,290,550,0,,,,
R,,7191000.0,-0.221,1.939,-0.211,19.3,4.2,30.5,282,555,0,,,,
R,,7191010.0,-0.233,1.427,0.142,24.8,2.1,25.3,272,555,0,,,,
R,,7191020.0,-0.243,1.844,-0.039,22.5,3.7,28.0,264,556,0,,,,
R,,7191030.0,-0.112,1.842,-0.015,24.1,4.6,26.3,255,557,0,,,,
R,,7191040.0,-0.48,1.957,-0.104,21.3,6.7,25.7,253,562,0,,,,
R,,7191050.0,-0.469,1.829,-0.045,18.8,6.7,23.3,248,559,0,,,,
R,,7191060.0,-0.643,1.679,-0.011,16.9,6.4,21.3,245,561,0,,,,
R,,7191070.0,-0.882,1.647,0.047,16.8,4.8,18.5,249,559,0,,,,
R,,7191080.0,-1.182,1.747,0.242,15.4,0.9,14.9,245,549,0,,,,
R,,7191090.0,-1.136,1.849,0.649,11.0,-3.9,10.7,248,558,0,,,,
R,,7191100.0,-0.849,1.805,0.909,6.7,-3.4,6.7,249,562,0,,,,
R,,7191110.0,-0.251,1.714,0.618,0.5,1.8,-1.6,264,570,0,,,,
R,,7191120.0,-0.378,1.525,0.332,-1.7,7.5,-7.6,275,570,0,,,,
R,,7191130.0,-0.399,1.453,0.02,-3.9,11.9,-12.2,285,540,0,,,,
R,,7191180.0,0.643,0.747,-0.933,-5.1,-1.0,-18.0,562,697,0,,,,
R,,7191241.0,-0.463,0.835,0.007,-1.9,0.8,-15.5,642,767,0,,,,
R,,7191302.0,-0.055,1.092,-0.207,-0.4,3.8,-6.5,667,792,0,,,,
R,,7191361.0,0.123,1.017,-0.23,-1.5,-1.8,-3.8,679,808,0,,,,
R,,7191420.0,0.005,0.93,-0.388,-1.7,-1.8,-4.0,678,812,0,,,,
R,,7191480.0,0.045,1.1,-0.122,-3.2,-3.0,-3.0,687,829,0,,,,
R,,7191541.0,0.04,0.944,-0.11,-4.1,-1.9,-3.8,692,843,0,,,,
R,,7191600.0,0.041,1.011,-0.093,-5.1,-2.3,-3.6,686,865,0,,,,
R,,7191661.0,-0.018,1.107,-0.169,-6.8,-2.2,-5.8,619,875,0,,,,
R,,7191720.0,-0.007,1.259,0.077,-11.2,-2.6,-7.6,484,884,0,,,,
R,,7191781.0,0.034,1.329,-0.073,-14.0,-3.3,-9.3,197,882,0,,,,
R,,7191840.0,0.386,1.528,-0.418,-16.3,-1.4,-13.1,132,870,0,,,,
R,,7191901.0,0.62,1.947,-0.911,-16.5,0.2,-15.8,135,814,0,,,,
R,,7191960.0,-0.605,0.653,-0.169,-9.2,11.3,-1.5,185,514,0,,,,
R,,7192052.0,-0.192,0.211,-0.328,2.1,15.2,20.2,245,505,0,,,,
R,,7192111.0,-0.077,0.632,-0.414,12.0,18.5,28.6,267,506,0,,,,
R,,7192170.0,-0.363,1.288,-0.625,22.4,25.6,29.3,275,507,0,,,,
R,,7192231.0,-0.711,1.51,-0.919,23.7,17.6,27.6,277,530,0,,,,
R,,7192291.0,-0.895,1.729,-0.184,21.3,-4.1,21.3,247,537,0,,,,
R,,7192350.0,-1.019,1.721,0.86,4.5,-0.5,-1.3,232,562,0,,,,
R,,7192411.0,1.638,1.098,-0.366,-0.5,3.7,-18.5,549,681,0,,,,
R,,7192470.0,0.29,0.976,0.146,-3.3,2.7,-12.0,634,758,0,,,,
R,,7192531.0,0.016,0.928,-0.381,-0.7,1.8,-6.3,661,786,0,,,,
R,,7192590.0,0.246,0.986,-0.248,-0.7,2.5,-6.4,684,814,0,,,,
R,,7192651.0,0.131,0.982,-0.287,-3.6,-0.8,-4.2,694,829,0,,,,
R,,7192710.0,0.114,0.904,-0.182,-3.5,-1.4,-3.0,703,846,0,,,,
R,,7192772.0,0.119,0.977,-0.093,-3.4,-2.0,-2.3,700,864,0,,,,
R,,7192831.0,0.072,0.99,-0.232,-3.3,-1.0,-2.6,684,871,0,,,,
R,,7192890.0,0.188,1.012,-0.001,-4.6,-0.9,-4.4,617,877,0,,,,
R,,7192951.0,-0.014,1.142,-0.119,-8.7,-2.5,-5.3,507,885,0,,,,
R,,7193010.0,0.075,1.26,-0.08,-12.0,-0.7,-8.2,321,885,0,,,,
R,,7193071.0,0.129,1.379,-0.179,-14.1,-1.5,-10.0,116,873,0,,,,
R,,7193130.0,0.193,1.556,-0.06,-15.9,-4.4,-14.6,135,859,0,,,,
R,,7193191.0,-0.171,0.285,-0.169,-14.7,0.9,-2.0,186,485,0,,,,
R,,7193250.0,0.191,0.332,-0.346,-5.1,9.5,4.6,237,532,0,,,,
R,,7193310.0,-0.051,0.258,-0.138,6.6,11.6,14.7,250,514,0,,,,
R,,7193371.0,-0.048,0.854,-0.169,12.8,17.5,22.2,269,504,0,,,,
R,,7193432.0,-0.112,1.192,-0.277,15.7,25.0,23.7,280,517,0,,,,
R,,7193491.0,-0.318,1.43,-0.647,18.9,30.6,22.1,274,527,0,,,,
R,,7193550.0,-0.633,1.495,-0.727,18.7,16.4,21.2,228,535,0,,,,
R,,7193611.0,-0.726,1.477,-0.167,15.8,-12.6,17.4,233,547,0,,,,
R,,7193670.0,-0.386,1.462,0.437,3.2,6.5,-4.8,240,591,0,,,,
R,,7193731.0,0.207,0.617,-0.373,-5.8,15.5,-22.0,473,631,0,,,,
R,,7193791.0,0.51,1.476,0.183,-5.7,6.2,-12.2,623,748,0,,,,
R,,7193850.0,-0.026,0.989,-0.016,1.2,-2.0,-5.2,656,778,0,,,,
R,,7193911.0,0.108,0.981,-0.188,-3.0,-2.1,-3.6,673,801,0,,,,
R,,7193970.0,0.141,0.99,-0.226,-0.7,1.5,-5.0,686,816,0,,,,
R,,7194031.0,-0.243,1.426,-0.748,-8.2,-8.2,-7.4,692,826,0,,,,
R,,7194090.0,-0.007,0.948,-0.256,-1.4,-0.8,-2.7,698,844,0,,,,
R,,7194152.0,-0.321,0.931,-0.334,-2.5,-2.5,-2.4,685,856,0,,,,
R,,7194210.0,0.0,0.998,-0.178,-3.8,-2.4,-4.8,633,870,0,,,,
R,,7194271.0,0.108,1.108,-0.208,-6.1,-2.5,-6.4,545,882,0,,,,
R,,7194331.0,0.024,1.188,-0.027,-8.4,-2.3,-8.7,314,892,0,,,,
R,,7194390.0,-0.073,1.439,-0.217,-12.0,-1.5,-11.4,144,887,0,,,,
R,,7194450.0,0.161,1.608,-0.364,-15.6,-5.2,-17.3,147,855,0,,,,
R,,7194510.0,0.156,1.166,-0.905,-16.0,-8.8,-16.7,124,737,0,,,,
R,,7194571.0,0.165,0.652,-0.106,-6.2,-0.8,1.1,233,536,0,,,,
R,,7194630.0,0.155,0.297,-0.034,1.7,10.7,13.9,255,543,0,,,,
R,,7194691.0,0.086,0.591,-0.062,15.0,18.6,24.5,281,534,0,,,,
R,,7194750.0,-0.006,1.213,-0.315,21.6,15.4,29.9,293,536,0,,,,
R,,7194810.0,-0.384,1.687,-0.488,23.3,10.2,30.1,280,530,0,,,,
R,,7194873.0,-0.996,2.05,-0.381,16.6,1.1,28.0,236,554,0,,,,
R,,7194930.0,-0.71,1.693,0.873,5.9,-7.6,6.8,242,578,0,,,,
R,,7194991.0,-0.063,1.397,-0.455,-2.8,8.7,-20.3,343,592,0,,,,
R,,7195050.0,0.384,0.865,0.024,-10.8,7.2,-19.3,620,747,0,,,,
R,,7195111.0,-0.092,1.146,-0.217,0.1,0.3,-7.7,655,779,0,,,,
R,,7195170.0,-0.132,0.947,-0.359,-4.5,0.0,-4.1,674,801,0,,,,
R,,7195231.0,0.121,1.013,-0.214,-0.9,0.0,-4.0,686,813,0,,,,
R,,7195291.0,0.031,0.936,-0.204,-2.0,-2.6,-2.2,693,823,0,,,,
R,,7195350.0,0.129,0.958,-0.28,-2.3,-1.9,-4.1,692,826,0,,,,
R,,7195411.0,-0.093,1.011,-0.35,-2.5,-1.6,-2.8,691,830,0,,,,
R,,7195470.0,0.192,0.977,-0.246,-5.1,-2.5,-4.8,692,845,0,,,,
R,,7195532.0,-0.018,1.01,-0.184,-9.1,-6.3,-5.6,641,871,0,,,,
R,,7195590.0,0.023,1.275,-0.001,-12.0,-4.6,-8.3,499,883,0,,,,
R,,7195651.0,0.094,1.4,-0.158,-15.3,-4.2,-12.0,162,887,0,,,,
R,,7195710.0,0.345,1.835,-0.323,-16.7,-3.0,-18.4,156,855,0,,,,
R,,7195771.0,0.179,1.203,-0.393,-16.7,0.7,-16.3,100,612,0,,,,
R,,7195831.0,0.688,0.522,-0.616,-7.0,5.7,2.7,210,536,0,,,,
R,,7195920.0,0.041,0.403,-0.18,9.2,15.9,23.1,276,531,0,,,,
R,,7195981.0,-0.016,0.97,-0.296,17.3,21.3,30.0,262,527,0,,,,
R,,7196041.0,-0.379,1.369,-0.685,19.7,21.2,30.5,273,520,0,,,,
R,,7196100.0,-0.738,1.723,-0.613,22.6,4.1,29.8,273,537,0,,,,
R,,7196161.0,-0.729,1.769,0.032,17.7,-13.3,18.9,266,568,0,,,,
R,,7196220.0,-0.352,1.478,0.362,-3.3,2.2,-10.8,271,576,0,,,,
R,,7196282.0,0.903,1.761,-0.055,-6.3,10.7,-23.6,590,726,0,,,,
R,,7196340.0,-0.487,0.94,-0.21,-2.6,1.8,-15.8,652,775,0,,,,
R,,7196401.0,0.068,0.886,-0.115,-5.9,0.4,-7.1,679,805,0,,,,
R,,7196460.0,0.155,1.058,-0.138,-3.4,0.2,-4.6,694,829,0,,,,
R,,7196521.0,0.028,0.994,-0.248,-4.3,-3.2,-3.9,687,847,0,,,,
R,,7196581.0,-0.305,1.429,-0.495,3.3,-5.5,-8.9,639,865,0,,,,
R,,7196640.0,-0.042,0.907,-0.042,-4.2,-1.2,-3.6,596,874,0,,,,
R,,7196701.0,-0.351,1.082,-0.217,-4.0,-1.0,-2.5,572,876,0,,,,
R,,7196760.0,0.06,1.06,-0.11,-5.1,-2.4,-3.5,521,882,0,,,,
R,,7196821.0,0.092,1.219,-0.229,-6.2,0.8,-7.1,323,891,0,,,,
R,,7196880.0,0.164,1.367,-0.074,-15.8,-4.0,-9.1,150,887,0,,,,
R,,7196941.0,0.277,1.708,-0.348,-17.4,-0.8,-16.3,139,863,0,,,,
R,,7197002.0,0.277,1.737,-1.004,-20.4,-1.3,-17.6,126,743,0,,,,
R,,7197061.0,0.494,0.244,-0.214,-9.6,10.5,-0.4,189,495,0,,,,
R,,7197121.0,0.115,0.333,-0.177,3.4,11.4,14.1,226,488,0,,,,
R,,7197180.0,-0.045,0.661,-0.179,14.7,21.0,25.7,246,465,0,,,,
R,,7197241.0,-0.08,1.138,-0.494,19.6,26.4,30.3,230,470,0,,,,
R,,7197300.0,-0.904,1.358,-0.837,23.6,19.6,30.5,241,514,0,,,,
R,,7197361.0,-0.989,1.835,-0.426,23.6,0.2,23.8,214,511,0,,,,
R,,7197420.0,-0.716,1.793,0.874,9.1,-1.1,3.5,227,558,0,,,,
R,,7197481.0,0.466,1.715,0.113,-2.4,12.5,-18.8,402,599,0,,,,
R,,7197541.0,0.315,1.26,-0.068,-4.9,14.2,-18.9,626,754,0,,,,
R,,7197601.0,-0.153,1.261,-0.181,-0.9,-0.7,-7.4,657,782,0,,,,
R,,7197663.0,0.072,0.911,-0.161,-4.7,-0.4,-5.4,681,807,0,,,,
R,,7197720.0,0.114,1.004,-0.25,-1.9,0.1,-5.4,696,828,0,,,,
R,,7197781.0,0.005,0.962,-0.146,-2.7,-2.1,-3.4,697,837,0,,,,
R,,7197871.0,-0.129,1.037,-0.184,-2.6,-1.2,-1.8,690,854,0,,,,
R,,7197930.0,0.091,0.978,-0.245,-3.2,-1.4,-3.5,676,866,0,,,,
R,,7197991.0,0.099,1.014,-0.162,-6.3,-3.3,-4.5,613,876,0,,,,
R,,7198050.0,0.147,1.19,-0.032,-9.6,-1.8,-7.2,517,885,0,,,,
R,,7198111.0,-0.208,1.533,-0.286,-11.4,-0.4,-9.3,194,891,0,,,,
R,,7198170.0,0.295,1.482,-0.139,-17.7,-2.7,-12.5,147,876,0,,,,
R,,7198231.0,0.075,1.528,-0.741,-14.9,-4.8,-22.4,89,851,0,,,,
R,,7198291.0,-0.189,-2.018,0.401,-24.1,1.1,4.9,214,477,0,,,,
R,,7198351.0,0.142,0.24,-0.219,0.4,13.0,11.1,244,526,0,,,,
R,,7198413.0,-0.049,0.456,-0.188,10.2,21.2,24.3,271,507,0,,,,
R,,7198470.0,-0.096,1.066,-0.518,15.4,24.4,31.2,272,502,0,,,,
R,,7198561.0,-0.791,1.484,-0.683,21.1,9.4,26.5,235,481,0,,,,
R,,7198621.0,-0.659,1.61,-0.226,24.0,-1.0,18.3,237,498,0,,,,
R,,7198681.0,-0.512,1.497,0.198,14.1,5.3,6.9,227,554,0,,,,
R,,7198741.0,-0.228,1.62,0.123,-1.6,3.4,-12.2,308,554,0,,,,
R,,7198800.0,0.8,0.996,0.785,-15.2,8.9,-18.8,611,740,0,,,,
R,,7198860.0,-0.245,1.191,-0.307,2.0,6.0,-10.7,654,780,0,,,,
R,,7198951.0,0.099,0.988,-0.129,-2.0,3.0,-5.6,685,817,0,,,,
R,,7199010.0,0.012,0.935,-0.32,-1.6,-0.7,-3.7,691,829,0,,,,
R,,7199071.0,0.046,0.977,-0.176,-1.5,-2.4,-3.2,695,836,0,,,,
R,,7199163.0,-0.041,1.036,-0.233,-2.1,-3.3,-2.6,694,846,0,,,,
R,,7199220.0,0.047,1.007,-0.171,-4.3,-4.5,-2.5,669,860,0,,,,
R,,7199281.0,0.191,1.005,-0.06,-4.0,-2.2,-5.6,608,868,0,,,,
R,,7199340.0,-0.077,1.158,-0.192,-8.1,-2.8,-7.2,475,883,0,,,,
R,,7199401.0,-0.052,1.236,-0.218,-12.3,-4.3,-9.2,207,889,0,,,,
R,,7199460.0,0.467,1.446,0.026,-16.7,-5.4,-12.8,92,876,0,,,,
R,,7199521.0,0.196,1.575,-0.671,-16.1,-2.2,-20.3,80,843,0,,,,
R,,7199581.0,0.428,2.974,-0.691,-2.2,0.6,-35.2,222,492,0,,,,
R,,7199641.0,0.086,0.391,-0.63,-3.8,15.8,10.2,226,553,0,,,,
R,,7199701.0,-0.208,0.412,-0.268,4.9,7.4,23.4,214,444,0,,,,
R,,7199760.0,0.01,0.793,-0.392,12.3,18.8,28.9,249,431,0,,,,
R,,7199821.0,-0.407,1.422,-0.822,20.2,25.5,28.4,274,458,0,,,,
R,,7199882.0,-0.827,1.614,-0.807,21.6,8.7,27.1,289,490,0,,,,
R,,7199941.0,-0.711,1.685,-0.312,21.1,-21.2,21.9,265,502,0,,,,
R,,7200000.0,-0.567,1.872,0.855,4.6,-0.3,-1.4,282,558,0,,,,
R,,7200061.0,0.543,0.429,-0.578,-13.5,10.6,-19.2,498,644,0,,,,
R,,7200121.0,-0.253,1.106,0.046,-6.5,12.5,-19.1,629,757,0,,,,
R,,7200181.0,-0.675,1.137,0.142,-1.0,-1.9,-0.3,658,785,0,,,,
R,,7200241.0,0.161,0.921,-0.063,-3.0,1.6,-6.1,685,816,0,,,,
R,,7200300.0,-0.079,0.987,-0.291,-2.4,-0.6,-4.3,700,836,0,,,,
R,,7200361.0,0.024,0.996,-0.222,-2.5,-3.2,-3.2,697,850,0,,,,
R,,7200420.0,-0.08,0.983,-0.134,0.0,-2.0,-1.3,672,866,0,,,,
R,,7200510.0,0.047,0.924,-0.12,-3.6,-1.9,-2.6,603,881,0,,,,
R,,7200571.0,-0.025,1.018,-0.125,-3.3,-1.6,-2.8,537,883,0,,,,
R,,7200632.0,-0.003,1.176,-0.176,-5.8,-2.4,-5.6,429,889,0,,,,
R,,7200691.0,0.147,1.156,-0.048,-10.4,-1.3,-9.0,219,894,0,,,,
R,,7200750.0,0.105,1.59,-0.146,-15.1,-3.5,-11.4,85,886,0,,,,
R,,7200811.0,-0.076,1.498,-0.462,-16.0,-4.6,-20.8,89,856,0,,,,
R,,7200871.0,0.22,0.611,-0.594,-12.1,-12.2,-7.4,149,591,0,,,,
R,,7200931.0,0.569,0.431,-0.323,-3.1,10.5,6.6,256,507,0,,,,
R,,7200991.0,0.045,0.276,-0.149,8.2,13.9,20.6,266,477,0,,,,
R,,7201050.0,-0.058,0.903,-0.328,18.0,19.8,26.6,263,468,0,,,,
R,,7201111.0,-0.283,1.338,-0.515,19.9,18.4,28.3,292,488,0,,,,
R,,7201170.0,-0.513,1.746,-0.495,22.7,6.7,26.9,278,507,0,,,,
R,,7201231.0,-0.644,1.726,-0.217,20.8,-8.2,21.2,264,513,0,,,,
R,,7201292.0,-0.306,1.652,0.803,3.4,-2.9,1.0,273,545,0,,,,
R,,7201351.0,-0.03,0.584,-0.035,-9.6,6.7,-21.1,451,611,0,,,,
R,,7201411.0,0.412,1.467,0.01,-9.1,7.1,-17.7,618,741,0,,,,
R,,7201471.0,-0.285,1.104,-0.019,-2.1,0.2,-2.6,651,774,0,,,,
R,,7201531.0,-0.125,0.937,-0.356,-3.7,-0.1,-2.7,676,803,0,,,,
R,,7201590.0,0.163,0.982,-0.264,-0.3,-0.3,-4.1,690,820,0,,,,
R,,7201651.0,0.058,0.919,-0.301,-3.8,-3.5,-2.4,695,825,0,,,,
R,,7201710.0,-0.37,1.282,-0.539,-1.4,1.8,-4.2,699,834,0,,,,
R,,7201771.0,0.032,0.987,-0.17,-3.7,-1.9,-2.7,705,847,0,,,,
R,,7201831.0,0.244,0.999,-0.118,-1.9,-0.9,-3.7,708,860,0,,,,
R,,7201891.0,0.033,1.067,-0.253,-5.2,-2.5,-2.8,699,867,0,,,,
R,,7201951.0,-0.149,1.149,-0.227,-7.7,-1.0,-5.3,627,882,0,,,,
R,,7202012.0,0.101,1.24,-0.032,-12.9,-3.5,-5.9,409,890,0,,,,
R,,7202071.0,0.145,1.371,-0.179,-16.7,-3.0,-9.1,148,888,0,,,,
R,,7202130.0,0.223,1.681,-0.228,-17.0,-1.1,-16.5,106,849,0,,,,
R,,7202191.0,-0.121,0.93,-0.395,-17.8,-3.1,-10.7,114,644,0,,,,
R,,7202250.0,0.314,0.367,-0.561,-4.6,7.3,3.5,210,462,0,,,,
R,,7202311.0,0.102,0.237,-0.108,5.8,14.4,15.6,249,503,0,,,,
R,,7202371.0,0.093,0.729,-0.207,16.7,21.3,26.8,264,477,0,,,,
R,,7202431.0,-0.243,1.344,-0.593,21.2,29.3,28.2,241,475,0,,,,
R,,7202491.0,-0.713,1.637,-0.796,24.0,15.3,28.5,241,492,0,,,,
R,,7202551.0,-0.855,1.658,-0.407,20.5,-10.5,23.3,246,524,0,,,,
R,,7202611.0,-0.393,1.73,0.868,6.4,-1.4,2.7,242,558,0,,,,
R,,7202670.0,-0.284,1.579,-0.469,-1.7,9.3,-14.9,291,554,0,,,,
R,,7202732.0,0.74,1.119,0.215,-8.5,14.4,-17.3,582,713,0,,,,
R,,7202791.0,-0.154,0.807,-0.071,-2.2,2.2,-11.5,642,765,0,,,,
R,,7202851.0,0.032,0.832,-0.403,-5.4,0.5,-5.9,670,800,0,,,,
R,,7202911.0,0.119,1.02,-0.142,-1.7,1.0,-5.1,696,835,0,,,,
R,,7202971.0,0.007,0.964,-0.284,-2.5,-1.4,-3.4,699,850,0,,,,
R,,7203031.0,0.212,0.996,0.42,-3.4,-3.0,-2.8,692,861,0,,,,
R,,7203091.0,0.138,0.918,-0.083,-4.5,-2.7,-3.2,662,871,0,,,,
R,,7203151.0,-0.052,1.053,-0.194,-4.0,-1.1,-3.5,587,879,0,,,,
R,,7203210.0,0.054,1.058,-0.031,-5.5,-2.7,-3.8,502,886,0,,,,
R,,7203271.0,0.088,1.172,-0.202,-7.0,0.0,-7.2,363,888,0,,,,
R,,7203331.0,0.011,1.174,0.013,-10.9,-2.8,-7.3,189,891,0,,,,
R,,7203392.0,0.207,1.48,-0.201,-14.3,-0.8,-10.7,88,884,0,,,,
R,,7203451.0,0.238,1.726,-0.138,-14.2,-2.9,-18.3,107,858,0,,,,
R,,7203511.0,0.221,0.529,-0.68,-17.0,0.0,-8.6,112,614,0,,,,
R,,7203571.0,0.359,0.341,-0.685,-4.2,15.4,9.2,220,480,0,,,,
R,,7203630.0,-0.155,0.422,-0.254,5.8,12.6,17.7,233,468,0,,,,
R,,7203691.0,0.008,0.845,-0.249,14.2,19.2,27.2,255,446,0,,,,
R,,7203750.0,-0.363,1.191,-0.582,18.6,23.1,27.7,265,437,0,,,,
R,,7203811.0,-0.596,1.631,-0.93,24.1,13.5,25.9,227,433,0,,,,
R,,7203871.0,-0.842,1.593,-0.316,24.2,-2.7,25.1,198,486,0,,,,
R,,7203931.0,-0.731,1.967,1.172,2.2,3.9,-2.5,197,532,0,,,,
R,,7203991.0,0.965,1.167,-0.472,1.2,3.0,-17.4,556,692,0,,,,
R,,7204051.0,-0.382,0.899,0.129,-4.6,4.0,-11.4,643,768,0,,,,
R,,7204113.0,0.116,0.989,-0.31,-2.8,2.5,-6.4,668,796,0,,,,
R,,7204170.0,0.196,1.043,-0.067,-3.5,-1.0,-2.9,685,819,0,,,,
R,,7204231.0,0.078,0.925,-0.413,-2.6,1.1,-3.6,691,827,0,,,,
R,,7204291.0,0.135,1.061,-0.112,-2.6,-1.1,-2.9,698,837,0,,,,
R,,7204351.0,0.162,0.989,-0.176,-4.2,-0.9,-2.2,703,840,0,,,,
R,,7204411.0,0.09,1.041,-0.144,-5.2,-0.9,-2.8,706,854,0,,,,
R,,7204471.0,0.068,1.057,-0.18,-6.9,-2.6,-3.5,674,870,0,,,,
R,,7204531.0,0.126,1.299,-0.131,-10.7,-0.8,-6.2,491,886,0,,,,
R,,7204591.0,0.043,1.522,-0.087,-17.6,-0.9,-9.6,220,888,0,,,,
R,,7204651.0,0.31,1.56,-0.523,-18.2,0.8,-15.6,92,857,0,,,,
R,,7204710.0,0.338,1.504,-0.94,-22.4,-1.6,-15.6,87,722,0,,,,
R,,7204771.0,0.164,1.036,-0.336,-11.4,16.7,0.0,188,434,0,,,,
R,,7204833.0,-0.155,0.37,-0.354,1.7,17.6,13.2,224,449,0,,,,
R,,7204891.0,-0.027,0.518,-0.221,12.6,15.9,25.2,258,432,0,,,,
R,,7204951.0,-0.133,0.94,-0.442,24.1,27.3,28.6,241,424,0,,,,
R,,7205011.0,-0.497,1.542,-0.871,26.6,25.8,26.0,197,432,0,,,,
R,,7205071.0,-1.398,1.691,-0.427,22.0,-9.1,25.4,167,501,0,,,,
R,,7205131.0,-0.292,1.809,0.936,7.6,-11.7,5.8,198,577,0,,,,
R,,7205191.0,0.46,1.425,-0.103,-13.8,1.8,-22.3,535,667,0,,,,
R,,7205250.0,-0.035,0.997,-0.064,-4.6,4.2,-15.3,636,756,0,,,,
R,,7205311.0,-0.109,1.089,-0.233,-3.0,1.7,-5.0,677,801,0,,,,
R,,7205371.0,0.198,0.894,-0.145,-1.8,-1.1,-5.3,693,821,0,,,,
R,,7205431.0,-0.007,0.959,-0.355,-2.8,-4.4,-3.6,702,836,0,,,,
R,,7205493.0,0.19,1.259,-0.227,-1.3,-1.6,-1.9,706,847,0,,,,
R,,7205551.0,-0.033,0.963,-0.18,-4.2,-2.9,-3.4,702,858,0,,,,
R,,7205611.0,0.001,0.955,-0.157,-2.3,-2.1,-3.5,685,873,0,,,,
R,,7205671.0,0.032,1.055,-0.285,-5.6,-3.9,-4.6,602,877,0,,,,
R,,7205731.0,0.028,1.301,-0.024,-10.1,-3.8,-7.7,343,891,0,,,,
R,,7205791.0,-0.359,1.327,-0.299,-10.2,-2.7,-12.2,163,890,0,,,,
R,,7205851.0,0.39,1.622,-0.452,-18.2,-3.5,-17.0,67,863,0,,,,
R,,7205911.0,0.17,1.148,-0.959,-13.3,-9.2,-21.8,71,783,0,,,,
R,,7205971.0,0.055,0.614,0.305,-10.6,-8.8,-5.1,277,493,0,,,,
R,,7206031.0,0.113,0.218,0.02,4.6,9.1,13.5,277,503,0,,,,
R,,7206091.0,0.1,0.516,-0.081,20.4,12.0,26.3,275,485,0,,,,
R,,7206151.0,0.06,1.106,-0.314,28.3,12.5,27.3,300,486,0,,,,
R,,7206212.0,-0.426,1.823,-0.37,27.5,8.2,30.8,248,495,0,,,,
R,,7206271.0,-0.969,1.933,-0.014,22.2,6.0,24.0,212,499,0,,,,
R,,7206331.0,-0.484,1.626,0.49,-0.3,1.8,-4.1,251,551,0,,,,
R,,7206390.0,0.695,0.713,-0.64,3.4,-1.3,-14.9,534,663,0,,,,
R,,7206451.0,0.062,0.906,0.075,-6.5,7.3,-15.0,639,759,0,,,,
R,,7206511.0,-0.043,1.054,-0.325,-1.7,0.6,-7.6,671,792,0,,,,
R,,7206571.0,0.095,0.971,-0.193,-3.6,-0.6,-4.7,692,819,0,,,,
R,,7206631.0,-0.018,0.933,-0.22,-2.4,0.0,-3.9,699,830,0,,,,
R,,7206691.0,0.164,0.635,-0.257,-8.4,-4.6,-1.1,708,846,0,,,,
R,,7206750.0,-0.161,1.057,-0.224,-3.1,-1.3,-1.6,709,854,0,,,,
R,,7206811.0,0.041,1.016,-0.119,-5.1,-2.1,-1.7,709,867,0,,,,
R,,7206873.0,-0.081,1.158,-0.111,-7.7,-1.4,-4.1,652,876,0,,,,
R,,7206931.0,0.043,1.285,0.001,-10.7,-2.8,-5.8,476,888,0,,,,
R,,7206991.0,0.114,1.371,-0.169,-16.4,-0.4,-9.6,185,889,0,,,,
R,,7207081.0,-0.011,2.159,-0.562,-20.7,-4.2,-18.1,98,856,0,,,,
R,,7207171.0,0.638,0.634,-0.271,-10.5,9.1,-2.0,220,445,0,,,,
R,,7207231.0,0.04,0.253,-0.233,3.9,10.0,12.5,226,464,0,,,,
R,,7207291.0,-0.002,0.741,-0.12,18.6,13.6,22.8,232,431,0,,,,
R,,7207351.0,-0.02,0.996,-0.263,24.9,24.0,27.1,235,440,0,,,,
R,,7207411.0,-0.071,1.581,-0.5,23.6,22.9,28.2,210,462,0,,,,
R,,7207471.0,-1.057,1.748,-0.652,24.2,13.7,26.8,166,480,0,,,,
R,,7207531.0,-0.665,1.878,1.126,6.0,-10.7,5.8,196,544,0,,,,
R,,7207591.0,-0.24,0.842,0.46,-12.8,0.3,-20.1,468,606,0,,,,
R,,7207682.0,-0.367,0.484,-0.42,-1.1,11.0,-8.6,644,763,0,,,,
R,,7207741.0,-0.165,0.961,-0.324,-4.2,0.5,-6.5,679,807,0,,,,
R,,7207801.0,0.073,1.054,-0.162,-2.1,0.5,-6.0,697,830,0,,,,
R,,7207861.0,-0.033,1.003,-0.259,-3.7,-2.2,-3.8,708,853,0,,,,
R,,7207921.0,0.037,0.979,-0.207,-2.8,-2.7,-3.5,699,869,0,,,,
R,,7207981.0,0.007,1.025,-0.15,-3.3,-2.1,-2.5,656,880,0,,,,
R,,7208041.0,0.064,1.015,-0.027,-3.2,-1.1,-2.5,566,884,0,,,,
R,,7208101.0,0.075,1.049,-0.131,-5.2,-0.6,-4.1,495,889,0,,,,
R,,7208161.0,-0.031,1.179,-0.033,-10.4,-0.7,-6.0,356,891,0,,,,
R,,7208221.0,0.076,1.259,-0.095,-14.6,-1.8,-9.3,138,889,0,,,,
R,,7208281.0,0.27,1.567,-0.456,-17.4,-2.5,-14.0,83,874,0,,,,
R,,7208341.0,0.205,1.658,-0.961,-23.2,-7.2,-16.5,79,812,0,,,,
R,,7208403.0,-0.284,0.953,-0.386,-7.6,4.0,-0.6,177,514,0,,,,
R,,7208461.0,-0.036,0.249,-0.23,2.3,11.6,8.6,221,502,0,,,,
R,,7208521.0,0.0,0.463,-0.105,12.1,19.7,21.1,243,453,0,,,,
R,,7208581.0,-0.15,0.928,-0.395,18.6,28.1,24.9,250,410,0,,,,
R,,7208641.0,-0.663,1.4,-0.768,18.0,30.8,25.2,240,452,0,,,,
R,,7208701.0,-0.877,1.515,-0.669,22.4,8.5,24.7,205,479,0,,,,
R,,7208761.0,-0.651,1.709,0.168,18.1,-12.8,16.9,190,493,0,,,,
R,,7208821.0,-0.284,1.852,0.51,0.1,4.0,-11.6,320,503,0,,,,
R,,7208881.0,1.052,0.666,-0.002,-13.8,7.8,-21.3,607,721,0,,,,
R,,7208941.0,-0.413,1.597,0.121,-2.4,11.5,-5.7,659,779,0,,,,
R,,7209001.0,-0.099,0.88,-0.14,-6.4,-4.6,-4.9,695,822,0,,,,
R,,7209063.0,0.062,0.97,-0.181,-1.5,1.3,-5.0,706,839,0,,,,
R,,7209121.0,0.011,0.977,-0.171,-2.4,-4.0,-2.7,713,852,0,,,,
R,,7209181.0,-0.058,1.072,-0.287,1.3,-0.6,-1.0,710,867,0,,,,
R,,7209241.0,-0.081,1.108,-0.149,-3.9,-3.0,-2.3,681,876,0,,,,
R,,7209301.0,0.163,0.92,-0.29,-5.5,-2.2,-4.1,606,884,0,,,,
R,,7209361.0,0.014,1.027,-0.028,-4.0,-1.8,-2.9,552,887,0,,,,
R,,7209421.0,-0.094,1.104,-0.217,-6.8,-1.3,-5.3,471,890,0,,,,
R,,7209481.0,-0.062,1.179,-0.09,-9.7,-1.2,-6.6,180,895,0,,,,
R,,7209541.0,0.0,1.374,-0.052,-11.3,-0.8,-8.4,87,887,0,,,,
R,,7209601.0,0.438,1.764,-0.168,-17.8,-4.2,-13.8,86,868,0,,,,
R,,7209661.0,0.054,1.41,-1.118,-16.4,0.6,-24.7,78,734,0,,,,
R,,7209721.0,0.0,0.738,-0.041,-11.3,12.8,0.8,172,453,0,,,,
R,,7209783.0,-0.114,0.255,-0.203,-1.2,13.2,18.2,230,461,0,,,,
R,,7209841.0,-0.106,0.572,-0.153,9.0,14.8,28.4,253,448,0,,,,
R,,7209901.0,-0.331,1.192,-0.423,15.5,25.1,29.7,245,409,0,,,,
R,,7209961.0,-0.611,1.565,-0.858,19.7,30.0,22.6,247,436,0,,,,
R,,7210021.0,-1.062,1.429,-0.589,21.6,7.0,23.6,218,468,0,,,,
R,,7210082.0,-0.575,1.591,0.156,16.1,-12.3,13.5,196,521,0,,,,
R,,7210141.0,-0.491,1.432,0.444,2.0,-1.5,-3.4,225,562,0,,,,
R,,7210201.0,1.042,1.391,-0.658,-7.5,3.5,-16.0,546,667,0,,,,
R,,7210261.0,-0.128,1.051,0.199,-7.1,2.1,-15.6,633,753,0,,,,
R,,7210321.0,0.024,0.877,-0.338,-2.0,2.3,-5.2,666,788,0,,,,
R,,7210411.0,0.114,0.989,-0.168,0.2,0.5,-3.9,696,820,0,,,,
R,,7210471.0,0.021,0.963,-0.265,-1.3,-2.4,-1.4,702,826,0,,,,
R,,7210533.0,0.335,0.358,-0.125,0.9,-0.2,0.0,703,830,0,,,,
R,,7210591.0,0.007,1.046,-0.234,-3.5,-2.0,-2.2,707,837,0,,,,
R,,7210651.0,0.241,0.973,-0.092,-4.4,-1.1,-3.3,712,853,0,,,,
R,,7210711.0,-0.21,1.093,-0.303,-7.1,-2.6,-4.3,696,871,0,,,,
R,,7210771.0,0.034,1.186,-0.104,-9.2,-4.6,-6.0,554,890,0,,,,
R,,7210832.0,0.066,1.248,-0.113,-13.2,-2.5,-9.1,277,895,0,,,,
R,,7210891.0,0.023,1.536,-0.323,-16.7,-2.8,-13.0,88,884,0,,,,
R,,7210951.0,-0.1,1.729,-0.393,-17.7,-4.6,-18.9,63,852,0,,,,
R,,7211011.0,0.04,0.001,-0.265,-15.2,-4.9,-2.5,150,447,0,,,,
R,,7211071.0,0.475,0.223,-0.401,0.1,10.0,6.5,238,486,0,,,,
R,,7211131.0,-0.115,0.215,-0.108,6.0,23.9,19.0,272,500,0,,,,
R,,7211193.0,-0.066,0.809,-0.365,17.5,25.2,27.3,273,463,0,,,,
R,,7211251.0,-0.447,1.489,-0.699,18.0,25.0,29.3,270,468,0,,,,
R,,7211311.0,-0.707,1.616,-0.722,21.1,5.4,25.9,243,473,0,,,,
R,,7211372.0,-0.553,1.517,-0.095,19.4,-20.2,19.7,230,504,0,,,,
R,,7211431.0,-0.302,1.552,0.726,5.2,-4.2,1.8,255,542,0,,,,
R,,7211491.0,0.092,1.666,0.151,-6.0,6.7,-16.3,429,581,0,,,,
R,,7211551.0,0.391,1.074,0.243,-10.8,12.0,-17.7,623,744,0,,,,
R,,7211611.0,-0.093,1.037,-0.189,-2.5,-1.6,-6.4,659,780,0,,,,
R,,7211671.0,0.044,0.945,-0.212,-5.8,-0.8,-3.3,685,810,0,,,,
R,,7211731.0,0.01,0.951,-0.326,-1.1,1.2,-4.6,701,830,0,,,,
R,,7211821.0,-0.232,0.971,0.23,-1.8,-0.1,-4.2,709,843,0,,,,
R,,7211881.0,-0.093,0.886,-0.299,-2.5,-1.7,-2.8,714,851,0,,,,
R,,7211943.0,0.01,0.899,-0.196,-2.6,-1.6,-2.8,716,863,0,,,,
R,,7212001.0,-0.023,1.004,-0.225,-3.3,-3.1,-3.4,703,871,0,,,,
R,,7212061.0,-0.091,1.026,-0.244,-4.5,-3.7,-4.2,657,880,0,,,,
R,,7212122.0,-0.07,1.137,-0.134,-7.3,-5.2,-5.4,457,890,0,,,,
R,,7212181.0,-0.034,1.208,-0.091,-10.1,-6.5,-7.4,253,895,0,,,,
R,,7212241.0,0.093,1.411,-0.087,-13.5,-7.3,-10.3,112,888,0,,,,
R,,7212301.0,0.033,1.589,-0.014,-14.1,-2.5,-17.8,89,846,0,,,,
R,,7212391.0,-0.252,-1.81,-0.158,-19.7,-10.8,-7.3,232,424,0,,,,
R,,7212451.0,0.172,0.301,-0.256,2.9,-1.3,12.9,239,476,0,,,,
R,,7212511.0,0.41,0.333,-0.239,13.0,12.0,22.0,273,461,0,,,,
R,,7212571.0,0.021,0.934,-0.214,19.9,16.9,25.8,275,447,0,,,,
R,,7212631.0,-0.185,1.441,-0.565,22.2,21.4,26.1,292,457,0,,,,
R,,7212693.0,-0.788,1.831,-0.254,19.0,6.8,24.9,220,469,0,,,,
R,,7212751.0,-1.135,1.822,0.877,13.8,-1.6,10.5,247,488,0,,,,
R,,7212811.0,0.135,0.905,-0.764,2.2,14.2,-23.9,562,686,0,,,,
R,,7212872.0,-0.251,0.891,0.096,-0.4,10.3,-8.9,645,765,0,,,,
R,,7212931.0,0.114,0.874,-0.305,-0.6,1.0,-6.0,672,799,0,,,,
R,,7212991.0,0.117,1.018,-0.227,-2.3,0.0,-3.2,687,815,0,,,,
R,,7213051.0,0.082,0.96,-0.304,-3.2,-0.4,-3.4,702,832,0,,,,
R,,7213111.0,0.089,0.919,-0.164,-2.3,-2.2,-2.0,709,845,0,,,,
R,,7213171.0,0.038,0.981,-0.147,-2.1,-0.2,-1.6,713,854,0,,,,
R,,7213231.0,0.079,1.024,-0.163,-3.1,-1.0,-1.3,718,856,0,,,,
R,,7213291.0,0.1,1.077,-0.198,-6.6,-1.0,-3.5,715,864,0,,,,
R,,7213353.0,-0.068,1.138,-0.194,-11.6,-2.5,-5.3,613,879,0,,,,
R,,7213412.0,0.062,1.331,-0.09,-14.6,-2.9,-5.8,406,889,0,,,,
R,,7213471.0,0.243,1.491,-0.323,-16.9,1.8,-10.1,75,879,0,,,,
R,,7213531.0,0.06,1.579,-0.49,-15.7,-0.9,-17.7,75,831,0,,,,
R,,7213591.0,-0.49,0.31,-0.189,-6.2,1.9,-10.5,279,423,0,,,,
R,,7213651.0,0.187,0.411,-0.249,-1.0,11.8,7.6,274,477,0,,,,
R,,7213711.0,-0.075,0.393,-0.15,11.5,15.9,17.0,301,473,0,,,,
R,,7213771.0,-0.057,0.955,-0.175,18.1,21.4,22.2,307,466,0,,,,
R,,7213832.0,-0.329,1.363,-0.313,18.4,19.7,20.1,304,487,0,,,,
R,,7213891.0,-0.5,1.302,-0.394,21.2,17.2,16.9,310,509,0,,,,
R,,7213952.0,-0.594,1.435,-0.15,18.9,1.9,16.0,219,542,0,,,,
R,,7214011.0,-0.617,1.502,0.488,9.6,1.3,6.9,176,584,0,,,,
R,,7214073.0,-0.547,1.546,0.451,-5.9,7.8,-17.9,460,612,0,,,,
R,,7214131.0,-0.854,0.538,0.567,-11.0,4.6,-32.4,610,731,0,,,,
R,,7214191.0,-0.447,1.317,-0.117,-4.3,4.6,-3.2,649,769,0,,,,
R,,7214251.0,-0.067,1.104,-0.29,-2.1,0.5,-4.7,686,813,0,,,,
R,,7214311.0,0.188,1.013,-0.201,-1.2,0.5,-4.1,701,829,0,,,,
R,,7214372.0,0.025,0.977,-0.236,-3.0,-1.2,-3.0,709,839,0,,,,
R,,7214431.0,0.061,0.972,-0.178,-2.8,-1.6,-3.1,718,851,0,,,,
R,,7214492.0,0.013,0.988,-0.19,-1.8,-1.0,-2.6,721,856,0,,,,
R,,7214551.0,-0.005,1.045,-0.093,-3.4,-1.5,-0.9,723,862,0,,,,
R,,7214611.0,0.018,1.034,-0.154,-4.6,-2.3,-1.7,720,869,0,,,,
R,,7214671.0,0.075,1.079,-0.077,-7.7,-2.2,-4.7,677,879,0,,,,
R,,7214733.0,0.068,1.124,-0.139,-12.7,-5.4,-5.8,530,890,0,,,,
R,,7214791.0,0.05,1.301,-0.012,-13.8,-3.0,-6.6,234,893,0,,,,
R,,7214851.0,0.197,1.357,-0.225,-14.3,-0.7,-11.0,84,862,0,,,,
R,,7214912.0,0.065,1.51,-0.582,-13.0,-1.1,-14.7,77,815,0,,,,
R,,7214971.0,-0.47,0.925,0.127,-9.7,0.3,-5.7,238,450,0,,,,
R,,7215032.0,0.163,0.583,-0.083,-1.3,10.9,5.6,230,508,0,,,,
R,,7215091.0,0.034,0.62,-0.122,8.6,15.9,18.0,242,495,0,,,,
R,,7215151.0,-0.043,0.834,-0.254,15.1,21.9,23.7,256,459,0,,,,
R,,7215210.0,-0.068,1.202,-0.524,20.5,24.8,23.8,281,488,0,,,,
R,,7215271.0,-0.54,1.468,-0.793,24.1,20.7,21.0,241,515,0,,,,
R,,7215332.0,-1.028,1.693,-0.235,21.1,-7.3,19.4,190,527,0,,,,
R,,7215391.0,-0.472,1.805,0.839,6.7,-3.7,0.4,270,555,0,,,,
R,,7215453.0,1.511,1.269,-0.757,-11.6,9.3,-15.7,586,711,0,,,,
R,,7215511.0,-0.052,0.895,0.088,-3.4,4.8,-10.8,639,760,0,,,,
R,,7215571.0,-0.215,0.935,-0.262,-2.6,-0.7,-3.5,676,799,0,,,,
R,,7215631.0,0.139,0.96,-0.195,-0.8,0.4,-4.9,696,821,0,,,,
R,,7215691.0,0.003,0.983,-0.312,-2.4,-1.5,-3.7,706,837,0,,,,
R,,7215751.0,0.09,0.998,-0.278,-2.8,-2.1,-3.9,713,845,0,,,,
R,,7215811.0,0.088,1.025,-0.037,-2.3,-0.9,-3.4,712,859,0,,,,
R,,7215872.0,-0.007,0.965,-0.159,-2.9,-1.6,-2.6,702,868,0,,,,
R,,7215931.0,0.004,0.979,-0.149,-3.2,-2.4,-2.3,678,877,0,,,,
R,,7215992.0,0.052,1.1,-0.245,-5.1,-2.5,-4.4,609,880,0,,,,
R,,7216051.0,0.095,1.191,-0.018,-9.1,-2.9,-6.8,450,894,0,,,,
R,,7216111.0,-0.008,1.298,-0.195,-15.1,-6.5,-8.8,158,894,0,,,,
R,,7216173.0,0.298,1.556,-0.161,-16.6,-2.4,-14.3,88,872,0,,,,
R,,7216231.0,-0.077,1.097,-0.728,-9.4,-8.9,-24.3,84,808,0,,,,
R,,7216291.0,-0.737,-1.593,0.703,-16.8,-7.6,6.5,280,437,0,,,,
R,,7216351.0,0.108,0.058,-0.108,6.0,-5.1,13.7,286,479,0,,,,
R,,7216412.0,0.108,0.516,0.072,18.8,6.2,19.3,286,448,0,,,,
R,,7216471.0,-0.108,1.154,-0.198,23.4,19.1,22.7,281,424,0,,,,
R,,7216532.0,-0.354,1.554,-0.433,24.6,23.4,20.4,303,447,0,,,,
R,,7216591.0,-0.566,1.595,-0.479,22.3,12.8,20.9,305,465,0,,,,
R,,7216651.0,-0.842,1.624,-0.119,18.8,-11.3,15.4,303,515,0,,,,
R,,7216742.0,-0.361,1.154,0.273,-4.4,1.7,-12.2,306,547,0,,,,
R,,7216801.0,0.479,1.302,-0.214,-8.5,14.5,-19.1,595,711,0,,,,
R,,7216863.0,-0.124,1.169,0.069,-4.4,1.7,-9.8,653,770,0,,,,
R,,7216921.0,-0.099,0.92,-0.55,-1.9,1.9,-5.3,672,790,0,,,,
R,,7216981.0,0.217,1.0,-0.24,-2.4,0.4,-4.6,691,820,0,,,,
R,,7217041.0,-0.019,0.998,-0.359,-3.5,-1.2,-3.7,708,836,0,,,,
R,,7217101.0,0.63,1.55,-0.615,0.7,-5.6,-10.2,714,853,0,,,,
R,,7217162.0,-0.08,1.119,-0.253,-5.5,-3.0,-2.6,711,864,0,,,,
R,,7217221.0,-0.384,1.106,-0.427,-5.4,-1.7,-2.7,694,874,0,,,,
R,,7217282.0,-0.205,1.11,-0.089,-4.3,-2.0,-3.9,616,883,0,,,,
R,,7217341.0,-0.042,1.094,-0.175,-6.2,-2.4,-4.9,513,886,0,,,,
R,,7217401.0,-0.028,1.216,-0.089,-10.1,-3.1,-7.1,283,895,0,,,,
R,,7217461.0,0.094,1.258,-0.048,-14.0,-2.5,-9.3,132,891,0,,,,
R,,7217521.0,0.079,1.41,-0.27,-15.0,-2.3,-13.0,104,872,0,,,,
R,,7217583.0,0.044,1.685,-0.791,-18.4,-3.8,-18.5,119,824,0,,,,
R,,7217641.0,-0.758,-1.375,0.35,-20.9,-5.4,1.4,278,449,0,,,,
R,,7217702.0,0.159,0.253,0.0,1.0,-3.0,9.9,262,484,0,,,,
R,,7217761.0,0.128,0.437,-0.022,12.6,9.9,18.8,304,454,0,,,,
R,,7217822.0,-0.092,0.817,-0.082,21.0,18.7,23.5,294,467,0,,,,
R,,7217881.0,-0.192,1.431,-0.42,21.8,22.1,25.4,326,480,0,,,,
R,,7217941.0,-0.521,1.743,-0.465,22.5,13.5,23.6,316,484,0,,,,
R,,7218001.0,-0.564,1.606,-0.339,22.4,-3.2,19.6,321,515,0,,,,
R,,7218091.0,-0.35,1.379,0.401,-0.6,6.7,-5.8,322,547,0,,,,
R,,7218152.0,0.426,0.842,-0.974,-3.8,1.4,-13.8,550,667,0,,,,
R,,7218211.0,-0.018,0.898,-0.145,-6.4,6.8,-16.2,642,760,0,,,,
R,,7218271.0,-0.286,1.12,-0.084,-4.5,0.2,-6.6,664,783,0,,,,
R,,7218333.0,0.166,1.032,-0.148,-3.9,0.0,-5.2,695,823,0,,,,
R,,7218391.0,-0.002,1.003,-0.338,-3.5,-2.0,-3.7,702,838,0,,,,
R,,7218452.0,0.075,1.041,-0.221,-3.4,-3.2,-3.7,692,855,0,,,,
R,,7218511.0,0.826,0.828,-0.008,-2.8,-3.6,-5.1,630,872,0,,,,
R,,7218572.0,-0.172,1.062,-0.137,-4.9,-2.3,-2.2,581,879,0,,,,
R,,7218631.0,-0.125,0.999,-0.046,-4.7,-1.6,-3.2,528,878,0,,,,
R,,7218691.0,-0.153,0.97,-0.071,-6.0,-1.8,-3.0,448,873,0,,,,
R,,7218751.0,-0.073,1.014,0.028,-5.6,-1.3,-2.6,296,874,0,,,,
R,,7218811.0,-0.067,1.09,0.057,-7.4,-0.5,-4.2,190,876,0,,,,
R,,7218872.0,-0.052,1.174,-0.003,-8.6,0.8,-5.6,99,873,0,,,,
R,,7218931.0,0.092,1.29,-0.024,-12.7,0.0,-8.1,93,873,0,,,,
R,,7218993.0,0.159,1.734,-0.458,-16.1,-1.1,-14.7,102,868,0,,,,
R,,7219051.0,0.0,-0.097,-0.65,-18.4,4.8,-4.6,126,577,0,,,,
R,,7219112.0,0.324,0.678,-0.927,-1.4,16.3,10.8,241,488,0,,,,
R,,7219171.0,0.392,0.315,-0.183,7.6,12.7,21.1,266,453,0,,,,
R,,7219231.0,-0.067,0.818,-0.243,15.7,21.3,26.1,297,440,0,,,,
R,,7219291.0,-0.44,1.472,-0.576,18.2,35.1,27.8,283,395,0,,,,
R,,7219351.0,-0.99,1.517,-1.097,21.5,27.6,22.8,278,450,0,,,,
R,,7219412.0,-0.75,1.491,-0.61,19.9,-3.4,21.2,290,499,0,,,,
R,,7219471.0,-0.206,1.502,0.219,16.4,-7.9,11.4,295,539,0,,,,
R,,7219532.0,-0.377,1.369,0.41,3.7,13.9,-8.8,310,571,0,,,,
R,,7219591.0,0.658,0.661,-1.048,-3.2,12.5,-19.7,579,705,0,,,,
R,,7219652.0,0.082,0.842,0.04,-6.6,2.6,-18.8,648,767,0,,,,
R,,7219743.0,0.036,0.975,-0.04,-5.5,0.4,-7.0,679,805,0,,,,
R,,7219801.0,0.04,1.063,-0.068,-2.0,0.3,-5.5,697,833,0,,,,
R,,7219862.0,0.04,0.987,-0.079,-2.4,-1.9,-3.8,696,853,0,,,,
R,,7219921.0,0.382,0.356,-0.102,-2.5,-2.6,-0.9,675,869,0,,,,
R,,7219981.0,0.088,1.116,-0.133,-3.0,-0.4,-3.3,627,879,0,,,,
R,,7220041.0,-0.003,0.998,-0.11,-2.3,-3.7,-2.1,580,884,0,,,,
R,,7220101.0,0.046,1.015,-0.065,-3.6,-3.3,-1.9,533,884,0,,,,
R,,7220162.0,0.07,1.178,-0.147,-7.2,-2.2,-4.6,432,890,0,,,,
R,,7220221.0,0.019,1.278,-0.035,-11.4,-1.7,-7.2,213,896,0,,,,
R,,7220282.0,0.2,1.643,-0.287,-18.1,-2.6,-11.2,86,885,0,,,,
R,,7220341.0,-0.115,1.73,-0.426,-22.9,-5.9,-13.9,94,848,0,,,,
R,,7220402.0,-0.382,0.358,-0.44,-9.0,1.0,-0.8,225,463,0,,,,
R,,7220463.0,0.219,0.309,-0.441,-2.2,18.0,9.2,260,541,0,,,,
R,,7220521.0,-0.156,0.352,-0.204,8.8,13.7,19.1,291,526,0,,,,
R,,7220582.0,0.006,0.879,-0.312,16.7,19.8,26.2,296,490,0,,,,
R,,7220641.0,-0.191,1.308,-0.513,18.6,24.1,25.8,306,496,0,,,,
R,,7220702.0,-0.649,1.571,-0.634,22.7,13.8,25.2,299,506,0,,,,
R,,7220761.0,-0.652,1.617,-0.368,19.3,-8.6,20.5,228,537,0,,,,
R,,7220822.0,-0.523,1.675,0.722,7.3,-8.0,4.2,231,568,0,,,,
R,,7220881.0,-0.518,0.854,0.01,-10.4,3.6,-19.1,490,616,0,,,,
R,,7220942.0,-0.097,1.051,-0.085,-5.6,8.4,-16.2,639,757,0,,,,
R,,7221001.0,-0.021,1.101,-0.185,-0.1,0.9,-6.4,669,794,0,,,,
R,,7221061.0,0.223,0.914,-0.058,-2.3,-0.3,-3.7,690,817,0,,,,
R,,7221123.0,0.027,0.953,-0.37,-1.7,-1.8,-2.9,698,828,0,,,,
R,,7221181.0,0.101,0.992,-0.255,-1.8,-3.3,-1.9,696,828,0,,,,
R,,7221242.0,0.069,1.079,-0.277,-1.0,-4.4,-1.9,694,831,0,,,,
R,,7221301.0,-0.029,0.95,-0.315,-2.6,-1.3,-2.9,697,840,0,,,,
R,,7221362.0,0.053,1.063,-0.238,-5.3,-2.8,-4.2,693,854,0,,,,
R,,7221421.0,-0.045,1.095,-0.151,-7.9,-5.2,-6.0,580,877,0,,,,
R,,7221482.0,0.017,1.164,-0.097,-11.2,-4.4,-7.6,373,891,0,,,,
R,,7221541.0,-0.01,1.293,-0.251,-14.0,-3.6,-10.4,157,891,0,,,,
R,,7221601.0,0.164,1.664,-0.357,-17.0,-2.8,-16.2,85,853,0,,,,
R,,7221662.0,0.123,1.436,-0.783,-16.0,-7.4,-16.6,97,737,0,,,,
R,,7221721.0,-0.213,0.994,0.331,-4.8,-6.2,-6.9,296,463,0,,,,
R,,7221782.0,0.244,0.403,0.09,4.7,1.8,10.9,275,484,0,,,,
R,,7221843.0,0.031,0.503,-0.045,15.4,16.0,20.3,316,483,0,,,,
R,,7221902.0,-0.107,0.938,-0.262,22.2,15.8,23.6,332,489,0,,,,
R,,7221961.0,-0.279,1.417,-0.385,22.8,12.5,26.0,343,505,0,,,,
R,,7222022.0,-0.649,1.718,-0.325,22.9,3.7,25.7,328,509,0,,,,
R,,7222082.0,-0.857,1.632,0.199,16.7,-4.8,13.2,319,529,0,,,,
R,,7222141.0,-0.458,1.492,0.373,-3.4,7.6,-10.7,306,558,0,,,,
R,,7222202.0,0.837,1.336,0.166,-9.6,12.6,-18.4,606,721,0,,,,
R,,7222261.0,-0.436,0.712,-0.142,-1.6,4.0,-8.7,658,774,0,,,,
R,,7222322.0,-0.11,1.013,-0.347,-6.6,0.9,-4.6,679,804,0,,,,
R,,7222381.0,0.125,1.01,-0.203,-2.2,1.4,-5.1,704,832,0,,,,
R,,7222442.0,0.035,0.958,-0.21,-3.1,-2.9,-3.2,708,839,0,,,,
R,,7222503.0,-0.102,0.922,-0.27,-2.1,-1.5,-2.6,713,855,0,,,,
R,,7222562.0,-0.219,0.975,-0.193,-2.5,-1.2,-2.5,713,867,0,,,,
R,,7222622.0,0.06,0.982,-0.198,-2.5,-1.5,-2.4,705,871,0,,,,
R,,7222681.0,-0.005,1.024,-0.191,-4.2,-3.0,-3.2,680,878,0,,,,
R,,7222741.0,-0.009,1.145,-0.151,-7.5,-2.4,-5.3,579,884,0,,,,
R,,7222801.0,0.095,1.155,-0.121,-10.4,-2.7,-6.9,377,893,0,,,,
R,,7222862.0,0.06,1.223,-0.148,-14.3,-2.9,-7.9,129,890,0,,,,
R,,7222921.0,0.005,1.557,-0.329,-16.4,-3.7,-14.2,91,853,0,,,,
R,,7222982.0,0.019,1.435,-0.703,-16.9,-12.4,-13.8,82,778,0,,,,
R,,7223041.0,-0.422,0.954,0.442,-5.8,-9.7,-4.3,296,456,0,,,,
R,,7223101.0,0.295,0.348,0.153,8.1,4.5,9.5,301,497,0,,,,
R,,7223192.0,-0.042,0.774,-0.169,24.8,15.7,18.3,324,492,0,,,,
R,,7223253.0,-0.004,1.281,-0.234,25.6,10.5,22.0,330,497,0,,,,
R,,7223312.0,-0.128,1.796,-0.222,25.9,6.5,20.4,301,504,0,,,,
R,,7223372.0,-0.88,1.591,-0.057,19.1,3.7,16.3,279,514,0,,,,
R,,7223431.0,-0.297,1.654,0.344,1.7,5.3,-4.8,297,550,0,,,,
R,,7223492.0,0.56,1.113,-0.869,-4.3,1.2,-16.3,570,695,0,,,,
R,,7223551.0,-0.206,0.894,-0.046,-7.5,3.3,-12.8,650,768,0,,,,
R,,7223612.0,0.141,1.031,-0.27,-5.2,2.6,-6.8,690,819,0,,,,
R,,7223671.0,0.137,1.054,-0.121,-3.1,-0.5,-4.0,708,842,0,,,,
R,,7223732.0,-0.04,0.932,-0.272,-4.0,-2.4,-3.0,714,855,0,,,,
R,,7223791.0,0.038,0.983,-0.193,-1.7,-1.7,-1.9,716,869,0,,,,
R,,7223852.0,-0.027,0.914,-0.169,-2.0,-1.3,-1.4,714,870,0,,,,
R,,7223912.0,0.013,0.983,-0.14,-1.9,0.0,-0.8,716,872,0,,,,
R,,7223973.0,0.05,1.026,-0.192,-3.8,-1.5,-1.2,716,874,0,,,,
R,,7224032.0,0.042,1.073,-0.129,-7.7,-2.4,-3.5,692,878,0,,,,
R,,7224091.0,0.103,1.163,-0.018,-10.6,-1.9,-4.7,559,888,0,,,,
R,,7224152.0,0.088,1.313,-0.009,-13.8,-1.3,-5.7,300,892,0,,,,
R,,7224211.0,0.291,1.545,-0.226,-15.6,1.0,-10.6,88,868,0,,,,
R,,7224272.0,-0.068,1.564,-0.851,-17.0,-2.5,-15.8,86,831,0,,,,
R,,7224332.0,-0.544,0.648,0.085,-10.9,4.8,-4.9,222,461,0,,,,
R,,7224392.0,0.081,0.274,-0.332,-1.8,14.2,7.9,242,511,0,,,,
R,,7224452.0,-0.067,0.342,-0.21,13.2,18.9,18.1,266,476,0,,,,
R,,7224511.0,-0.063,0.834,-0.321,19.1,25.3,23.5,271,460,0,,,,
R,,7224572.0,-0.351,1.349,-0.722,22.7,29.3,24.6,292,478,0,,,,
R,,7224633.0,-0.691,1.899,-0.713,25.3,17.2,21.4,227,492,0,,,,
R,,7224692.0,-0.893,1.661,-0.038,20.1,-5.6,15.3,187,554,0,,,,
R,,7224751.0,-0.357,1.786,0.228,3.5,4.8,-6.4,257,591,0,,,,
R,,7224812.0,1.007,1.15,-0.926,-5.0,7.2,-17.3,588,712,0,,,,
R,,7224872.0,-0.513,0.992,-0.252,-2.4,8.1,-9.4,651,774,0,,,,
R,,7224931.0,-0.033,0.844,-0.415,-4.0,0.7,-6.7,692,820,0,,,,
R,,7224992.0,0.173,1.028,-0.144,-2.3,-0.2,-5.3,710,843,0,,,,
R,,7225051.0,0.03,0.983,-0.215,-2.9,-2.3,-3.0,715,863,0,,,,
R,,7225112.0,0.01,0.973,-0.19,-1.9,-2.3,-2.2,705,870,0,,,,
R,,7225171.0,0.116,1.143,-0.21,-3.3,-2.7,-1.0,697,875,0,,,,
R,,7225232.0,-0.058,0.985,-0.095,-2.7,0.0,-1.8,692,878,0,,,,
R,,7225291.0,0.015,1.057,-0.238,-4.2,-1.0,-2.4,659,884,0,,,,
R,,7225353.0,0.143,1.058,-0.086,-5.5,0.2,-5.4,583,890,0,,,,
R,,7225442.0,-0.009,1.152,-0.136,-10.6,-1.7,-6.0,347,896,0,,,,
R,,7225501.0,0.123,1.42,-0.128,-14.4,-0.4,-7.7,122,888,0,,,,
R,,7225562.0,0.297,1.501,-0.327,-16.6,-1.8,-14.8,86,858,0,,,,
R,,7225622.0,0.016,1.079,-0.746,-17.6,-2.1,-10.6,75,755,0,,,,
R,,7225682.0,0.634,1.125,-0.038,-10.0,5.7,-2.3,214,520,0,,,,
R,,7225742.0,-0.044,0.344,-0.106,3.3,17.9,12.7,254,495,0,,,,
R,,7225801.0,0.025,0.725,-0.104,13.0,19.5,24.3,273,445,0,,,,
R,,7225861.0,-0.205,1.118,-0.49,17.6,31.2,25.7,266,455,0,,,,
R,,7225921.0,-0.525,1.278,-0.714,18.5,24.0,22.5,268,481,0,,,,
R,,7225982.0,-0.964,1.449,-0.607,22.0,1.6,21.5,230,515,0,,,,
R,,7226041.0,-0.547,1.688,0.5,14.1,-14.7,12.3,204,585,0,,,,
R,,7226103.0,-0.082,2.115,0.488,1.8,5.2,-14.0,374,535,0,,,,
R,,7226162.0,0.345,1.584,0.251,-6.7,9.3,-18.7,623,739,0,,,,
R,,7226221.0,-0.237,1.032,-0.153,-4.4,0.7,-4.3,664,786,0,,,,
R,,7226282.0,0.135,0.984,-0.296,-4.9,-0.8,-4.5,688,815,0,,,,
R,,7226341.0,0.115,0.98,-0.275,-0.7,0.9,-4.3,702,828,0,,,,
R,,7226402.0,0.077,0.988,-0.273,-3.2,-2.2,-3.2,706,838,0,,,,
R,,7226461.0,0.215,0.839,-0.124,-6.2,-3.5,-0.6,712,850,0,,,,
R,,7226522.0,-0.043,1.056,-0.219,-3.9,-1.2,-3.0,712,864,0,,,,
R,,7226582.0,0.013,0.993,-0.139,-3.5,-2.8,-3.1,698,873,0,,,,
R,,7226642.0,-0.051,1.071,-0.251,-3.8,-2.4,-3.3,662,878,0,,,,
R,,7226702.0,0.024,1.08,-0.212,-7.5,-3.8,-5.4,498,888,0,,,,
R,,7226763.0,-0.005,1.253,-0.34,-12.7,-4.2,-7.5,221,900,0,,,,
R,,7226822.0,0.191,1.326,-0.258,-17.3,-3.6,-10.9,121,888,0,,,,
R,,7226881.0,0.019,1.603,-0.351,-15.8,-2.1,-18.2,107,830,0,,,,
R,,7226942.0,-0.058,0.674,-0.66,-15.1,-9.2,-11.3,118,562,0,,,,
R,,7227001.0,0.306,0.168,-0.509,-4.4,4.5,2.3,297,503,0,,,,
R,,7227062.0,0.311,0.302,-0.043,9.5,9.7,14.7,303,495,0,,,,
R,,7227122.0,-0.005,0.729,-0.209,20.1,15.3,23.0,312,481,0,,,,
R,,7227182.0,-0.009,1.205,-0.26,23.8,13.5,24.1,320,481,0,,,,
R,,7227242.0,-0.191,1.685,-0.392,25.4,10.1,22.4,307,484,0,,,,
R,,7227301.0,-0.625,1.621,-0.002,21.4,2.9,16.2,301,533,0,,,,
R,,7227362.0,0.047,2.402,0.145,6.9,-0.5,-3.2,334,540,0,,,,
R,,7227421.0,1.022,2.098,-0.521,-7.7,-5.8,-16.5,602,724,0,,,,
R,,7227483.0,0.055,1.452,0.217,-3.9,6.8,-2.3,661,781,0,,,,
R,,7227541.0,-0.012,0.967,-0.336,-2.4,-1.0,-4.2,692,820,0,,,,
R,,7227602.0,0.151,0.994,-0.193,-1.3,-0.6,-3.9,706,830,0,,,,
R,,7227662.0,0.17,0.914,-0.276,-2.4,-1.7,-3.4,715,845,0,,,,
R,,7227722.0,0.293,1.125,-0.107,-3.4,-0.6,-5.8,711,846,0,,,,
R,,7227782.0,0.101,0.983,-0.169,-3.5,-1.7,-2.1,712,855,0,,,,
R,,7227841.0,0.103,1.014,-0.109,-3.6,-2.2,-2.3,708,867,0,,,,
R,,7227902.0,0.006,1.034,-0.12,-4.9,-3.9,-3.4,669,877,0,,,,
R,,7227961.0,0.065,1.178,-0.107,-8.5,-3.3,-4.6,528,889,0,,,,
R,,7228051.0,-0.148,1.351,-0.219,-13.5,-2.2,-8.6,180,893,0,,,,
R,,7228112.0,0.195,1.571,-0.351,-18.1,-1.2,-16.2,107,863,0,,,,
R,,7228171.0,0.205,1.454,-0.589,-19.2,-5.1,-15.8,113,777,0,,,,
R,,7228233.0,0.051,1.083,0.049,-7.9,-1.6,-2.3,324,507,0,,,,
R,,7228291.0,0.072,0.25,0.047,6.6,10.1,13.4,291,498,0,,,,
R,,7228352.0,-0.122,0.702,-0.232,16.7,22.9,24.4,294,477,0,,,,
R,,7228412.0,-0.194,1.279,-0.498,22.9,22.4,25.4,302,483,0,,,,
R,,7228472.0,-0.552,1.365,-0.55,24.4,10.2,25.1,271,492,0,,,,
R,,7228532.0,-1.109,1.589,-0.165,20.9,0.4,19.9,252,527,0,,,,
R,,7228622.0,-0.037,2.287,0.051,-2.4,10.0,-14.4,356,536,0,,,,
R,,7228682.0,0.47,1.482,0.279,-9.6,7.3,-18.8,622,742,0,,,,
R,,7228742.0,-0.215,1.195,0.157,-5.5,-0.4,-4.3,670,789,0,,,,
R,,7228802.0,-0.064,0.933,-0.264,-4.9,0.0,-4.7,696,822,0,,,,
R,,7228862.0,0.112,0.998,-0.236,-2.3,0.5,-4.4,707,839,0,,,,
R,,7228923.0,0.022,0.946,-0.195,-3.9,-1.7,-2.9,712,847,0,,,,
R,,7228981.0,-0.038,1.004,-0.215,-3.5,-1.4,-2.5,715,857,0,,,,
R,,7229041.0,-0.101,1.0,-0.148,-4.3,-1.8,-2.4,712,867,0,,,,
R,,7229102.0,-0.02,1.04,-0.149,-3.9,-2.6,-2.2,692,876,0,,,,
R,,7229192.0,0.033,1.195,-0.085,-8.2,-3.0,-3.8,547,889,0,,,,
R,,7229251.0,0.084,1.301,-0.122,-13.3,-2.6,-7.2,323,895,0,,,,
R,,7229312.0,0.175,1.41,-0.255,-16.6,-0.4,-10.0,94,878,0,,,,
R,,7229372.0,-0.137,1.61,-0.316,-18.7,-3.8,-14.9,107,836,0,,,,
R,,7229432.0,0.106,0.519,-0.361,-12.0,0.4,-3.2,271,431,0,,,,
R,,7229492.0,0.32,0.188,-0.391,-1.2,14.1,6.6,304,511,0,,,,
R,,7229552.0,0.063,0.309,-0.183,10.2,19.7,18.2,310,513,0,,,,
R,,7229612.0,-0.028,0.757,-0.256,19.4,22.6,24.9,303,472,0,,,,
R,,7229673.0,-0.259,1.439,-0.64,23.5,23.5,26.2,319,488,0,,,,
R,,7229732.0,-0.606,1.8,-0.411,26.2,5.2,25.2,256,505,0,,,,
R,,7229791.0,-1.088,1.778,0.353,18.0,-11.1,15.9,248,537,0,,,,
R,,7229852.0,-0.77,1.469,0.626,-6.4,9.3,-16.7,469,599,0,,,,
R,,7229912.0,0.437,1.271,0.368,-13.7,9.4,-16.7,640,756,0,,,,
R,,7229972.0,0.151,0.914,-0.273,-3.7,0.5,-6.5,675,792,0,,,,
R,,7230032.0,0.021,0.929,-0.192,-4.3,-1.6,-4.2,703,831,0,,,,
R,,7230092.0,0.107,1.002,-0.268,-1.7,-0.5,-3.9,710,838,0,,,,
R,,7230182.0,0.064,0.996,-0.231,-2.5,-2.4,-2.7,716,849,0,,,,
R,,7230242.0,-0.021,0.969,-0.23,-3.0,-2.5,-2.1,718,859,0,,,,
R,,7230302.0,-0.115,1.049,-0.193,-5.1,-2.6,-1.5,718,866,0,,,,
R,,7230364.0,0.158,1.037,-0.149,-5.6,-2.4,-3.7,688,877,0,,,,
R,,7230421.0,-0.124,1.188,-0.134,-10.3,-4.5,-4.7,568,888,0,,,,
R,,7230482.0,0.039,1.199,-0.103,-14.4,-3.4,-8.2,238,895,0,,,,
R,,7230541.0,0.055,1.45,-0.134,-16.4,-0.9,-10.7,116,880,0,,,,
R,,7230602.0,0.16,1.825,-0.344,-18.0,-1.2,-17.8,113,844,0,,,,
R,,7230662.0,0.044,0.38,-0.217,-14.0,-3.4,-3.2,244,475,0,,,,
R,,7230722.0,0.337,0.01,-0.709,0.2,5.7,6.3,316,544,0,,,,
R,,7230782.0,0.221,0.246,-0.103,13.6,12.8,17.7,346,554,0,,,,
R,,7230842.0,-0.098,0.772,-0.252,23.9,16.8,25.7,336,550,0,,,,
R,,7230902.0,-0.11,1.355,-0.4,24.7,18.5,26.3,342,536,0,,,,
R,,7230961.0,-0.463,1.933,-0.361,26.8,14.6,24.8,287,548,0,,,,
R,,7231022.0,-1.242,1.681,-0.041,18.3,0.3,14.9,255,565,0,,,,
R,,7231083.0,-0.507,1.489,0.253,-5.3,3.5,-6.8,275,598,0,,,,
R,,7231142.0,1.054,1.453,-0.447,-1.0,5.3,-17.9,599,714,0,,,,
R,,7231202.0,-0.162,1.088,0.39,-9.4,0.5,-10.7,659,775,0,,,,
R,,7231262.0,0.042,0.985,-0.194,-3.0,0.4,-6.6,685,809,0,,,,
R,,7231322.0,0.258,0.999,-0.218,-2.9,-0.2,-5.5,712,837,0,,,,
R,,7231382.0,0.031,0.995,-0.248,-4.3,-0.6,-3.7,714,856,0,,,,
R,,7231442.0,0.067,1.015,-0.151,-3.4,-2.4,-3.4,701,869,0,,,,
R,,7231501.0,-0.03,0.967,-0.113,-3.7,-1.9,-2.7,656,880,0,,,,
R,,7231562.0,-0.175,0.932,-0.018,-3.4,0.3,-1.4,619,886,0,,,,
R,,7231652.0,0.057,1.022,-0.084,-2.9,-1.3,-1.3,567,890,0,,,,
R,,7231711.0,0.037,1.139,-0.071,-7.4,-0.6,-3.7,507,895,0,,,,
R,,7231772.0,-0.037,1.195,-0.06,-11.3,-0.6,-4.7,309,894,0,,,,
R,,7231833.0,0.092,1.391,-0.151,-15.7,-1.2,-6.3,122,887,0,,,,
R,,7231892.0,0.199,1.556,-0.275,-18.2,-0.2,-12.6,65,859,0,,,,
R,,7231952.0,0.145,0.899,-0.885,-19.7,-5.3,-10.5,95,717,0,,,,
R,,7232012.0,0.336,0.595,-0.697,-3.9,18.5,3.3,201,450,0,,,,
R,,7232072.0,-0.045,0.238,-0.279,7.6,16.5,14.9,281,474,0,,,,
R,,7232132.0,0.033,0.654,-0.118,19.6,16.3,23.5,288,420,0,,,,
R,,7232192.0,-0.156,1.309,-0.502,26.9,22.6,25.7,270,427,0,,,,
R,,7232251.0,-0.65,1.879,-0.521,26.1,12.5,25.0,221,456,0,,,,
R,,7232342.0,-0.469,1.881,0.954,9.1,-17.7,10.0,196,537,0,,,,
R,,7232402.0,-0.858,1.027,0.426,-7.5,4.7,-16.1,494,609,0,,,,
R,,7232461.0,0.141,1.062,-0.409,-8.8,6.4,-15.2,635,755,0,,,,
R,,7232524.0,-0.05,0.974,-0.078,-3.1,-1.6,-4.9,665,785,0,,,,
R,,7232582.0,0.033,0.865,-0.229,-4.9,-2.1,-3.9,687,814,0,,,,
R,,7232642.0,0.014,0.971,-0.281,-1.3,-1.2,-2.6,698,828,0,,,,
R,,7232702.0,0.065,0.955,-0.26,-1.8,-2.3,-1.4,696,831,0,,,,
R,,7232762.0,-0.629,0.922,-0.615,-3.3,-1.0,0.0,693,838,0,,,,
R,,7232822.0,-0.019,1.105,-0.249,-3.6,-0.5,-2.6,705,850,0,,,,
R,,7232882.0,-0.109,1.062,-0.263,-6.9,-2.6,-2.3,705,858,0,,,,
R,,7232942.0,-0.012,1.056,-0.143,-7.9,-4.7,-3.3,676,873,0,,,,
R,,7233001.0,-0.042,1.203,-0.087,-12.1,-5.7,-5.2,472,890,0,,,,
R,,7233092.0,0.162,1.555,-0.307,-17.7,0.2,-10.7,136,890,0,,,,
R,,7233182.0,-0.08,1.353,-0.754,-14.2,0.2,-18.5,87,761,0,,,,
R,,7233242.0,-0.343,0.375,0.122,-11.7,14.4,-4.3,313,478,0,,,,
R,,7233303.0,0.028,0.429,-0.153,2.9,13.6,15.6,313,505,0,,,,
R,,7233362.0,-0.003,0.639,-0.279,15.4,19.8,25.3,320,478,0,,,,
R,,7233422.0,-0.297,1.308,-0.487,20.8,22.2,25.6,326,481,0,,,,
R,,7233482.0,-0.598,1.624,-0.57,24.0,14.3,25.2,312,491,0,,,,
R,,7233541.0,-0.737,1.849,-0.198,24.2,1.0,21.4,271,520,0,,,,
R,,7233602.0,-0.531,1.879,1.227,6.4,2.1,0.0,307,571,0,,,,
R,,7233662.0,0.649,0.673,-1.268,2.1,3.1,-14.9,592,701,0,,,,
R,,7233722.0,0.048,1.059,0.182,-6.4,1.7,-12.2,653,767,0,,,,
R,,7233782.0,0.067,0.893,-0.23,-1.2,3.4,-6.8,669,788,0,,,,
R,,7233842.0,0.253,1.001,-0.167,-2.8,-0.7,-4.4,687,810,0,,,,
R,,7233902.0,-0.002,0.978,-0.328,-1.4,-1.0,-2.7,700,827,0,,,,
R,,7233962.0,0.139,0.993,-0.247,-1.8,-2.3,-2.7,693,831,0,,,,
R,,7234024.0,0.135,0.953,-0.215,-5.2,-4.1,-1.7,682,838,0,,,,
R,,7234082.0,0.048,0.95,-0.202,-2.9,-2.1,-2.0,668,845,0,,,,
R,,7234142.0,0.041,0.974,-0.238,-3.8,-1.8,-2.7,656,849,0,,,,
R,,7234202.0,-0.111,1.122,-0.201,-7.9,-4.2,-4.0,625,866,0,,,,
R,,7234262.0,-0.005,1.152,-0.028,-9.8,-4.3,-4.7,522,883,0,,,,
R,,7234322.0,0.045,1.35,-0.217,-14.3,-2.0,-7.0,204,895,0,,,,
R,,7234382.0,0.266,1.429,-0.209,-19.2,0.2,-12.7,106,873,0,,,,
R,,7234442.0,-0.119,1.646,-0.798,-19.7,-2.8,-17.5,76,832,0,,,,
R,,7234532.0,0.447,0.589,-0.319,-1.5,-0.3,0.8,303,493,0,,,,
R,,7234592.0,0.359,0.329,-0.01,13.7,11.7,13.2,313,501,0,,,,
R,,7234652.0,-0.061,0.807,-0.086,24.7,17.5,21.3,301,471,0,,,,
R,,7234713.0,-0.274,1.24,-0.301,28.3,10.5,23.9,313,475,0,,,,
R,,7234772.0,-0.279,1.602,-0.166,26.5,-5.0,23.7,331,494,0,,,,
R,,7234832.0,-0.188,1.6,0.099,18.3,-15.6,18.9,329,518,0,,,,
R,,7234892.0,-0.115,1.658,0.779,2.5,-9.0,2.8,333,571,0,,,,
R,,7234952.0,-0.047,0.637,-1.187,-11.3,-2.5,-10.5,526,637,0,,,,
R,,7235012.0,0.317,1.132,-0.286,-8.8,9.2,-15.4,624,741,0,,,,
R,,7235072.0,0.171,1.002,-0.321,-3.9,-1.4,-6.9,660,779,0,,,,
R,,7235132.0,-0.024,0.884,-0.348,-6.6,-1.5,-2.1,682,804,0,,,,
R,,7235192.0,0.079,0.956,-0.304,-3.3,0.5,-3.3,704,828,0,,,,
R,,7235252.0,0.306,1.202,0.017,-8.3,-1.2,-5.3,710,838,0,,,,
R,,7235312.0,0.009,1.003,-0.195,-5.0,-3.2,-2.8,718,850,0,,,,
R,,7235372.0,-0.009,0.995,-0.205,-3.8,-2.1,-1.3,718,863,0,,,,
R,,7235433.0,-0.051,0.998,-0.206,-4.4,-2.7,-2.9,697,873,0,,,,
R,,7235492.0,-0.112,1.007,-0.233,-5.7,-3.2,-3.7,652,878,0,,,,
R,,7235552.0,0.018,1.081,-0.04,-7.7,-3.4,-3.4,550,887,0,,,,
R,,7235612.0,-0.076,1.216,-0.161,-11.1,-3.4,-4.9,295,895,0,,,,
R,,7235672.0,0.358,1.201,0.02,-14.8,-5.0,-6.9,186,890,0,,,,
R,,7235732.0,0.073,1.506,-0.235,-15.4,-2.1,-14.4,103,845,0,,,,
R,,7235792.0,0.012,1.203,-0.557,-14.3,-3.4,-11.9,105,705,0,,,,
R,,7235852.0,0.153,0.926,0.037,-8.6,-2.5,-4.6,336,516,0,,,,
R,,7235912.0,0.132,0.363,0.009,6.5,8.7,12.2,326,512,0,,,,
R,,7235972.0,-0.008,0.715,-0.213,16.4,18.3,23.9,323,479,0,,,,
R,,7236032.0,-0.566,1.42,-0.391,22.1,28.8,24.3,317,474,0,,,,
R,,7236092.0,-0.517,1.556,-0.614,20.5,20.2,21.6,339,497,0,,,,
R,,7236154.0,-0.697,1.503,-0.349,23.4,3.1,18.8,352,514,0,,,,
R,,7236212.0,-0.576,1.612,0.226,15.0,-3.6,8.0,342,545,0,,,,
R,,7236302.0,0.431,0.996,-0.406,-4.8,12.1,-17.9,571,690,0,,,,
R,,7236362.0,-0.115,1.116,0.008,-3.5,1.8,-15.3,652,769,0,,,,
R,,7236422.0,0.3,1.001,-0.284,-6.2,-1.8,-2.9,672,793,0,,,,
R,,7236482.0,0.3,1.017,-0.24,-2.5,1.5,-5.3,696,826,0,,,,
R,,7236542.0,-0.094,0.982,-0.305,-3.9,-1.1,-3.7,709,845,0,,,,
R,,7236602.0,0.038,1.009,-0.148,-3.5,-1.6,-3.3,710,860,0,,,,
R,,7236662.0,-0.046,0.914,-0.198,-3.1,-1.1,-2.2,696,870,0,,,,
R,,7236722.0,0.092,1.025,-0.193,-3.8,-1.8,-2.0,699,875,0,,,,
R,,7236782.0,-0.076,1.092,-0.12,-1.2,0.8,-4.5,679,878,0,,,,
R,,7236843.0,0.026,1.081,-0.185,-6.9,-4.5,-2.8,589,884,0,,,,
R,,7236902.0,0.059,1.16,-0.01,-10.0,-3.9,-4.2,482,890,0,,,,
R,,7236962.0,0.028,1.168,-0.116,-12.5,-0.8,-6.2,225,898,0,,,,
R,,7237022.0,0.068,1.34,-0.2,-15.5,0.2,-8.8,103,884,0,,,,
R,,7237083.0,0.09,1.636,-0.203,-16.4,1.1,-14.6,97,845,0,,,,
R,,7237142.0,0.122,0.419,-0.543,-16.9,-2.3,-4.9,136,622,0,,,,
R,,7237202.0,0.368,0.297,-0.555,-4.6,17.0,7.0,286,514,0,,,,
R,,7237262.0,-0.211,0.413,-0.179,8.5,17.5,18.5,310,510,0,,,,
R,,7237322.0,0.111,0.851,-0.217,18.4,17.4,27.5,321,478,0,,,,
R,,7237382.0,-0.211,1.366,-0.734,24.7,28.5,25.4,340,485,0,,,,
R,,7237442.0,-0.862,1.651,-1.002,26.4,21.0,20.1,312,491,0,,,,
R,,7237502.0,-0.76,1.535,-0.326,23.7,-7.8,19.5,266,552,0,,,,
R,,7237564.0,-0.509,1.701,0.966,1.1,3.7,-4.5,268,584,0,,,,
R,,7237623.0,1.472,1.149,-0.765,-0.5,9.0,-15.7,581,695,0,,,,
R,,7237682.0,0.274,1.135,0.234,-5.8,1.6,-12.3,649,769,0,,,,
R,,7237742.0,0.01,0.806,-0.417,-2.6,1.6,-5.3,675,799,0,,,,
R,,7237802.0,0.261,1.002,-0.183,-2.2,0.0,-5.1,692,819,0,,,,
R,,7237862.0,0.056,0.952,-0.331,-3.6,-0.4,-3.6,700,832,0,,,,
R,,7237922.0,-0.554,1.331,0.121,-9.4,-6.4,-7.1,710,848,0,,,,
R,,7237982.0,0.034,0.992,-0.147,-4.3,-0.2,-2.3,711,863,0,,,,
R,,7238042.0,0.063,1.045,-0.075,-4.9,-0.7,-2.4,699,873,0,,,,
R,,7238102.0,-0.001,1.065,-0.169,-6.9,-1.1,-3.3,634,886,0,,,,
R,,7238163.0,0.125,1.138,-0.045,-11.1,-1.5,-5.3,487,892,0,,,,
R,,7238224.0,0.154,1.286,-0.103,-14.2,-1.3,-6.8,279,886,0,,,,
R,,7238282.0,0.036,1.481,-0.35,-19.0,-2.5,-9.9,77,856,0,,,,
R,,7238342.0,0.034,1.621,-0.684,-17.3,-7.7,-11.4,102,815,0,,,,
R,,7238402.0,-0.493,0.755,0.893,-10.8,-1.6,-4.3,276,377,0,,,,
R,,7238462.0,-0.028,0.419,-0.282,1.0,20.5,5.8,316,452,0,,,,
R,,7238522.0,0.101,0.509,0.042,15.3,10.1,16.0,324,440,0,,,,
R,,7238583.0,0.051,0.924,-0.236,23.4,21.1,21.2,317,443,0,,,,
R,,7238642.0,-0.121,1.427,-0.237,25.5,19.5,21.3,330,453,0,,,,
R,,7238703.0,-0.39,1.606,-0.364,23.1,10.1,21.9,314,448,0,,,,
R,,7238762.0,-0.505,1.509,-0.156,19.5,-5.0,16.6,337,471,0,,,,
R,,7238822.0,-0.042,1.409,0.328,7.1,-3.6,5.3,368,545,0,,,,
R,,7238882.0,0.084,0.982,0.062,-0.2,4.5,-4.7,382,573,0,,,,
R,,7238944.0,0.114,0.495,-0.867,-3.3,8.6,-13.1,558,673,0,,,,
R,,7239002.0,0.436,1.138,-0.182,-6.1,4.5,-17.9,639,755,0,,,,
R,,7239062.0,-0.058,1.022,-0.324,-4.2,-0.8,-10.7,656,774,0,,,,
R,,7239123.0,0.247,0.891,-0.328,-5.8,1.9,-5.4,672,790,0,,,,
R,,7239182.0,0.012,0.915,-0.371,-3.3,0.2,-4.9,694,819,0,,,,
R,,7239242.0,0.082,1.01,-0.23,-3.6,-2.3,-3.9,705,835,0,,,,
R,,7239302.0,0.426,0.882,0.152,-3.9,-1.3,-6.3,706,851,0,,,,
R,,7239392.0,-0.084,1.03,-0.176,-3.8,-3.6,-3.1,691,872,0,,,,
R,,7239453.0,-0.019,1.003,-0.225,-4.6,-3.8,-3.3,661,878,0,,,,
R,,7239512.0,0.016,1.03,-0.19,-6.4,-3.6,-4.1,565,884,0,,,,
R,,7239572.0,0.022,1.158,0.102,-8.9,-4.2,-6.2,390,890,0,,,,
R,,7239632.0,0.022,1.289,-0.075,-12.8,-2.8,-8.3,182,894,0,,,,
R,,7239694.0,0.278,1.48,-0.02,-14.3,-1.5,-12.0,89,879,0,,,,
R,,7239752.0,0.203,1.642,-0.435,-17.6,-3.3,-15.8,95,860,0,,,,
R,,7239812.0,-0.028,0.562,-0.373,-10.2,-4.1,-2.3,214,419,0,,,,
R,,7239873.0,-0.063,0.245,-0.691,2.1,-0.1,9.2,276,468,0,,,,
R,,7239932.0,0.119,0.346,-0.032,10.2,-2.5,18.2,297,445,0,,,,
R,,7239993.0,-0.04,0.64,-0.102,22.3,10.9,19.7,308,459,0,,,,
R,,7240052.0,-0.125,1.171,-0.128,26.2,10.5,21.5,327,472,0,,,,
R,,7240112.0,-0.198,1.448,-0.198,26.7,12.5,20.2,344,492,0,,,,
R,,7240172.0,-0.317,1.77,-0.225,26.5,13.3,18.2,349,501,0,,,,
R,,7240232.0,-1.024,1.672,0.128,18.3,1.9,9.4,319,533,0,,,,
R,,7240292.0,-0.874,1.194,0.279,-8.3,11.9,-15.1,436,573,0,,,,
R,,7240354.0,0.162,0.899,0.1,-10.9,14.4,-19.3,618,730,0,,,,
R,,7240413.0,-0.747,1.202,-0.275,1.2,2.2,-11.2,657,776,0,,,,
R,,7240472.0,0.064,0.986,-0.417,-6.6,0.0,-5.9,684,809,0,,,,
R,,7240532.0,0.096,1.036,-0.223,-3.0,-0.8,-4.5,698,830,0,,,,
R,,7240592.0,0.046,0.973,-0.182,-3.4,-3.3,-3.1,708,847,0,,,,
R,,7240652.0,0.222,1.118,-0.148,-1.7,-1.2,-1.6,701,861,0,,,,
R,,7240712.0,-0.209,1.171,-0.319,-4.8,-2.2,-2.1,681,876,0,,,,
R,,7240772.0,0.026,1.066,-0.122,-5.2,-2.3,-3.1,610,884,0,,,,
R,,7240833.0,-0.013,1.036,-0.105,-6.2,-2.1,-3.5,532,886,0,,,,
R,,7240892.0,-0.046,1.177,-0.016,-8.3,0.4,-4.9,395,887,0,,,,
R,,7240953.0,0.008,1.219,-0.002,-11.7,0.2,-6.0,148,879,0,,,,
R,,7241012.0,0.01,1.13,-0.057,-12.5,0.2,-7.5,103,873,0,,,,
R,,7241104.0,0.054,1.55,-0.255,-14.2,-3.3,-13.1,108,875,0,,,,
R,,7241163.0,-0.151,0.798,-0.31,-16.2,-0.5,-3.6,101,565,0,,,,
R,,7241222.0,-0.078,0.778,-0.494,-5.0,11.8,5.8,125,518,0,,,,
R,,7241283.0,-0.105,0.442,-0.103,3.3,3.9,10.9,218,498,0,,,,
R,,7241342.0,-0.026,0.673,-0.006,13.3,11.1,17.3,291,450,0,,,,
R,,7241402.0,-0.167,1.004,-0.124,21.5,21.2,19.7,255,426,0,,,,
R,,7241461.0,-0.385,1.235,-0.484,21.5,26.2,20.0,260,440,0,,,,
R,,7241522.0,-0.619,1.293,-0.712,24.7,18.3,17.4,255,473,0,,,,
R,,7241583.0,-0.699,1.542,-0.363,22.4,0.0,18.7,241,492,0,,,,
R,,7241642.0,-0.328,1.563,0.61,12.0,-2.3,6.9,275,522,0,,,,
R,,7241703.0,-0.477,1.58,0.648,-4.7,11.6,-15.7,415,542,0,,,,
R,,7241762.0,0.195,1.249,0.354,-11.6,13.2,-17.3,635,752,0,,,,
R,,7241824.0,0.123,1.053,-0.237,-3.1,3.4,-8.7,665,785,0,,,,
R,,7241882.0,0.193,0.943,-0.374,-6.7,-0.8,-5.7,684,812,0,,,,
R,,7241942.0,0.047,0.976,-0.233,-2.9,0.4,-4.6,699,834,0,,,,
R,,7242002.0,0.53,1.809,-0.664,-4.2,-5.1,-9.8,708,857,0,,,,
R,,7242062.0,-0.037,0.924,-0.196,-1.3,0.1,-3.1,698,870,0,,,,
R,,7242123.0,0.052,0.973,-0.138,-3.3,-1.6,-2.6,677,879,0,,,,
R,,7242182.0,-0.026,1.034,-0.087,-3.7,-2.1,-1.8,624,886,0,,,,
R,,7242243.0,0.032,1.031,-0.034,-5.6,-0.9,-3.7,571,889,0,,,,
R,,7242302.0,-0.292,1.218,-0.102,-6.3,0.9,-5.2,498,893,0,,,,
R,,7242392.0,0.102,1.275,-0.032,-13.3,-1.7,-5.9,163,891,0,,,,
R,,7242453.0,0.168,1.395,-0.223,-15.7,-0.2,-9.7,69,873,0,,,,
R,,7242514.0,-0.021,1.486,-0.518,-17.9,-3.7,-14.6,101,833,0,,,,
R,,7242573.0,-0.68,1.775,-0.986,-3.4,-8.2,-10.4,235,378,0,,,,
R,,7242632.0,0.171,0.418,-0.294,-0.3,2.3,8.7,258,484,0,,,,
R,,7242692.0,0.169,0.325,0.002,14.5,10.4,15.3,269,448,0,,,,
R,,7242751.0,0.005,0.843,-0.141,24.5,17.2,20.8,282,434,0,,,,
R,,7242812.0,-0.18,1.321,-0.35,27.6,23.7,22.3,314,461,0,,,,
R,,7242873.0,-0.488,1.942,-0.353,27.6,15.9,22.0,293,487,0,,,,
R,,7242932.0,-1.147,1.673,-0.159,22.3,6.2,14.0,281,509,0,,,,
R,,7242993.0,-0.262,1.605,0.648,0.6,11.0,-3.4,299,557,0,,,,
R,,7243052.0,0.368,0.725,-0.57,-1.5,28.6,-21.7,550,669,0,,,,
R,,7243112.0,0.349,1.447,0.173,-6.9,7.0,-9.4,646,760,0,,,,
R,,7243172.0,0.122,0.806,-0.277,1.3,0.7,-8.3,661,783,0,,,,
R,,7243264.0,0.22,0.975,-0.149,-2.1,0.9,-5.6,685,808,0,,,,
R,,7243352.0,0.098,0.959,-0.148,-1.0,-1.1,-3.0,697,828,0,,,,
R,,7243413.0,0.045,1.002,-0.224,-2.4,-1.4,-2.4,704,836,0,,,,
R,,7243472.0,0.04,0.972,-0.221,-2.1,-0.6,-1.8,709,844,0,,,,
R,,7243533.0,0.136,0.986,-0.238,-4.9,-2.2,-2.7,710,850,0,,,,
R,,7243592.0,-0.018,1.051,-0.191,-7.1,-2.4,-5.2,703,863,0,,,,
R,,7243652.0,0.055,1.111,-0.05,-9.9,-4.1,-4.7,628,880,0,,,,
R,,7243712.0,-0.306,1.302,-0.174,-14.0,-4.6,-5.6,339,896,0,,,,
R,,7243772.0,0.211,1.4,-0.092,-17.2,-1.7,-9.0,102,888,0,,,,
R,,7243833.0,0.122,1.513,-0.348,-18.4,1.8,-15.5,74,863,0,,,,
R,,7243892.0,0.048,0.016,-0.909,-14.1,-2.5,-7.3,87,698,0,,,,
R,,7243953.0,0.242,0.13,-0.802,0.2,12.5,7.7,284,499,0,,,,
R,,7244014.0,-0.098,0.286,-0.397,13.8,13.3,19.2,277,470,0,,,,
R,,7244073.0,-0.067,0.805,-0.265,20.3,15.1,24.9,274,448,0,,,,
R,,7244132.0,-0.183,1.201,-0.508,26.4,19.6,23.7,291,466,0,,,,
R,,7244192.0,-0.568,1.552,-0.427,27.9,12.9,23.8,292,496,0,,,,
R,,7244252.0,-1.082,1.845,-0.019,21.8,6.0,16.6,249,525,0,,,,
R,,7244342.0,0.14,1.199,-0.727,-11.0,8.4,-21.7,571,688,0,,,,
R,,7244403.0,0.289,1.006,0.001,-5.0,7.3,-16.9,646,766,0,,,,
R,,7244462.0,-0.421,1.055,-0.262,-1.6,3.2,-5.9,671,794,0,,,,
R,,7244522.0,0.118,0.947,-0.181,-2.8,-2.3,-3.7,691,817,0,,,,
R,,7244582.0,0.013,1.022,-0.294,-3.7,-0.6,-3.0,699,828,0,,,,
R,,7244642.0,0.057,0.989,-0.252,-1.7,-2.9,-2.9,703,832,0,,,,
R,,7244704.0,-0.255,1.144,-0.424,-3.3,-1.9,-2.6,703,841,0,,,,
R,,7244762.0,0.05,0.957,-0.081,-4.7,-2.2,-2.9,709,855,0,,,,
R,,7244823.0,0.132,1.055,-0.142,-3.1,-2.5,-4.4,701,865,0,,,,
R,,7244882.0,0.151,1.006,-0.193,-8.6,-4.9,-4.3,648,881,0,,,,
R,,7244942.0,0.067,1.271,-0.105,-11.4,-4.5,-5.5,485,887,0,,,,
R,,7245002.0,0.124,1.325,-0.133,-15.4,-4.3,-8.8,202,895,0,,,,
R,,7245062.0,0.18,1.577,-0.345,-16.7,-0.9,-15.9,81,867,0,,,,
R,,7245123.0,0.303,1.42,-0.935,-12.4,-10.1,-17.8,101,777,0,,,,
R,,7245182.0,-0.096,0.401,0.029,-10.5,3.0,-5.6,322,490,0,,,,
R,,7245243.0,0.156,0.135,0.077,8.3,4.4,14.8,307,506,0,,,,
R,,7245302.0,-0.036,0.631,0.01,22.3,15.2,20.6,310,504,0,,,,
R,,7245363.0,-0.072,1.475,-0.107,29.7,11.5,23.3,301,485,0,,,,
R,,7245424.0,-0.37,1.351,-0.15,25.6,6.5,19.3,321,518,0,,,,
R,,7245482.0,-0.51,1.71,0.127,21.4,-0.7,17.5,292,543,0,,,,
R,,7245542.0,-0.601,1.656,0.641,9.0,-8.2,5.8,298,571,0,,,,
R,,7245602.0,-0.377,1.295,-0.062,-9.7,0.8,-18.1,530,655,0,,,,
R,,7245663.0,0.004,1.561,-0.053,-7.7,0.0,-15.4,644,760,0,,,,
R,,7245722.0,-0.142,0.901,-0.426,-3.4,1.0,-4.3,679,802,0,,,,
R,,7245783.0,0.187,0.953,-0.163,-6.5,-0.7,-3.9,701,831,0,,,,
R,,7245842.0,0.045,0.977,-0.261,-2.9,0.3,-3.4,714,846,0,,,,
R,,7245903.0,-0.013,0.971,-0.154,-2.5,-2.3,-1.9,720,855,0,,,,
R,,7245962.0,0.156,1.009,-0.259,-2.8,-3.1,-2.6,721,863,0,,,,
R,,7246022.0,0.053,0.946,-0.154,-2.7,-1.6,-0.8,722,867,0,,,,
R,,7246083.0,0.012,1.019,-0.223,-3.9,-2.8,-0.9,715,870,0,,,,
R,,7246142.0,0.001,1.042,-0.159,-6.5,-3.9,-2.2,694,876,0,,,,
R,,7246203.0,0.022,1.102,-0.128,-9.9,-6.2,-3.2,606,888,0,,,,
R,,7246262.0,-0.007,1.265,-0.049,-13.4,-4.1,-4.4,393,894,0,,,,
R,,7246323.0,0.056,1.489,-0.158,-16.6,-0.8,-7.2,133,891,0,,,,
R,,7246382.0,0.114,1.587,-0.326,-17.8,-0.6,-13.5,102,848,0,,,,
R,,7246443.0,-0.039,1.201,-0.639,-17.3,-3.0,-8.7,110,664,0,,,,
R,,7246502.0,0.311,0.63,-0.125,-7.4,6.1,3.5,273,464,0,,,,
R,,7246562.0,-0.033,0.252,-0.079,5.9,8.8,13.3,299,495,0,,,,
R,,7246653.0,-0.063,0.861,-0.251,21.8,21.1,23.2,284,461,0,,,,
R,,7246712.0,-0.4,1.259,-0.548,24.6,23.5,23.4,299,507,0,,,,
R,,7246772.0,-0.702,1.588,-0.478,25.1,15.6,21.5,302,516,0,,,,
R,,7246834.0,-0.941,1.597,-0.053,20.3,2.9,14.5,286,542,0,,,,
R,,7246892.0,-0.469,1.508,0.676,3.4,9.1,-4.4,301,568,0,,,,
R,,7246953.0,0.763,0.636,-1.043,-3.9,10.4,-15.5,545,675,0,,,,
R,,7247012.0,0.236,1.097,0.287,-9.6,8.4,-11.6,644,762,0,,,,
R,,7247073.0,0.071,0.734,-0.093,-1.0,2.5,-8.3,664,781,0,,,,
R,,7247132.0,0.06,0.995,-0.184,-3.2,2.4,-4.8,690,816,0,,,,
R,,7247193.0,0.072,0.99,-0.196,-2.1,0.3,-5.0,706,838,0,,,,
R,,7247252.0,-0.01,0.951,-0.183,-2.2,-2.3,-2.8,713,847,0,,,,
R,,7247312.0,0.601,0.852,-0.028,0.2,-0.4,-4.0,717,854,0,,,,
R,,7247373.0,0.044,1.061,-0.135,-3.1,-2.7,-0.3,717,866,0,,,,
R,,7247432.0,-0.092,1.024,-0.156,-3.6,-3.0,-1.2,711,870,0,,,,
R,,7247493.0,0.05,1.016,-0.162,-5.0,-2.8,-2.6,688,876,0,,,,
R,,7247554.0,-0.16,1.078,-0.116,-8.4,-4.3,-3.4,611,882,0,,,,
R,,7247613.0,0.048,1.228,-0.032,-10.1,-3.3,-4.4,477,891,0,,,,
R,,7247672.0,0.115,1.303,-0.041,-13.5,-0.9,-5.8,175,900,0,,,,
R,,7247733.0,0.212,1.435,-0.132,-16.6,0.4,-10.4,167,874,0,,,,
R,,7247792.0,0.104,1.775,-0.767,-20.0,-0.6,-13.6,121,827,0,,,,
R,,7247852.0,0.121,0.107,0.447,-9.6,-1.2,-17.1,288,479,0,,,,
R,,7247913.0,0.087,0.393,-0.31,-0.2,10.7,8.3,308,528,0,,,,
R,,7247972.0,-0.152,0.318,-0.183,10.5,12.2,19.5,322,521,0,,,,
R,,7248033.0,0.089,0.767,-0.151,20.4,18.4,25.4,312,488,0,,,,
R,,7248092.0,-0.333,1.189,-0.519,26.6,27.5,23.8,321,510,0,,,,
R,,7248153.0,-0.732,1.779,-0.709,27.1,18.3,22.6,316,524,0,,,,
R,,7248214.0,-0.955,1.759,0.008,21.5,-3.7,15.4,319,549,0,,,,
R,,7248273.0,-0.448,1.775,0.928,1.4,13.7,-7.4,317,574,0,,,,
R,,7248333.0,0.48,1.854,-0.619,-4.2,7.4,-20.3,591,710,0,,,,
R,,7248392.0,0.17,0.998,0.172,-5.9,5.9,-11.2,650,766,0,,,,
R,,7248453.0,0.03,0.963,-0.151,0.8,0.0,-5.7,674,798,0,,,,
R,,7248512.0,0.069,0.99,-0.29,-2.8,-0.2,-4.2,691,821,0,,,,
R,,7248573.0,0.0,1.02,-0.274,-1.8,0.3,-5.0,703,836,0,,,,
R,,7248632.0,0.048,0.96,-0.196,-2.3,-1.9,-3.4,707,846,0,,,,
R,,7248693.0,-0.137,0.842,-0.179,-3.2,-0.8,-1.0,705,853,0,,,,
R,,7248752.0,0.08,0.989,-0.088,-2.1,-1.4,-1.5,703,864,0,,,,
R,,7248813.0,0.04,1.069,-0.2,-4.0,-2.3,-1.6,690,866,0,,,,
R,,7248873.0,0.07,1.141,-0.108,-8.3,-2.8,-4.6,638,879,0,,,,
R,,7248934.0,0.103,1.184,-0.142,-11.2,-1.0,-6.7,462,890,0,,,,
R,,7248992.0,0.003,1.365,-0.116,-16.7,-3.1,-7.5,192,894,0,,,,
R,,7249052.0,0.152,1.42,-0.195,-17.6,1.8,-12.6,111,873,0,,,,
R,,7249142.0,-0.096,0.203,-0.497,-13.8,-3.5,-6.4,109,592,0,,,,
R,,7249203.0,0.111,0.548,-0.712,-5.5,9.4,1.2,299,516,0,,,,
R,,7249262.0,-0.011,0.105,-0.076,6.3,12.2,14.3,297,522,0,,,,
R,,7249323.0,0.031,0.569,-0.085,21.3,10.6,23.1,309,511,0,,,,
R,,7249382.0,-0.112,1.187,-0.294,27.7,14.4,24.1,309,505,0,,,,
R,,7249443.0,-0.429,1.443,-0.396,30.1,20.2,23.5,328,527,0,,,,
R,,7249502.0,-0.642,2.082,-0.151,24.5,11.5,18.9,312,543,0,,,,
R,,7249563.0,-0.562,1.85,0.962,8.2,-6.3,2.3,295,571,0,,,,
R,,7249623.0,0.793,1.012,-1.101,-5.6,3.0,-16.6,582,702,0,,,,
R,,7249684.0,-0.008,0.917,0.047,-7.6,4.9,-14.9,656,772,0,,,,
R,,7249743.0,-0.241,1.015,-0.391,-5.4,0.9,-7.1,678,801,0,,,,
R,,7249802.0,0.204,0.994,-0.101,-3.7,1.4,-6.1,707,839,0,,,,
R,,7249863.0,-0.091,1.053,-0.338,-6.1,-1.2,-3.6,715,859,0,,,,
R,,7249922.0,0.04,0.988,-0.124,-3.6,-1.2,-4.3,690,871,0,,,,
R,,7249983.0,-0.141,0.946,-0.207,-4.1,-1.1,-4.7,633,882,0,,,,
R,,7250042.0,-0.008,0.905,-0.099,-5.2,-1.6,-3.7,581,885,0,,,,
R,,7250103.0,-0.146,0.974,0.04,-5.7,-1.4,-3.2,530,884,0,,,,
R,,7250163.0,-0.09,0.937,-0.101,-3.3,-0.9,-3.1,467,879,0,,,,
R,,7250222.0,-0.031,0.987,-0.069,-5.8,-3.3,-3.1,337,884,0,,,,
R,,7250282.0,-0.098,1.112,-0.044,-7.1,-2.8,-4.1,211,887,0,,,,
R,,7250344.0,0.102,1.18,0.093,-11.0,-3.0,-5.6,127,886,0,,,,
R,,7250403.0,-0.008,1.274,-0.153,-13.1,0.5,-8.6,108,881,0,,,,
R,,7250462.0,0.009,1.533,-0.142,-18.1,-3.1,-11.1,111,870,0,,,,
R,,7250523.0,-0.06,0.692,-0.276,-17.9,3.0,-2.2,115,684,0,,,,
R,,7250583.0,0.172,0.704,-0.569,1.1,21.5,4.1,197,582,0,,,,
R,,7250642.0,-0.239,0.346,-0.361,4.8,11.4,16.7,237,572,0,,,,
R,,7250703.0,-0.102,0.829,-0.229,12.6,-0.5,27.5,283,524,0,,,,
R,,7250762.0,-0.106,1.461,0.173,17.2,14.2,21.4,308,491,0,,,,
R,,7250823.0,-0.311,1.411,-0.147,15.7,22.3,16.2,338,510,0,,,,
R,,7250882.0,-0.411,1.292,-0.333,17.2,19.7,13.7,330,541,0,,,,
R,,7250943.0,-0.285,1.443,-0.144,13.9,8.5,13.5,299,553,0,,,,
R,,7251002.0,-0.301,1.329,0.14,11.3,12.7,6.6,314,573,0,,,,
R,,7251064.0,-0.581,1.297,0.168,-0.2,13.9,-7.3,319,582,0,,,,
R,,7251123.0,0.656,0.953,-0.69,-1.3,1.7,-9.7,531,650,0,,,,
R,,7251182.0,0.08,1.284,-0.122,-3.8,2.7,-11.0,633,754,0,,,,
R,,7251243.0,0.246,0.912,-0.085,0.6,0.0,-7.7,651,773,0,,,,
R,,7251302.0,0.279,0.996,-0.159,-0.5,2.3,-5.8,672,797,0,,,,
R,,7251363.0,0.065,1.033,-0.164,1.9,2.4,-5.1,677,807,0,,,,
R,,7251422.0,0.046,0.983,-0.126,0.4,0.0,-4.4,691,826,0,,,,
R,,7251483.0,0.037,0.98,-0.171,-0.2,-0.9,-3.3,693,836,0,,,,
R,,7251542.0,-0.239,1.178,-0.312,1.4,3.4,-5.1,701,850,0,,,,
R,,7251603.0,0.123,1.023,0.003,-1.6,0.1,-3.7,705,860,0,,,,
R,,7251663.0,-0.041,1.007,-0.149,-0.8,-0.5,-2.3,710,868,0,,,,
R,,7251722.0,-0.044,1.037,-0.127,-1.7,-0.7,-2.4,706,870,0,,,,
R,,7251784.0,-0.074,0.987,-0.128,-1.4,-1.6,-1.5,697,872,0,,,,
R,,7251842.0,-0.043,1.019,-0.125,-2.5,-2.1,-1.9,694,872,0,,,,
R,,7251903.0,-0.045,0.994,-0.12,-3.2,-2.7,-2.1,669,876,0,,,,
R,,7251962.0,-0.066,1.091,-0.044,-5.5,-4.5,-2.8,580,883,0,,,,
R,,7252023.0,-0.045,1.199,-0.002,-8.5,-5.2,-3.9,433,887,0,,,,
R,,7252113.0,0.031,1.248,-0.027,-13.5,-2.9,-6.5,135,885,0,,,,
R,,7252172.0,0.101,1.423,-0.011,-13.2,0.3,-10.2,85,848,0,,,,
R,,7252233.0,-0.002,1.333,-0.44,-16.5,-2.4,-12.3,97,787,0,,,,
R,,7252292.0,-0.589,0.544,0.05,-12.0,-4.8,-4.8,248,414,0,,,,
R,,7252353.0,0.157,0.383,-0.119,6.7,1.9,8.5,284,489,0,,,,
R,,7252413.0,0.037,0.451,-0.097,14.1,10.9,17.2,294,443,0,,,,
R,,7252474.0,-0.064,0.987,-0.228,26.8,15.5,19.8,279,463,0,,,,
R,,7252533.0,-0.139,1.289,-0.407,24.8,15.6,22.8,300,482,0,,,,
R,,7252592.0,-0.307,1.818,-0.181,24.3,10.3,22.1,268,488,0,,,,
R,,7252653.0,-0.894,1.574,0.054,18.8,8.3,14.0,261,511,0,,,,
R,,7252712.0,-0.48,1.497,0.489,0.8,9.5,-4.2,275,539,0,,,,
R,,7252773.0,0.82,1.388,-0.342,-0.7,1.3,-13.7,569,693,0,,,,
R,,7252833.0,0.747,1.648,0.112,1.8,-2.4,-10.6,645,763,0,,,,
R,,7252893.0,0.081,0.934,-0.245,-0.3,1.5,-5.9,672,795,0,,,,
R,,7252953.0,0.159,0.931,-0.174,-1.5,-0.6,-3.4,686,813,0,,,,
R,,7253012.0,0.012,0.971,-0.268,0.2,0.4,-3.5,695,823,0,,,,
R,,7253073.0,0.125,0.98,-0.214,-1.0,-2.8,-1.3,699,828,0,,,,
R,,7253132.0,0.049,0.95,-0.37,-1.3,-2.0,-1.7,698,831,0,,,,
R,,7253194.0,0.396,1.176,-0.325,-3.3,1.5,-8.8,699,836,0,,,,
R,,7253252.0,0.021,0.975,-0.212,-4.0,-2.1,-1.4,704,842,0,,,,
R,,7253313.0,0.067,1.005,-0.208,-4.4,-3.2,-2.4,703,855,0,,,,
R,,7253373.0,0.058,1.053,-0.163,-5.4,-3.4,-2.8,688,867,0,,,,
R,,7253433.0,-0.062,1.032,-0.109,-7.8,-3.2,-3.4,617,880,0,,,,
R,,7253493.0,-0.089,1.24,0.003,-10.4,-2.6,-4.3,474,888,0,,,,
R,,7253552.0,0.004,1.176,-0.064,-11.8,-1.3,-5.9,182,893,0,,,,
R,,7253613.0,0.225,1.182,0.01,-14.2,1.9,-7.3,95,874,0,,,,
R,,7253671.0,0.142,1.53,-0.189,-17.0,0.8,-10.3,107,838,0,,,,
R,,7253733.0,-0.167,0.357,-0.356,-15.2,2.2,-7.1,184,516,0,,,,
R,,7253792.0,0.165,0.174,-0.598,-2.8,6.1,3.2,273,514,0,,,,
R,,7253854.0,-0.028,0.386,-0.147,8.0,9.2,15.3,291,501,0,,,,
R,,7253913.0,-0.01,0.797,-0.109,14.9,19.2,21.0,288,501,0,,,,
R,,7253973.0,-0.24,1.211,-0.436,18.3,31.2,22.1,300,504,0,,,,
R,,7254033.0,-0.498,1.413,-0.765,21.3,32.8,17.9,310,514,0,,,,
R,,7254092.0,-0.874,1.402,-0.744,20.9,13.8,16.7,303,527,0,,,,
R,,7254153.0,-0.449,1.523,0.001,18.5,-8.3,11.7,292,550,0,,,,
R,,7254212.0,-0.307,1.763,0.453,8.7,5.8,-2.4,325,571,0,,,,
R,,7254273.0,1.131,1.06,-1.102,-3.7,9.3,-13.3,575,694,0,,,,
R,,7254333.0,0.197,0.905,-0.121,-4.5,3.0,-11.0,640,760,0,,,,
R,,7254393.0,-0.035,0.932,-0.367,-1.3,2.1,-6.7,668,788,0,,,,
R,,7254453.0,0.138,0.992,-0.199,-2.0,0.6,-4.5,688,813,0,,,,
R,,7254513.0,0.049,0.96,-0.334,0.0,1.0,-3.7,695,821,0,,,,
R,,7254575.0,0.098,0.959,-0.258,-0.7,-1.1,-2.6,702,830,0,,,,
R,,7254632.0,-0.159,0.853,-0.26,-1.5,-1.7,-1.9,707,834,0,,,,
R,,7254692.0,-0.019,0.995,-0.247,-3.5,-1.8,-2.2,712,841,0,,,,
R,,7254752.0,0.008,1.002,-0.25,-4.4,-1.7,-2.6,716,849,0,,,,
R,,7254813.0,0.065,0.955,-0.211,-5.9,-2.4,-4.0,714,862,0,,,,
R,,7254873.0,-0.115,1.185,-0.284,-6.2,0.6,-7.5,669,874,0,,,,
R,,7254933.0,0.054,1.049,-0.29,-10.5,-5.3,-4.2,513,887,0,,,,
R,,7254993.0,-0.021,1.167,-0.046,-12.7,-3.7,-6.8,202,894,0,,,,
R,,7255052.0,0.042,1.414,-0.19,-15.6,-0.9,-8.0,104,874,0,,,,
R,,7255113.0,-0.034,1.47,-0.256,-14.1,-1.4,-15.0,100,826,0,,,,
R,,7255172.0,-0.135,0.262,-0.532,-13.3,-5.5,-7.6,186,520,0,,,,
R,,7255233.0,0.134,0.15,-0.639,-0.7,-2.7,2.5,292,496,0,,,,
R,,7255294.0,0.219,0.307,0.094,10.2,2.6,14.1,290,501,0,,,,
R,,7255353.0,-0.002,0.652,-0.006,19.7,16.9,18.7,324,505,0,,,,
R,,7255413.0,-0.249,1.247,-0.201,23.3,25.1,20.4,318,501,0,,,,
R,,7255473.0,-0.511,1.484,-0.499,23.1,26.1,17.6,340,526,0,,,,
R,,7255533.0,-0.697,1.521,-0.394,20.0,11.9,15.1,330,543,0,,,,
R,,7255592.0,-0.511,1.459,0.097,15.0,-5.0,9.6,322,557,0,,,,
R,,7255653.0,-0.137,1.799,0.181,3.9,6.3,-6.5,330,563,0,,,,
R,,7255712.0,0.775,0.99,-0.887,-2.5,5.6,-12.6,571,690,0,,,,
R,,7255773.0,0.139,1.183,-0.52,-5.2,5.0,-12.8,646,764,0,,,,
R,,7255833.0,0.029,0.921,-0.147,-0.8,0.9,-5.4,664,785,0,,,,
R,,7255893.0,0.203,0.974,-0.307,-2.0,0.0,-3.1,686,809,0,,,,
R,,7255955.0,0.053,0.967,-0.291,-1.1,0.2,-3.7,697,822,0,,,,
R,,7256013.0,0.063,1.021,-0.214,-2.7,-1.2,-2.6,709,835,0,,,,
R,,7256073.0,0.034,0.967,-0.257,-2.3,-1.1,-2.2,714,841,0,,,,
R,,7256132.0,0.031,0.957,-0.185,-2.3,-1.2,-1.8,717,846,0,,,,
R,,7256193.0,-0.308,1.068,-0.345,-2.4,0.3,-1.9,722,858,0,,,,
R,,7256252.0,-0.022,0.991,-0.183,-2.9,-2.4,-1.1,720,861,0,,,,
R,,7256313.0,0.013,0.993,-0.182,-3.9,-2.8,-1.6,714,866,0,,,,
R,,7256373.0,-0.06,1.015,-0.162,-4.9,-2.8,-2.6,693,873,0,,,,
R,,7256433.0,-0.081,1.085,-0.165,-7.0,-3.8,-2.4,649,880,0,,,,
R,,7256493.0,-0.011,1.106,-0.08,-8.9,-4.2,-3.2,548,889,0,,,,
R,,7256553.0,0.019,1.211,-0.024,-12.9,-4.2,-3.3,252,891,0,,,,
R,,7256613.0,0.068,1.351,-0.191,-14.1,-1.1,-7.2,110,878,0,,,,
R,,7256674.0,-0.044,1.487,-0.231,-17.7,-0.2,-12.5,129,826,0,,,,
R,,7256733.0,-0.322,0.884,-0.035,-12.0,-1.4,-7.3,136,597,0,,,,
R,,7256792.0,0.15,0.363,-0.191,-2.1,-1.0,2.4,283,532,0,,,,
R,,7256853.0,0.056,0.407,-0.005,8.0,-0.6,11.5,300,546,0,,,,
R,,7256913.0,-0.048,0.827,0.084,16.2,9.9,16.1,305,524,0,,,,
R,,7256973.0,-0.118,1.242,-0.072,17.4,20.7,14.5,307,527,0,,,,
R,,7257033.0,-0.311,1.211,-0.427,18.7,29.9,12.3,331,548,0,,,,
R,,7257093.0,-0.517,1.262,-0.596,18.7,25.1,10.6,326,559,0,,,,
R,,7257153.0,-0.622,1.235,-0.334,17.3,2.8,11.7,324,576,0,,,,
R,,7257212.0,-0.123,1.243,0.069,13.3,-9.5,8.4,327,586,0,,,,
R,,7257273.0,-0.022,1.202,0.343,4.4,1.3,-1.1,330,605,0,,,,
R,,7257333.0,0.386,1.49,-0.151,-1.5,7.4,-11.3,404,586,0,,,,
R,,7257394.0,0.518,1.134,-0.225,-5.5,2.7,-9.1,600,719,0,,,,
R,,7257453.0,-0.057,1.013,-0.177,-5.3,-2.1,-5.2,647,766,0,,,,
R,,7257513.0,-0.074,0.897,-0.405,-1.1,2.0,-4.9,662,781,0,,,,
R,,7257573.0,0.186,0.931,-0.236,-2.5,-2.1,-2.1,678,796,0,,,,
R,,7257633.0,-0.019,0.914,-0.406,-1.1,-0.3,-2.2,686,807,0,,,,
R,,7257693.0,0.057,0.966,-0.282,-1.1,-0.2,-1.8,691,815,0,,,,
R,,7257752.0,0.088,0.98,-0.354,-2.9,-0.7,-1.8,701,824,0,,,,
R,,7257812.0,-0.002,0.915,-0.297,-2.0,0.0,-0.8,711,840,0,,,,
R,,7257873.0,0.045,0.952,-0.225,-2.7,0.7,-2.1,717,847,0,,,,
R,,7257933.0,0.037,0.968,-0.234,-3.1,0.0,-2.0,727,857,0,,,,
R,,7257993.0,0.003,0.968,-0.188,-3.5,-1.4,-1.9,724,867,0,,,,
R,,7258054.0,-0.028,0.983,-0.17,-3.7,-1.5,-1.4,712,873,0,,,,
R,,7258113.0,-0.006,0.98,-0.123,-4.4,-1.6,-1.7,689,879,0,,,,
R,,7258172.0,-0.06,0.989,-0.084,-4.2,-1.7,-1.3,656,880,0,,,,
R,,7258233.0,0.016,0.975,-0.028,-4.6,-1.3,-1.0,616,884,0,,,,
R,,7258292.0,-0.014,1.018,-0.057,-4.8,-0.3,-0.9,581,885,0,,,,
R,,7258353.0,0.015,1.054,0.114,-6.8,-0.2,-0.4,500,890,0,,,,
R,,7258413.0,-0.033,1.162,-0.031,-8.7,0.0,-2.1,324,892,0,,,,
R,,7258473.0,0.095,1.331,-0.075,-12.7,0.9,-2.7,101,885,0,,,,
R,,7258533.0,-0.031,1.344,-0.213,-15.5,1.6,-6.4,138,856,0,,,,
R,,7258593.0,-0.016,1.598,-0.528,-19.7,2.2,-7.7,121,798,0,,,,
R,,7258653.0,-0.702,0.661,0.488,-11.2,8.4,-3.6,229,463,0,,,,
R,,7258712.0,-0.062,0.435,-0.241,0.8,16.1,8.2,261,524,0,,,,
R,,7258775.0,-0.089,0.632,-0.034,11.6,11.5,18.7,291,476,0,,,,
R,,7258833.0,0.061,1.109,-0.15,17.6,22.5,22.3,288,463,0,,,,
R,,7258893.0,-0.102,1.417,-0.392,17.7,40.0,17.2,274,471,0,,,,
R,,7258953.0,-0.851,1.472,-0.823,17.4,33.1,13.2,278,506,0,,,,
R,,7259013.0,-0.869,1.191,-0.568,17.9,2.9,11.7,302,538,0,,,,
R,,7259073.0,-0.1,1.203,-0.044,16.7,-14.0,8.6,286,558,0,,,,
R,,7259133.0,-0.044,1.249,0.439,12.1,-0.6,2.5,283,587,0,,,,
R,,7259193.0,-0.331,1.66,0.595,-3.0,5.8,-13.1,504,642,0,,,,
R,,7259252.0,0.106,1.155,0.085,-9.7,8.1,-14.7,637,754,0,,,,
R,,7259313.0,-0.476,1.291,-0.309,-1.3,3.1,-5.3,667,787,0,,,,
R,,7259373.0,0.154,0.937,-0.228,-5.8,1.3,-5.2,697,820,0,,,,
R,,7259433.0,-0.032,0.943,-0.353,-2.6,1.4,-4.8,709,836,0,,,,
R,,7259495.0,0.087,1.003,-0.204,-2.5,-1.1,-3.2,719,854,0,,,,
R,,7259553.0,-0.213,0.367,-0.296,-14.5,-6.2,-6.7,712,868,0,,,,
R,,7259613.0,-0.088,0.913,-0.171,-0.5,0.2,-2.1,711,878,0,,,,
R,,7259673.0,-0.07,1.013,-0.182,-1.2,-2.1,-0.8,705,878,0,,,,
R,,7259733.0,-0.091,1.075,-0.203,-3.5,-2.1,-2.1,698,881,0,,,,
R,,7259792.0,0.013,1.026,-0.124,-4.8,-1.1,-3.1,638,885,0,,,,
R,,7259853.0,0.0,0.968,-0.038,-4.5,-2.9,-3.2,568,888,0,,,,
R,,7259912.0,-0.026,1.081,-0.051,-6.5,-4.6,-2.6,450,896,0,,,,
R,,7260002.0,-0.054,1.141,-0.026,-9.4,-5.1,-2.6,184,892,0,,,,
R,,7260063.0,-0.18,1.247,-0.105,-8.9,-3.1,-5.8,109,877,0,,,,
R,,7260123.0,-0.32,1.102,-0.153,-9.2,-8.0,-7.9,100,834,0,,,,
R,,7260184.0,-0.223,1.266,-0.244,-10.4,-12.9,-10.4,88,760,0,,,,
R,,7260243.0,-0.362,0.681,0.089,-4.6,-18.4,-4.3,260,383,0,,,,
R,,7260303.0,0.342,0.534,-0.096,5.6,-6.6,2.7,290,500,0,,,,
R,,7260363.0,0.044,0.551,0.042,13.4,3.5,7.4,322,518,0,,,,
R,,7260423.0,0.194,0.956,-0.011,19.2,4.1,13.7,325,489,0,,,,
R,,7260483.0,0.131,1.092,-0.04,22.9,11.8,11.7,332,505,0,,,,
R,,7260542.0,0.081,1.373,-0.19,22.9,13.3,11.7,330,535,0,,,,
R,,7260603.0,-0.154,1.402,-0.291,20.3,12.1,12.0,300,541,0,,,,
R,,7260663.0,-0.19,1.37,-0.114,16.7,3.3,10.2,299,560,0,,,,
R,,7260723.0,-0.306,1.484,0.174,5.3,2.0,0.3,309,583,0,,,,
R,,7260783.0,0.154,1.919,-0.309,-2.1,8.2,-12.8,395,556,0,,,,
R,,7260843.0,0.537,1.447,0.306,-10.2,5.1,-11.0,628,750,0,,,,
R,,7260905.0,0.042,1.201,-0.175,-3.1,2.5,-7.7,666,787,0,,,,
R,,7260963.0,0.047,1.072,-0.355,-6.4,-0.4,-5.5,690,814,0,,,,
R,,7261053.0,0.571,0.995,-0.093,-1.9,-0.2,-5.5,711,843,0,,,,
R,,7261113.0,0.135,0.96,-0.219,-3.7,-3.9,-2.0,715,858,0,,,,
R,,7261173.0,-0.071,0.999,-0.242,-2.5,-1.3,-1.7,712,868,0,,,,
R,,7261233.0,-0.025,1.006,-0.172,-2.9,-0.1,-2.9,702,878,0,,,,
R,,7261292.0,-0.037,1.014,-0.135,-4.0,-2.0,-2.4,679,880,0,,,,
R,,7261353.0,-0.023,1.022,-0.057,-4.6,-2.4,-2.6,637,884,0,,,,
R,,7261413.0,-0.064,1.033,-0.111,-5.3,-1.0,-2.8,569,886,0,,,,
R,,7261473.0,-0.052,1.15,-0.015,-7.6,-2.2,-3.1,461,895,0,,,,
R,,7261533.0,-0.061,1.222,-0.068,-10.7,-2.5,-4.7,219,896,0,,,,
R,,7261594.0,0.078,1.245,-0.033,-14.0,-1.9,-7.0,138,885,0,,,,
R,,7261653.0,0.07,1.536,-0.229,-15.1,-0.6,-11.5,113,861,0,,,,
R,,7261713.0,0.062,1.385,-0.765,-19.5,-1.1,-9.6,100,760,0,,,,
R,,7261773.0,-0.008,0.652,-0.032,-10.2,2.9,-1.8,332,510,0,,,,
R,,7261833.0,0.07,0.308,-0.09,5.2,0.5,13.8,323,521,0,,,,
R,,7261893.0,-0.02,0.711,-0.016,18.3,11.3,19.8,316,495,0,,,,
R,,7261953.0,-0.128,1.272,-0.092,21.3,24.5,22.1,323,484,0,,,,
R,,7262013.0,-0.319,1.504,-0.548,20.7,34.9,16.8,333,510,0,,,,
R,,7262073.0,-0.714,1.381,-0.742,20.5,27.0,14.0,346,538,0,,,,
R,,7262133.0,-0.378,1.371,-0.275,18.4,-1.3,14.4,333,557,0,,,,
R,,7262193.0,-0.005,1.307,0.467,11.5,-3.5,7.5,339,588,0,,,,
R,,7262253.0,-0.097,1.562,0.192,-1.4,8.7,-10.0,332,584,0,,,,
R,,7262315.0,0.513,1.26,-0.125,-6.7,3.7,-14.4,602,721,0,,,,
R,,7262373.0,-0.073,0.739,-0.139,-4.6,0.0,-9.7,654,776,0,,,,
R,,7262433.0,0.057,0.928,-0.333,-0.6,0.7,-5.1,671,795,0,,,,
R,,7262493.0,0.198,0.97,-0.218,-0.6,-0.3,-3.7,686,811,0,,,,
R,,7262553.0,0.013,0.918,-0.387,-1.0,0.7,-3.1,697,823,0,,,,
R,,7262613.0,0.153,0.977,-0.305,-2.8,-0.3,-3.3,704,835,0,,,,
R,,7262673.0,0.052,0.871,-0.285,-2.9,0.0,-2.8,709,845,0,,,,
R,,7262733.0,0.043,0.997,-0.202,-2.5,0.3,-2.3,720,855,0,,,,
R,,7262793.0,0.019,1.075,-0.231,-2.3,2.2,-3.6,724,862,0,,,,
R,,7262853.0,0.045,0.991,-0.177,-4.9,-2.3,-1.3,724,870,0,,,,
R,,7262913.0,-0.072,1.092,-0.194,-4.7,-1.7,-1.8,721,873,0,,,,
R,,7262973.0,-0.011,1.038,-0.194,-6.1,-0.8,-2.7,696,878,0,,,,
R,,7263035.0,0.085,1.071,0.004,-9.3,-2.3,-2.8,578,888,0,,,,
R,,7263093.0,-0.006,1.184,0.071,-12.2,-2.2,-3.1,424,896,0,,,,
R,,7263153.0,0.041,1.237,-0.054,-13.4,0.4,-4.1,176,885,0,,,,
R,,7263213.0,-0.162,1.338,-0.271,-14.8,-0.4,-9.0,103,842,0,,,,
R,,7263273.0,-0.093,1.339,-0.619,-16.0,-5.6,-10.7,115,783,0,,,,
R,,7263333.0,-0.232,1.037,1.119,-6.6,-3.5,-4.1,223,434,0,,,,
R,,7263393.0,-0.065,0.643,-0.23,4.0,13.5,2.9,249,463,0,,,,
R,,7263453.0,0.044,0.563,-0.001,19.9,0.0,10.3,284,496,0,,,,
R,,7263513.0,0.343,0.966,0.082,26.7,0.0,15.2,294,518,0,,,,
R,,7263573.0,0.286,1.263,0.059,28.6,11.7,15.6,314,511,0,,,,
R,,7263674.0,-0.568,1.428,0.244,19.0,18.7,17.1,243,554,0,,,,
R,,7263695.0,-0.55,1.51,-0.042,19.0,14.1,14.5,236,527,0,,,,
R,,7263753.0,-0.6,1.431,0.323,1.4,0.4,1.0,247,581,0,,,,
R,,7263843.0,0.48,1.235,0.172,-2.3,-3.6,-10.0,570,687,0,,,,
R,,7263903.0,0.081,0.917,-0.092,-7.2,2.6,-11.6,641,758,0,,,,
R,,7263963.0,-0.033,0.855,-0.529,-5.2,1.3,-6.3,671,794,0,,,,
R,,7264023.0,0.252,0.976,-0.095,-4.4,-0.8,-4.9,697,825,0,,,,
R,,7264083.0,-0.098,0.96,-0.345,-3.8,-0.6,-3.7,714,847,0,,,,
R,,7264143.0,-0.185,0.975,-0.013,-5.3,-2.2,-2.7,718,863,0,,,,
R,,7264203.0,-0.254,0.915,-0.202,-3.0,-2.3,-2.1,709,874,0,,,,
R,,7264263.0,-0.025,1.024,-0.122,-1.8,-1.3,-1.4,692,880,0,,,,
R,,7264323.0,-0.054,1.024,-0.142,-3.8,-1.8,-1.7,660,883,0,,,,
R,,7264383.0,0.041,1.097,-0.11,-6.0,-2.2,-2.6,593,888,0,,,,
R,,7264445.0,-0.038,1.151,-0.034,-9.0,-1.2,-4.7,495,892,0,,,,
R,,7264503.0,0.018,1.171,-0.016,-12.1,-1.4,-5.3,210,895,0,,,,
R,,7264563.0,0.007,1.251,-0.095,-14.0,-2.0,-6.4,103,886,0,,,,
R,,7264624.0,0.073,1.493,-0.267,-15.2,-0.7,-9.8,95,856,0,,,,
R,,7264683.0,-0.213,0.956,-0.357,-15.4,-5.9,-8.3,94,714,0,,,,
R,,7264743.0,0.259,0.414,-0.184,-9.4,7.1,-2.2,243,412,0,,,,
R,,7264803.0,-0.136,0.325,-0.181,4.2,9.7,11.2,295,394,0,,,,
R,,7264863.0,0.117,0.724,0.077,16.0,15.6,17.3,295,424,0,,,,
R,,7264923.0,-0.225,1.122,-0.21,22.0,25.2,19.6,304,451,0,,,,
R,,7264983.0,-0.329,1.374,-0.453,23.6,28.3,17.2,314,477,0,,,,
R,,7265043.0,-0.69,1.463,-0.583,22.3,16.6,18.6,294,477,0,,,,
R,,7265103.0,-0.573,1.479,-0.211,19.9,-2.8,14.2,270,537,0,,,,
R,,7265165.0,-0.074,1.399,0.691,7.1,8.8,1.6,268,585,0,,,,
R,,7265223.0,-0.679,0.827,-0.043,-7.2,10.6,-16.3,475,608,0,,,,
R,,7265283.0,0.77,1.639,0.562,-3.7,-1.3,-13.7,622,740,0,,,,
R,,7265343.0,0.279,0.959,0.025,-2.8,-1.1,-8.5,651,773,0,,,,
R,,7265403.0,-0.141,0.985,-0.325,-1.5,0.9,-3.4,674,796,0,,,,
R,,7265463.0,0.252,0.915,-0.158,-0.9,0.3,-5.4,689,818,0,,,,
R,,7265523.0,0.105,0.973,-0.413,-3.0,-2.3,-3.6,701,835,0,,,,
R,,7265583.0,-0.08,1.022,-0.269,-5.2,-2.4,-3.7,683,865,0,,,,
R,,7265643.0,0.028,0.961,-0.13,-4.4,-3.4,-2.6,565,886,0,,,,
R,,7265704.0,-0.134,0.849,-0.119,-4.2,0.3,-2.5,462,891,0,,,,
R,,7265763.0,-0.012,0.924,-0.107,-4.0,-1.8,-1.4,420,895,0,,,,
R,,7265825.0,0.016,0.989,-0.019,-3.7,-0.4,-1.1,392,896,0,,,,
R,,7265882.0,0.028,1.057,-0.135,-4.7,0.9,-1.8,357,898,0,,,,
R,,7265943.0,0.04,1.087,0.022,-6.8,0.6,-1.7,306,897,0,,,,
R,,7266003.0,0.04,1.066,-0.005,-8.4,2.1,-2.2,196,892,0,,,,
R,,7266063.0,0.02,1.239,-0.055,-10.9,2.4,-2.8,161,883,0,,,,
R,,7266124.0,0.047,1.22,-0.091,-12.1,2.0,-3.8,146,867,0,,,,
R,,7266183.0,0.051,1.491,-0.038,-16.7,-3.6,-5.5,120,854,0,,,,
R,,7266243.0,-0.338,0.934,-0.079,-13.1,0.2,-3.8,116,493,0,,,,
R,,7266303.0,-0.17,0.75,-0.565,-3.2,36.6,0.3,187,377,0,,,,
R,,7266393.0,-0.051,0.618,0.108,12.6,1.3,17.7,252,437,0,,,,
R,,7266454.0,0.01,0.834,-0.005,24.3,7.8,18.8,261,394,0,,,,
R,,7266513.0,0.123,1.247,-0.024,29.1,12.1,15.3,298,425,0,,,,
R,,7266575.0,-0.379,1.558,-0.32,28.1,8.3,18.0,270,463,0,,,,
R,,7266633.0,-0.548,1.612,0.349,18.9,-0.4,16.3,331,519,0,,,,
R,,7266693.0,-0.115,1.753,0.594,5.2,-3.9,3.2,322,467,0,,,,
R,,7266753.0,0.218,0.995,-0.764,-11.1,-6.2,-13.0,551,662,0,,,,
R,,7266813.0,0.61,1.062,-0.238,-6.2,3.4,-16.0,636,758,0,,,,
R,,7266874.0,-0.084,0.957,-0.338,-3.5,1.2,-4.7,680,808,0,,,,
R,,7266933.0,0.129,0.866,-0.172,-5.4,-2.1,-3.6,705,836,0,,,,
R,,7266994.0,0.027,0.944,-0.316,-1.7,-0.6,-3.2,712,847,0,,,,
R,,7267053.0,0.052,0.951,-0.17,-2.1,-2.4,-1.8,715,859,0,,,,
R,,7267113.0,-0.271,0.722,-0.294,-3.8,-2.3,-1.5,716,866,0,,,,
R,,7267172.0,-0.001,1.007,-0.222,-2.8,-1.1,-0.8,713,873,0,,,,
R,,7267233.0,-0.019,0.979,-0.173,-3.3,-2.5,-1.3,698,877,0,,,,
R,,7267294.0,-0.042,1.03,-0.197,-5.2,-2.7,-2.3,672,883,0,,,,
R,,7267353.0,-0.04,1.028,-0.126,-7.2,-3.5,-2.5,600,888,0,,,,
R,,7267443.0,-0.009,1.164,-0.112,-10.2,-2.1,-3.8,343,897,0,,,,
R,,7267503.0,-0.029,1.23,-0.027,-14.0,-2.4,-4.8,174,890,0,,,,
R,,7267563.0,0.141,1.193,-0.028,-13.4,-1.0,-8.0,149,874,0,,,,
R,,7267624.0,-0.068,1.597,-0.469,-18.0,-6.7,-10.5,112,848,0,,,,
R,,7267683.0,-0.279,0.628,-0.05,-12.9,-3.8,-1.8,214,465,0,,,,
R,,7267744.0,0.194,0.15,-0.397,1.7,13.0,4.5,255,528,0,,,,
R,,7267803.0,-0.087,0.305,-0.081,14.4,13.3,13.1,304,534,0,,,,
R,,7267863.0,0.038,0.758,0.02,20.1,11.7,21.2,285,481,0,,,,
R,,7267923.0,-0.171,1.243,-0.17,24.9,17.0,19.0,294,519,0,,,,
R,,7267985.0,-0.224,1.553,-0.151,25.5,12.1,16.7,280,536,0,,,,
R,,7268043.0,-0.53,1.517,-0.307,22.2,-3.4,17.9,256,574,0,,,,
R,,7268103.0,0.087,1.586,0.492,12.9,-16.8,11.1,263,587,0,,,,
R,,7268164.0,-0.282,1.252,0.367,-5.7,-1.1,-7.3,284,608,0,,,,
R,,7268223.0,0.101,1.198,-0.93,0.7,-3.0,-11.4,571,683,0,,,,
R,,7268284.0,0.122,0.998,-0.17,-8.7,5.2,-11.8,642,759,0,,,,
R,,7268343.0,-0.02,0.996,-0.431,-1.6,2.7,-7.0,678,803,0,,,,
R,,7268403.0,0.123,0.971,-0.226,-4.7,-1.2,-2.2,704,832,0,,,,
R,,7268463.0,0.002,0.948,-0.304,-1.7,0.4,-3.2,714,844,0,,,,
R,,7268523.0,0.125,0.952,-0.218,-2.4,-2.7,-1.9,720,851,0,,,,
R,,7268583.0,-0.096,0.854,-0.316,-3.0,-3.9,-0.2,719,855,0,,,,
R,,7268643.0,0.048,0.995,-0.141,-3.0,-1.0,-1.0,724,864,0,,,,
R,,7268705.0,0.009,1.005,-0.206,-3.9,-2.9,-1.2,721,870,0,,,,
R,,7268763.0,-0.039,1.016,-0.198,-5.4,-3.1,-2.5,710,878,0,,,,
R,,7268824.0,-0.024,1.052,-0.151,-7.4,-3.1,-3.7,657,884,0,,,,
R,,7268883.0,-0.004,1.141,-0.093,-10.1,-3.0,-4.8,478,893,0,,,,
R,,7268943.0,0.021,1.179,-0.067,-13.9,-3.5,-6.0,232,895,0,,,,
R,,7269002.0,0.102,1.423,-0.192,-17.3,-1.3,-10.6,154,882,0,,,,
R,,7269063.0,-0.042,1.658,-0.307,-19.5,-4.1,-14.2,111,841,0,,,,
R,,7269153.0,-0.586,0.793,0.784,-13.9,1.7,-3.9,298,467,0,,,,
R,,7269213.0,-0.005,0.387,-0.044,4.0,4.4,12.0,312,523,0,,,,
R,,7269273.0,-0.022,0.659,-0.14,15.0,15.6,21.7,302,463,0,,,,
R,,7269333.0,-0.219,1.179,-0.375,22.6,24.7,23.8,307,467,0,,,,
R,,7269395.0,-0.452,1.483,-0.617,26.3,26.0,22.2,327,506,0,,,,
R,,7269454.0,-0.896,1.704,-0.637,26.3,11.9,20.1,324,519,0,,,,
R,,7269513.0,-0.838,1.799,0.347,19.6,-5.5,9.5,270,551,0,,,,
R,,7269574.0,-0.304,1.57,0.811,-5.4,8.3,-13.9,434,555,0,,,,
R,,7269633.0,-0.069,1.064,0.006,-5.6,22.8,-16.6,620,737,0,,,,
R,,7269693.0,-0.507,1.399,0.017,-3.5,4.8,-7.7,667,788,0,,,,
R,,7269753.0,0.18,0.933,-0.174,-4.9,1.2,-5.8,698,829,0,,,,
R,,7269813.0,0.106,0.97,-0.125,-2.8,1.9,-4.9,715,848,0,,,,
R,,7269874.0,0.061,1.001,-0.153,-3.0,-1.4,-3.0,722,864,0,,,,
R,,7269933.0,0.003,0.981,-0.129,-2.5,-0.7,-2.5,718,872,0,,,,
R,,7269994.0,0.012,0.981,-0.106,-1.9,-0.7,-1.4,709,876,0,,,,
R,,7270053.0,0.041,0.989,-0.094,-2.0,-0.4,-0.8,696,886,0,,,,
R,,7270115.0,-0.142,1.134,-0.01,-5.6,-2.4,0.9,665,891,0,,,,
R,,7270173.0,0.031,1.108,-0.053,-7.4,-1.8,-1.9,597,890,0,,,,
R,,7270233.0,0.069,1.16,0.055,-10.9,-1.3,-3.8,501,895,0,,,,
R,,7270292.0,0.009,1.22,-0.015,-12.4,-0.2,-2.9,293,894,0,,,,
R,,7270353.0,0.126,1.301,-0.159,-13.3,0.6,-4.9,89,876,0,,,,
R,,7270414.0,0.04,1.622,-0.226,-17.9,0.0,-8.5,100,856,0,,,,
R,,7270473.0,0.021,0.698,-0.202,-15.7,0.4,-2.8,66,638,0,,,,
R,,7270534.0,0.025,0.439,-0.752,-6.1,20.8,-0.9,209,582,0,,,,
R,,7270593.0,-0.205,0.35,-0.345,8.2,15.0,11.8,239,565,0,,,,
R,,7270653.0,0.05,0.806,-0.034,17.2,13.9,20.6,254,510,0,,,,
R,,7270713.0,-0.129,1.236,-0.265,22.0,27.3,19.4,262,485,0,,,,
R,,7270773.0,-0.466,1.454,-0.542,23.1,32.7,16.0,273,494,0,,,,
R,,7270834.0,-0.873,1.423,-0.467,17.9,10.5,16.8,250,534,0,,,,
R,,7270893.0,-0.427,1.509,-0.004,18.0,-10.5,12.8,257,585,0,,,,
R,,7270954.0,-0.309,1.506,0.675,2.9,-1.0,-0.4,255,612,0,,,,
R,,7271013.0,0.254,0.427,-0.599,-8.6,-1.4,-11.5,476,619,0,,,,
R,,7271074.0,0.389,1.179,0.043,-5.5,3.6,-12.1,613,734,0,,,,
R,,7271133.0,-0.132,0.944,-0.083,-2.8,-3.6,-5.1,656,774,0,,,,
R,,7271193.0,-0.171,0.944,-0.417,-2.6,0.9,-2.2,674,797,0,,,,
R,,7271253.0,0.219,0.999,-0.211,-0.7,0.6,-3.5,691,815,0,,,,
R,,7271313.0,-0.089,0.951,-0.307,-2.5,-1.3,-2.3,697,821,0,,,,
R,,7271374.0,0.177,0.979,-0.333,-3.6,-1.5,-3.2,704,830,0,,,,
R,,7271433.0,0.472,0.826,-0.22,-3.7,-2.4,-4.3,712,846,0,,,,
R,,7271495.0,0.011,0.978,-0.25,-6.2,-3.4,-3.0,705,861,0,,,,
R,,7271553.0,-0.081,0.888,-0.2,-5.7,-3.6,-2.6,676,874,0,,,,
R,,7271614.0,-0.076,1.122,-0.152,-6.9,-4.1,-3.4,591,884,0,,,,
R,,7271673.0,0.0,1.093,-0.058,-7.2,-2.9,-3.3,454,895,0,,,,
R,,7271733.0,-0.192,1.228,-0.048,-12.3,-4.2,-6.0,274,895,0,,,,
R,,7271793.0,0.098,1.269,0.039,-14.2,-1.5,-7.5,179,890,0,,,,
R,,7271883.0,0.061,1.499,-0.353,-16.6,-3.3,-12.1,131,846,0,,,,
R,,7271944.0,-0.159,0.456,-0.026,-11.2,3.8,0.3,226,484,0,,,,
R,,7272003.0,-0.051,0.284,-0.562,0.0,9.8,9.8,275,531,0,,,,
R,,7272063.0,-0.154,0.348,-0.158,9.4,-0.5,20.1,310,492,0,,,,
R,,7272124.0,0.014,0.924,-0.024,17.8,10.4,23.3,313,482,0,,,,
R,,7272183.0,-0.154,1.381,-0.251,22.0,26.1,18.6,327,475,0,,,,
R,,7272245.0,-0.49,1.403,-0.557,21.7,31.7,15.5,355,540,0,,,,
R,,7272303.0,-0.797,1.398,-0.662,22.5,17.1,15.0,353,545,0,,,,
R,,7272364.0,-0.566,1.448,-0.077,18.4,-4.0,11.4,342,550,0,,,,
R,,7272423.0,-0.494,1.481,0.597,5.1,-0.3,-0.9,332,578,0,,,,
R,,7272483.0,0.224,0.592,0.177,-11.6,3.0,-13.3,527,640,0,,,,
R,,7272543.0,0.19,1.458,-0.089,-4.4,11.7,-15.0,637,753,0,,,,
R,,7272603.0,-0.487,0.975,-0.221,-1.0,1.4,-3.8,661,779,0,,,,
R,,7272664.0,-0.069,0.992,-0.279,-2.9,1.3,-3.8,679,798,0,,,,
R,,7272723.0,0.072,0.958,-0.24,-1.0,0.8,-4.8,691,814,0,,,,
R,,7272784.0,0.042,1.0,-0.247,-1.6,-2.1,-2.9,699,823,0,,,,
R,,7272843.0,0.123,0.889,-0.295,-2.1,-2.2,-3.6,701,833,0,,,,
R,,7272904.0,0.004,0.996,-0.223,-4.0,-2.4,-2.9,699,842,0,,,,
R,,7272965.0,-0.067,1.033,-0.123,-4.5,-3.6,-3.1,673,857,0,,,,
R,,7273023.0,-0.039,0.989,-0.135,-5.3,-5.0,-2.4,610,872,0,,,,
R,,7273083.0,0.162,0.947,0.043,-5.1,2.6,-5.3,539,883,0,,,,
R,,7273143.0,-0.082,1.199,-0.024,-6.9,-2.3,-3.6,456,888,0,,,,
R,,7273204.0,-0.111,1.166,-0.085,-8.8,-1.1,-5.3,257,892,0,,,,
R,,7273263.0,-0.015,1.284,-0.076,-12.9,-3.0,-7.3,153,887,0,,,,
R,,7273324.0,-0.015,1.507,-0.247,-14.8,-2.1,-12.9,153,857,0,,,,
R,,7273383.0,-0.044,1.62,-0.761,-13.8,-11.4,-15.6,135,806,0,,,,
R,,7273444.0,-0.783,-0.033,0.155,-7.2,-17.7,-4.3,332,449,0,,,,
R,,7273503.0,0.394,0.381,0.162,6.2,-9.1,9.0,350,487,0,,,,
R,,7273563.0,0.23,0.575,0.35,19.7,9.9,11.5,350,500,0,,,,
R,,7273625.0,0.088,0.983,0.076,27.5,6.8,15.2,351,509,0,,,,
R,,7273683.0,0.027,1.252,0.107,27.3,3.2,16.1,353,521,0,,,,
R,,7273744.0,0.003,1.524,0.065,26.3,4.6,16.2,372,530,0,,,,
R,,7273803.0,-0.325,1.542,-0.089,20.5,3.1,15.0,361,541,0,,,,
R,,7273864.0,-0.198,1.482,0.419,8.1,-4.0,7.4,343,575,0,,,,
R,,7273923.0,-0.351,1.183,0.096,-7.3,-3.1,-4.6,362,589,0,,,,
R,,7273984.0,0.405,0.872,-0.461,-4.0,-7.1,-8.5,576,692,0,,,,
R,,7274043.0,0.092,0.899,-0.056,-9.5,9.2,-13.9,644,762,0,,,,
R,,7274103.0,-0.115,0.996,-0.299,-2.3,-0.2,-6.9,666,783,0,,,,
R,,7274164.0,0.096,0.963,-0.284,-5.5,-2.5,-2.3,685,805,0,,,,
R,,7274223.0,-0.021,0.944,-0.342,0.0,-0.5,-4.2,694,817,0,,,,
R,,7274284.0,-0.121,0.9,-0.35,-3.2,-6.6,-0.5,701,824,0,,,,
R,,7274345.0,0.041,0.916,-0.32,-2.1,-2.7,-0.8,707,833,0,,,,
R,,7274404.0,0.066,1.005,-0.274,-2.8,-1.7,-1.4,713,843,0,,,,
R,,7274463.0,-0.031,1.02,-0.154,-4.1,-2.4,-2.1,722,855,0,,,,
R,,7274524.0,-0.058,0.995,-0.198,-4.7,-3.3,-2.6,714,861,0,,,,
R,,7274583.0,-0.104,1.074,-0.231,-7.8,-4.5,-3.6,676,869,0,,,,
R,,7274643.0,0.085,1.122,0.09,-8.9,-5.6,-4.9,497,885,0,,,,
R,,7274704.0,0.163,1.139,0.128,-11.2,-5.6,-6.8,278,893,0,,,,
R,,7274763.0,-0.01,1.426,-0.007,-12.6,-2.9,-8.5,167,886,0,,,,
R,,7274824.0,0.074,1.713,-0.189,-17.2,-4.0,-14.7,136,849,0,,,,
R,,7274883.0,-0.187,0.904,-0.473,-13.9,-3.5,-11.0,118,671,0,,,,
R,,7274944.0,0.258,0.738,-0.215,-5.6,-4.2,-3.3,314,499,0,,,,
R,,7275003.0,0.141,0.302,0.012,8.3,1.3,12.8,325,487,0,,,,
R,,7275065.0,-0.098,0.633,-0.009,17.0,12.1,19.1,327,468,0,,,,
R,,7275124.0,-0.329,1.131,-0.298,24.3,15.4,21.4,332,476,0,,,,
R,,7275183.0,-0.298,1.539,-0.299,22.4,13.5,21.9,341,509,0,,,,
R,,7275244.0,-0.427,1.612,-0.217,22.5,6.9,19.5,340,525,0,,,,
R,,7275333.0,-0.112,1.576,0.567,14.0,-3.9,7.7,301,546,0,,,,
R,,7275393.0,-0.154,1.693,0.079,-3.3,9.5,-13.5,394,556,0,,,,
R,,7275484.0,0.099,1.323,0.055,-9.5,3.8,-14.6,648,763,0,,,,
R,,7275543.0,-0.042,0.977,-0.4,-2.3,3.8,-6.4,667,786,0,,,,
R,,7275603.0,0.137,0.963,-0.177,-5.6,1.2,-3.8,683,803,0,,,,
R,,7275664.0,-0.021,0.977,-0.23,-3.4,1.3,-4.0,702,833,0,,,,
R,,7275723.0,0.088,0.984,-0.172,-2.7,-1.8,-3.0,714,848,0,,,,
R,,7275785.0,0.035,0.975,-0.184,-2.0,-1.1,-2.8,715,857,0,,,,
R,,7275843.0,0.127,0.983,-0.121,-4.7,-3.3,-2.0,714,867,0,,,,
R,,7275904.0,-0.004,0.995,-0.151,-3.6,-2.7,-1.7,710,872,0,,,,
R,,7275963.0,-0.04,1.001,-0.146,-5.1,-3.5,-2.3,681,878,0,,,,
R,,7276024.0,-0.019,1.03,-0.071,-7.1,-3.6,-2.6,581,886,0,,,,
R,,7276083.0,0.048,1.191,0.078,-10.5,-2.4,-4.4,438,892,0,,,,
R,,7276143.0,-0.06,1.24,-0.009,-13.0,-0.4,-6.5,163,894,0,,,,
R,,7276204.0,0.13,1.327,-0.243,-15.0,1.0,-7.5,124,879,0,,,,
R,,7276263.0,0.165,1.664,-0.2,-19.4,-1.5,-11.1,111,843,0,,,,
R,,7276324.0,-0.194,0.026,-0.431,-12.9,2.8,0.8,210,472,0,,,,
R,,7276383.0,0.058,0.119,-0.524,-0.2,3.2,7.6,282,513,0,,,,
R,,7276444.0,0.039,0.315,-0.015,10.5,11.1,15.4,298,494,0,,,,
R,,7276505.0,-0.116,0.758,-0.152,18.8,19.0,20.9,303,511,0,,,,
R,,7276593.0,-0.395,1.402,-0.404,23.3,23.1,20.8,325,521,0,,,,
R,,7276683.0,-0.727,1.498,-0.544,24.7,1.7,17.0,288,535,0,,,,
R,,7276744.0,-0.043,1.548,0.13,17.2,-20.8,13.7,279,564,0,,,,
R,,7276803.0,-0.231,1.641,0.526,0.1,4.9,-7.2,299,578,0,,,,
R,,7276864.0,0.714,1.522,-0.796,-6.4,5.0,-16.9,617,736,0,,,,
R,,7276923.0,0.039,1.007,0.092,-8.0,2.1,-9.4,660,778,0,,,,
R,,7276984.0,0.066,0.892,-0.449,-3.2,4.8,-4.5,680,801,0,,,,
R,,7277043.0,0.256,0.944,-0.247,-4.0,0.2,-4.6,700,824,0,,,,
R,,7277104.0,-0.039,0.981,-0.325,-3.8,-0.1,-3.2,709,837,0,,,,
R,,7277164.0,0.066,0.981,-0.147,-3.5,-2.5,-2.5,713,851,0,,,,
R,,7277225.0,-0.009,0.993,-0.209,-3.3,-1.7,-1.6,720,865,0,,,,
R,,7277284.0,0.311,0.895,0.049,-4.1,-2.4,-0.8,720,873,0,,,,
R,,7277342.0,0.096,1.053,-0.106,-3.3,-2.1,-1.1,714,874,0,,,,
R,,7277404.0,0.034,0.994,-0.121,-4.0,-1.7,-0.9,706,876,0,,,,
R,,7277463.0,0.02,1.095,-0.085,-6.7,-2.2,-1.5,678,882,0,,,,
R,,7277524.0,0.043,1.108,-0.06,-9.9,-2.1,-2.5,547,892,0,,,,
R,,7277583.0,0.097,1.203,-0.023,-11.9,-1.5,-2.9,316,899,0,,,,
R,,7277644.0,0.488,1.206,0.062,-13.6,0.1,-3.4,132,887,0,,,,
R,,7277704.0,-0.01,1.393,-0.21,-18.4,3.3,-7.5,114,838,0,,,,
R,,7277763.0,-0.047,0.979,-0.411,-17.7,6.5,-8.9,113,583,0,,,,
R,,7277823.0,0.019,0.775,-0.445,-9.5,14.7,0.6,262,469,0,,,,
R,,7277883.0,-0.218,0.347,-0.286,3.3,11.3,10.5,302,486,0,,,,
R,,7277945.0,-0.024,0.666,-0.096,16.9,10.5,17.1,306,493,0,,,,
R,,7278003.0,-0.062,1.058,-0.067,20.7,17.8,18.0,315,509,0,,,,
R,,7278064.0,-0.212,1.46,-0.321,23.9,26.2,15.7,328,525,0,,,,
R,,7278124.0,-0.502,1.506,-0.663,22.9,24.9,13.9,268,537,0,,,,
R,,7278183.0,-0.775,1.385,-0.442,22.8,2.4,15.7,270,559,0,,,,
R,,7278244.0,-0.383,1.509,0.463,12.1,-10.3,8.0,266,599,0,,,,
R,,7278303.0,-0.316,1.493,0.255,-2.0,5.2,-11.2,343,568,0,,,,
R,,7278364.0,0.621,1.317,0.198,-11.4,8.2,-16.8,628,747,0,,,,
R,,7278454.0,-0.048,1.053,-0.24,-3.0,0.6,-6.5,669,795,0,,,,
R,,7278513.0,0.26,0.947,-0.273,-4.5,0.4,-3.9,692,817,0,,,,
R,,7278574.0,-0.08,0.966,-0.336,-2.3,-0.7,-3.9,701,833,0,,,,
R,,7278633.0,0.092,0.941,-0.217,-2.6,-2.3,-2.8,704,842,0,,,,
R,,7278695.0,-0.301,0.955,-0.211,-1.6,0.0,-3.4,701,853,0,,,,
R,,7278753.0,0.05,0.936,-0.114,-3.8,-3.0,-1.9,701,864,0,,,,
R,,7278814.0,0.001,0.995,-0.138,-3.6,-2.9,-1.4,681,873,0,,,,
R,,7278874.0,0.268,1.041,-0.082,-4.9,-1.7,-3.9,650,880,0,,,,
R,,7278934.0,-0.005,1.116,-0.137,-7.5,-4.1,-2.9,536,886,0,,,,
R,,7278994.0,0.007,1.163,-0.034,-10.7,-4.4,-4.8,301,891,0,,,,
R,,7279053.0,0.016,1.196,-0.013,-14.3,-2.4,-6.9,207,893,0,,,,
R,,7279113.0,0.193,1.405,-0.076,-15.6,0.4,-9.2,171,878,0,,,,
R,,7279173.0,0.0,1.565,-0.608,-17.6,-2.4,-14.3,173,831,0,,,,
R,,7279234.0,-0.341,1.307,-0.275,-11.4,0.8,-4.1,276,425,0,,,,
R,,7279293.0,-0.068,0.213,-0.547,0.5,6.5,8.1,300,514,0,,,,
R,,7279355.0,0.059,0.318,-0.048,13.0,9.2,17.2,338,526,0,,,,
R,,7279414.0,0.015,0.777,-0.134,22.0,19.4,23.0,323,519,0,,,,
R,,7279473.0,-0.275,1.375,-0.411,24.2,24.5,22.8,332,521,0,,,,
R,,7279534.0,-0.682,1.504,-0.635,26.1,17.0,21.2,340,547,0,,,,
R,,7279593.0,-0.652,1.55,-0.477,23.5,-8.8,18.8,314,555,0,,,,
R,,7279654.0,-0.188,1.687,0.726,10.3,-15.9,8.0,303,580,0,,,,
R,,7279713.0,-0.207,0.963,0.55,-11.7,2.0,-13.3,482,626,0,,,,
R,,7279774.0,0.04,1.256,-0.706,-7.5,15.8,-22.2,639,760,0,,,,
R,,7279833.0,-0.357,1.188,0.081,-7.9,-1.1,-3.4,669,786,0,,,,
R,,7279894.0,-0.093,1.028,-0.271,-5.8,0.5,-4.4,697,818,0,,,,
R,,7279984.0,-0.043,0.976,-0.328,-2.8,-0.9,-3.1,717,845,0,,,,
R,,7280043.0,0.07,0.977,-0.185,-2.1,-1.9,-2.8,723,854,0,,,,
R,,7280105.0,-0.228,1.325,-0.065,-3.1,4.8,-6.0,725,861,0,,,,
R,,7280164.0,-0.032,0.912,-0.112,-1.0,-0.5,-1.5,733,870,0,,,,
R,,7280224.0,-0.02,1.044,-0.257,-3.4,-3.1,-1.4,725,873,0,,,,
R,,7280284.0,0.037,1.001,-0.228,-5.5,-3.4,-4.0,705,877,0,,,,
R,,7280343.0,-0.119,1.049,-0.213,-9.4,-6.8,-4.6,608,884,0,,,,
R,,7280404.0,0.048,1.24,-0.117,-11.3,-6.0,-5.3,331,896,0,,,,
R,,7280463.0,0.03,1.288,-0.143,-13.9,-4.2,-7.9,215,897,0,,,,
R,,7280524.0,0.219,1.448,-0.331,-17.3,-2.4,-15.0,174,876,0,,,,
R,,7280583.0,-0.01,1.43,-0.809,-15.8,-12.2,-18.4,204,812,0,,,,
R,,7280644.0,-0.816,-0.325,0.884,-7.9,-14.9,-1.3,351,492,0,,,,
R,,7280704.0,0.523,0.347,0.135,8.1,-5.2,11.2,328,509,0,,,,
R,,7280764.0,-0.141,0.352,-0.112,20.5,12.1,17.4,342,515,0,,,,
R,,7280826.0,-0.052,1.036,-0.203,32.6,7.7,19.8,341,524,0,,,,
R,,7280883.0,-0.018,1.435,-0.2,29.5,9.7,20.3,349,542,0,,,,
R,,7280943.0,-0.101,1.952,-0.077,30.1,3.1,20.6,334,541,0,,,,
R,,7281003.0,-1.154,1.631,0.345,18.3,7.3,9.9,299,553,0,,,,
R,,7281064.0,-0.253,1.935,-0.21,-4.9,14.0,-13.5,367,553,0,,,,
R,,7281124.0,1.076,1.298,0.644,-17.5,12.1,-14.8,628,743,0,,,,
R,,7281184.0,-0.603,1.215,-0.217,1.3,2.2,-4.9,667,785,0,,,,
R,,7281244.0,-0.105,1.033,-0.391,-7.1,2.3,-5.3,692,815,0,,,,
R,,7281303.0,0.153,1.06,-0.161,-2.8,-0.8,-4.2,706,836,0,,,,
R,,7281394.0,-0.048,0.993,-0.244,-3.1,-2.4,-2.8,711,857,0,,,,
R,,7281454.0,0.13,1.034,-0.039,-4.2,-3.7,-3.4,703,872,0,,,,
R,,7281515.0,-0.008,0.997,-0.124,-3.1,-1.4,-1.6,683,878,0,,,,
R,,7281574.0,-0.061,0.988,-0.184,-3.0,-1.4,-1.4,674,880,0,,,,
R,,7281633.0,-0.015,1.081,-0.163,-5.0,-1.5,-2.0,665,882,0,,,,
R,,7281694.0,0.029,1.09,-0.156,-8.3,-3.0,-3.6,559,889,0,,,,
R,,7281753.0,0.069,1.233,0.07,-11.3,-2.2,-3.9,406,894,0,,,,
R,,7281843.0,0.089,1.206,0.027,-15.2,-1.0,-6.5,118,886,0,,,,
R,,7281904.0,-0.006,1.445,-0.328,-14.3,-0.8,-12.0,136,857,0,,,,
R,,7281963.0,-0.015,1.199,-0.625,-16.5,-5.3,-8.5,127,718,0,,,,
R,,7282024.0,0.051,0.899,0.223,-9.8,2.4,-3.2,321,477,0,,,,
R,,7282083.0,0.08,0.406,-0.081,6.3,7.1,9.4,316,480,0,,,,
R,,7282144.0,-0.113,0.691,0.027,18.9,12.7,16.8,310,480,0,,,,
R,,7282204.0,-0.094,1.013,-0.097,28.3,8.6,16.8,323,495,0,,,,
R,,7282265.0,0.016,1.342,-0.177,26.3,4.7,16.5,334,509,0,,,,
R,,7282324.0,-0.069,1.58,0.038,25.0,-3.5,18.6,340,558,0,,,,
R,,7282383.0,-0.22,1.54,0.374,18.4,-1.1,13.6,331,537,0,,,,
R,,7282444.0,-0.229,1.484,0.479,-1.9,3.9,-2.0,333,546,0,,,,
R,,7282503.0,0.266,1.131,-1.024,-7.3,-2.7,-13.0,581,702,0,,,,
R,,7282564.0,0.014,1.009,-0.006,-10.7,4.7,-11.1,655,774,0,,,,
R,,7282624.0,-0.022,0.996,-0.257,-4.1,3.2,-7.5,689,813,0,,,,
R,,7282684.0,0.12,0.958,-0.228,-4.0,-0.8,-3.6,710,837,0,,,,
R,,7282744.0,-0.056,0.999,-0.347,-3.3,-1.3,-2.8,722,855,0,,,,
R,,7282804.0,0.077,0.975,-0.235,-5.3,-4.5,-0.3,718,864,0,,,,
R,,7282864.0,-0.06,0.983,-0.147,-4.3,-3.9,-1.8,708,875,0,,,,
R,,7282923.0,-0.03,1.007,-0.137,-3.4,-1.2,-1.4,699,880,0,,,,
R,,7283015.0,-0.047,1.0,-0.096,-3.9,-1.0,-1.5,667,883,0,,,,
R,,7283074.0,-0.055,1.05,-0.131,-6.5,-3.2,-1.9,614,887,0,,,,
R,,7283133.0,0.049,1.168,0.016,-9.5,-3.1,-2.7,488,890,0,,,,
R,,7283194.0,-0.057,1.267,-0.003,-12.0,-0.7,-3.5,253,894,0,,,,
R,,7283253.0,-0.037,1.428,-0.202,-13.8,-0.2,-6.8,104,882,0,,,,
R,,7283314.0,0.125,1.608,-0.185,-17.1,-0.8,-11.9,148,861,0,,,,
R,,7283404.0,-0.691,0.487,-0.172,-6.6,-0.6,-4.3,305,475,0,,,,
R,,7283463.0,0.087,0.344,-0.155,0.2,12.9,11.4,315,523,0,,,,
R,,7283523.0,-0.114,0.525,-0.121,14.5,11.4,17.9,314,523,0,,,,
R,,7283583.0,-0.099,0.938,-0.154,22.2,16.4,24.0,299,513,0,,,,
R,,7283644.0,-0.199,1.299,-0.377,24.8,22.4,19.4,322,520,0,,,,
R,,7283706.0,-0.677,1.477,-0.53,26.3,21.7,17.9,310,529,0,,,,
R,,7283764.0,-0.64,1.588,-0.27,20.2,6.8,15.5,282,550,0,,,,
R,,7283824.0,-0.449,1.629,0.694,8.6,-3.4,2.2,277,580,0,,,,
R,,7283883.0,-0.415,0.927,0.481,-9.1,8.0,-14.2,520,652,0,,,,
R,,7283944.0,0.016,1.238,0.285,-10.6,8.5,-12.8,653,770,0,,,,
R,,7284003.0,-0.319,1.133,0.131,-3.6,1.7,-5.9,680,800,0,,,,
R,,7284064.0,-0.024,0.997,-0.084,-2.9,0.9,-5.2,698,825,0,,,,
R,,7284124.0,0.081,0.882,-0.185,-0.7,0.2,-4.4,712,840,0,,,,
R,,7284184.0,0.092,0.969,-0.19,-1.6,-2.9,-2.7,710,848,0,,,,
R,,7284244.0,0.059,0.986,-0.212,-2.1,-2.7,-2.4,704,853,0,,,,
R,,7284304.0,0.014,0.996,-0.161,-2.7,-2.4,-2.1,689,859,0,,,,
R,,7284364.0,-0.215,0.936,-0.338,-5.1,-3.9,-1.0,671,868,0,,,,
R,,7284425.0,-0.093,0.935,-0.104,-4.5,-3.6,-0.8,651,867,0,,,,
R,,7284484.0,0.063,1.099,-0.062,-6.7,-4.2,-2.3,622,881,0,,,,
R,,7284543.0,-0.045,1.123,-0.078,-8.3,-3.0,-3.5,444,891,0,,,,
R,,7284604.0,-0.043,1.302,-0.013,-12.2,-2.1,-5.2,206,897,0,,,,
R,,7284694.0,0.331,1.482,-0.147,-17.6,1.8,-11.3,139,872,0,,,,
R,,7284753.0,-0.022,1.501,-0.582,-20.0,-0.1,-12.2,153,798,0,,,,
R,,7284814.0,-0.769,0.135,0.94,-15.0,2.2,9.5,306,473,0,,,,
R,,7284874.0,-0.199,0.287,-0.158,1.8,5.5,14.5,306,533,0,,,,
R,,7284934.0,-0.063,0.457,-0.067,15.9,5.1,21.0,316,508,0,,,,
R,,7284994.0,-0.132,1.078,-0.038,25.5,14.0,19.5,311,501,0,,,,
R,,7285054.0,-0.29,1.413,-0.288,25.1,20.4,17.0,318,521,0,,,,
R,,7285116.0,-0.477,1.497,-0.36,25.8,13.8,14.5,336,536,0,,,,
R,,7285174.0,-0.445,1.532,-0.101,20.1,1.9,11.3,318,552,0,,,,
R,,7285234.0,-0.393,1.493,0.452,10.5,1.7,2.4,307,573,0,,,,
R,,7285293.0,0.109,1.779,0.033,-3.2,6.7,-14.4,407,571,0,,,,
R,,7285354.0,0.423,1.023,0.26,-13.0,15.1,-18.1,630,744,0,,,,
R,,7285414.0,-0.373,1.043,-0.117,0.1,0.4,-7.2,665,784,0,,,,
R,,7285474.0,-0.119,0.933,-0.346,-2.6,0.8,-2.8,685,807,0,,,,
R,,7285534.0,0.198,0.991,-0.196,0.1,1.2,-4.2,699,820,0,,,,
R,,7285594.0,-0.004,0.976,-0.384,-2.5,-1.4,-2.6,705,831,0,,,,
R,,7285654.0,0.169,0.976,-0.266,-2.6,-1.2,-3.7,713,844,0,,,,
R,,7285713.0,0.205,0.887,-0.108,-4.4,-2.4,-1.8,706,861,0,,,,
R,,7285774.0,-0.076,0.966,-0.168,-6.4,-1.5,-2.8,677,874,0,,,,
R,,7285835.0,-0.034,0.989,-0.078,-5.3,-3.6,-1.1,635,881,0,,,,
R,,7285894.0,0.035,1.013,-0.066,-6.0,-0.6,-2.9,567,888,0,,,,
R,,7285984.0,0.0,1.149,-0.052,-9.5,-0.8,-3.6,427,894,0,,,,
R,,7286043.0,-0.039,1.241,-0.052,-12.1,1.3,-4.5,181,897,0,,,,
R,,7286104.0,-0.037,1.325,-0.262,-14.7,0.4,-6.9,107,883,0,,,,
R,,7286164.0,0.09,1.428,-0.145,-18.4,1.1,-9.6,152,857,0,,,,
R,,7286224.0,0.248,0.904,-0.772,-20.2,-2.0,-8.1,144,705,0,,,,
R,,7286284.0,0.162,0.772,-0.296,-7.4,9.9,-0.5,259,531,0,,,,
R,,7286344.0,-0.211,0.333,-0.175,5.8,5.1,13.5,302,528,0,,,,
R,,7286404.0,-0.023,0.763,0.04,20.1,6.5,17.0,317,492,0,,,,
R,,7286464.0,-0.206,1.189,-0.064,23.8,16.4,16.2,319,493,0,,,,
R,,7286524.0,-0.17,1.213,-0.133,24.8,21.9,12.7,359,513,0,,,,
R,,7286585.0,-0.386,1.661,-0.207,20.1,19.0,14.9,309,534,0,,,,
R,,7286643.0,-0.75,1.418,-0.061,19.1,11.2,11.8,309,560,0,,,,
R,,7286704.0,-0.53,1.457,0.522,4.8,0.0,2.6,293,578,0,,,,
R,,7286764.0,-0.45,0.456,-0.043,-9.0,0.1,-15.8,500,636,0,,,,
R,,7286824.0,0.162,1.264,-0.083,-7.1,2.9,-12.4,645,764,0,,,,
R,,7286884.0,0.062,1.008,-0.171,-2.0,2.5,-7.8,671,792,0,,,,
R,,7286944.0,0.081,0.956,-0.294,-4.3,1.9,-5.2,692,818,0,,,,
R,,7287003.0,0.11,0.992,-0.237,-2.4,1.2,-5.2,707,835,0,,,,
R,,7287064.0,0.007,0.982,-0.19,-3.3,-1.1,-3.6,716,852,0,,,,
R,,7287124.0,-0.044,0.956,-0.172,-3.5,-1.0,-2.9,715,860,0,,,,
R,,7287184.0,-0.438,1.098,-0.327,-5.9,-0.7,-2.2,716,871,0,,,,
R,,7287246.0,-0.081,1.063,-0.125,-4.4,-3.7,-2.1,703,878,0,,,,
R,,7287304.0,-0.035,1.019,-0.125,-5.4,-2.5,-4.2,654,881,0,,,,
R,,7287364.0,-0.071,1.062,-0.111,-5.7,-2.7,-3.9,557,888,0,,,,
R,,7287424.0,-0.032,1.133,0.004,-8.7,-2.9,-4.8,355,898,0,,,,
R,,7287484.0,-0.08,1.132,-0.026,-12.0,-2.7,-6.5,170,892,0,,,,
R,,7287543.0,-0.044,1.307,-0.239,-12.0,-2.3,-9.1,142,876,0,,,,
R,,7287604.0,-0.422,1.584,-0.215,-14.7,-9.7,-14.2,159,850,0,,,,
R,,7287664.0,-0.258,0.233,-0.38,-8.7,-22.6,-0.1,163,542,0,,,,
R,,7287724.0,0.188,0.392,-0.394,4.4,-16.2,1.6,338,491,0,,,,
R,,7287784.0,0.496,0.294,0.221,16.2,-2.7,4.1,345,463,0,,,,
R,,7287844.0,0.183,0.756,0.178,27.3,3.7,8.0,360,482,0,,,,
R,,7287904.0,0.236,1.176,0.074,28.7,5.6,12.4,351,476,0,,,,
R,,7287965.0,0.13,1.311,0.011,30.2,6.7,12.0,344,478,0,,,,
R,,7288024.0,-0.187,1.864,0.136,24.1,9.9,10.3,374,532,0,,,,
R,,7288083.0,-0.228,1.527,0.375,11.9,-7.6,10.4,329,560,0,,,,
R,,7288144.0,-0.446,0.894,-0.028,-3.4,-10.4,0.1,347,575,0,,,,
R,,7288204.0,-0.454,1.257,0.209,-3.6,-2.8,-9.6,562,687,0,,,,
R,,7288264.0,0.349,1.295,-0.212,-6.2,8.1,-16.3,642,760,0,,,,
R,,7288324.0,-0.515,1.063,-0.276,-1.3,-4.9,-9.3,666,785,0,,,,
R,,7288384.0,-0.027,0.923,-0.3,-7.6,-1.9,0.2,688,807,0,,,,
R,,7288444.0,-0.101,0.9,-0.366,-3.0,1.8,-3.0,708,829,0,,,,
R,,7288504.0,0.142,0.977,-0.298,-5.1,-2.5,-0.8,713,838,0,,,,
R,,7288564.0,-0.133,0.981,-0.299,-4.5,-2.4,-2.1,718,849,0,,,,
R,,7288624.0,0.011,1.018,-0.229,-4.8,-0.4,-1.5,723,858,0,,,,
R,,7288685.0,0.007,0.955,-0.139,-5.6,-2.6,-2.5,720,872,0,,,,
R,,7288744.0,-0.08,1.028,-0.152,-6.5,-3.6,-2.5,701,875,0,,,,
R,,7288833.0,-0.041,1.087,-0.046,-8.3,-3.2,-3.1,573,887,0,,,,
R,,7288894.0,-0.024,1.184,-0.004,-11.0,-3.9,-3.4,347,898,0,,,,
R,,7288954.0,-0.023,1.26,-0.049,-14.8,-2.7,-5.6,208,891,0,,,,
R,,7289014.0,0.099,1.467,-0.093,-14.8,0.0,-9.9,190,875,0,,,,
R,,7289074.0,-0.034,1.438,-0.634,-20.1,-3.9,-10.6,149,817,0,,,,
R,,7289134.0,-0.365,1.382,-0.345,-8.0,1.2,-2.8,317,459,0,,,,
R,,7289194.0,0.099,0.388,-0.288,2.9,3.8,12.6,326,488,0,,,,
R,,7289254.0,0.056,0.45,-0.025,13.9,5.1,19.8,330,478,0,,,,
R,,7289314.0,0.075,1.014,-0.086,24.6,16.8,21.0,338,492,0,,,,
R,,7289375.0,-0.072,1.504,-0.284,23.9,28.7,16.3,356,510,0,,,,
R,,7289434.0,-0.696,1.542,-0.61,24.7,29.6,15.9,353,525,0,,,,
R,,7289494.0,-0.908,1.424,-0.476,23.5,4.9,12.8,358,548,0,,,,
R,,7289554.0,-0.403,1.494,0.242,14.7,-4.0,6.8,337,569,0,,,,
R,,7289614.0,-0.371,1.275,0.374,-0.8,3.1,-9.2,342,595,0,,,,
R,,7289674.0,1.652,1.468,-0.33,-7.2,11.5,-13.9,623,738,0,,,,
R,,7289734.0,-0.256,1.019,-0.051,-4.2,0.1,-11.0,670,788,0,,,,
R,,7289794.0,0.042,0.919,-0.356,-4.4,-2.3,-4.6,687,812,0,,,,
R,,7289854.0,0.162,1.044,-0.247,-2.2,1.7,-4.2,709,838,0,,,,
R,,7289914.0,-0.07,0.947,-0.217,-3.3,0.6,-3.5,717,849,0,,,,
R,,7289974.0,0.096,1.008,-0.167,-2.1,-1.7,-3.0,722,859,0,,,,
R,,7290034.0,-0.09,0.893,-0.332,-3.4,-1.7,-1.9,726,866,0,,,,
R,,7290095.0,0.058,0.989,-0.143,-3.4,-2.1,-1.6,722,874,0,,,,
R,,7290154.0,-0.035,1.007,-0.142,-4.7,-2.8,-2.5,705,881,0,,,,
R,,7290214.0,0.058,1.036,-0.129,-6.5,-2.7,-3.1,632,886,0,,,,
R,,7290274.0,-0.018,1.132,-0.046,-10.9,-3.7,-4.4,500,897,0,,,,
R,,7290334.0,0.065,1.196,0.058,-11.3,-2.3,-4.1,258,901,0,,,,
R,,7290394.0,0.073,1.308,-0.149,-13.1,-0.5,-5.9,157,895,0,,,,
R,,7290454.0,0.014,1.47,-0.327,-17.8,0.0,-11.6,135,863,0,,,,
R,,7290514.0,-0.151,1.037,-0.539,-14.4,-2.7,-9.7,120,752,0,,,,
R,,7290574.0,0.037,0.802,0.006,-8.1,-4.2,-5.1,333,541,0,,,,
R,,7290634.0,0.155,0.38,-0.039,4.5,0.0,10.5,351,566,0,,,,
R,,7290694.0,0.168,0.656,-0.101,17.7,18.2,16.1,329,499,0,,,,
R,,7290754.0,-0.23,1.035,-0.273,24.5,22.4,20.1,320,488,0,,,,
R,,7290816.0,-0.327,1.414,-0.558,27.5,21.2,19.2,349,537,0,,,,
R,,7290875.0,-0.767,1.826,-0.223,26.8,10.4,17.8,331,559,0,,,,
R,,7290934.0,-0.732,1.576,0.043,23.1,-3.0,13.7,331,560,0,,,,
R,,7290994.0,-0.317,1.523,0.549,-1.6,11.9,-7.0,337,568,0,,,,
R,,7291084.0,0.33,1.369,0.171,-11.7,14.4,-14.1,658,774,0,,,,
R,,7291144.0,-0.151,1.158,0.091,-6.2,0.3,-6.3,681,803,0,,,,
R,,7291234.0,0.194,1.01,-0.138,-3.5,-1.2,-4.2,711,841,0,,,,
R,,7291294.0,0.024,0.961,-0.187,-4.0,-1.9,-3.4,709,855,0,,,,
R,,7291354.0,0.434,0.27,-0.015,-3.2,-3.7,-4.6,691,874,0,,,,
R,,7291414.0,0.039,0.862,-0.037,-5.5,-2.1,-2.6,638,880,0,,,,
R,,7291474.0,0.116,1.024,-0.044,-3.9,0.6,-3.1,599,885,0,,,,
R,,7291536.0,-0.072,1.018,-0.001,-4.6,0.2,-1.8,547,887,0,,,,
R,,7291594.0,0.021,1.011,-0.048,-6.0,2.0,-2.8,484,890,0,,,,
R,,7291654.0,0.003,1.163,-0.018,-9.5,-1.1,-2.4,341,887,0,,,,
R,,7291714.0,0.059,1.232,0.075,-12.6,0.2,-4.3,155,888,0,,,,
R,,7291774.0,0.042,1.391,-0.192,-15.4,-0.3,-7.3,139,872,0,,,,
R,,7291834.0,0.051,1.427,-0.325,-19.6,-3.1,-9.0,139,851,0,,,,
R,,7291894.0,-0.321,1.012,-0.394,-8.9,2.5,-1.7,218,396,0,,,,
R,,7291954.0,0.011,0.398,-0.382,0.2,13.6,9.1,262,466,0,,,,
R,,7292014.0,-0.135,0.569,-0.086,11.8,8.3,15.8,292,471,0,,,,
R,,7292074.0,0.0,0.898,-0.051,20.1,14.6,19.4,308,455,0,,,,
R,,7292134.0,-0.276,1.328,-0.275,22.5,24.9,17.9,304,455,0,,,,
R,,7292194.0,-0.569,1.588,-0.501,23.2,26.3,12.6,332,488,0,,,,
R,,7292255.0,-0.645,1.431,-0.46,24.1,7.5,13.7,288,524,0,,,,
R,,7292314.0,-0.422,1.46,0.04,19.2,-6.4,11.2,296,555,0,,,,
R,,7292375.0,-0.293,1.542,0.638,1.6,4.9,-4.8,312,590,0,,,,
R,,7292434.0,0.368,0.372,-1.074,-5.4,11.0,-14.0,568,691,0,,,,
R,,7292494.0,0.179,1.436,-0.068,-8.8,8.8,-15.6,655,774,0,,,,
R,,7292554.0,-0.064,1.04,-0.042,-2.6,-1.0,-2.5,680,805,0,,,,
R,,7292614.0,0.089,0.902,-0.049,-5.8,-1.2,-3.9,701,826,0,,,,
R,,7292674.0,0.067,0.956,-0.198,-2.5,0.2,-4.2,713,844,0,,,,
R,,7292734.0,0.071,0.99,-0.149,-3.3,-2.5,-2.6,721,858,0,,,,
R,,7292794.0,-0.103,1.111,-0.049,-3.5,0.4,0.0,723,866,0,,,,
R,,7292854.0,-0.058,0.993,-0.192,-3.2,0.2,-2.2,725,878,0,,,,
R,,7292946.0,0.033,1.016,-0.053,-4.4,-2.0,-1.7,691,882,0,,,,
R,,7293004.0,-0.01,1.076,-0.034,-5.9,-2.5,-2.2,618,888,0,,,,
R,,7293064.0,-0.101,1.205,-0.008,-7.9,-1.3,-3.3,468,895,0,,,,
R,,7293125.0,0.027,1.275,-0.127,-12.5,-1.9,-3.9,211,900,0,,,,
R,,7293184.0,0.167,1.569,-0.137,-17.1,-2.9,-9.5,140,883,0,,,,
R,,7293244.0,-0.148,1.586,-0.563,-16.9,-5.3,-12.2,177,837,0,,,,
R,,7293304.0,-0.304,0.724,-0.322,-7.6,-10.2,-4.4,312,375,0,,,,
R,,7293364.0,0.218,0.471,-0.357,1.4,8.1,7.7,336,462,0,,,,
R,,7293424.0,-0.121,0.281,-0.017,14.1,11.6,14.7,346,494,0,,,,
R,,7293484.0,0.084,0.898,0.038,26.2,12.0,18.9,338,491,0,,,,
R,,7293544.0,-0.229,1.422,-0.067,25.9,16.0,18.2,343,493,0,,,,
R,,7293604.0,-0.399,1.624,-0.14,27.4,11.8,14.7,348,513,0,,,,
R,,7293666.0,-0.369,1.526,-0.178,19.8,3.1,13.4,348,532,0,,,,
R,,7293724.0,-0.126,1.363,0.29,11.0,-7.9,6.1,356,567,0,,,,
R,,7293784.0,-0.243,1.033,0.107,-1.2,-2.1,-3.4,363,585,0,,,,
R,,7293844.0,-0.233,0.207,-0.29,-8.3,5.2,-13.5,541,675,0,,,,
R,,7293904.0,0.591,1.159,0.229,-10.0,8.7,-13.2,643,760,0,,,,
R,,7293964.0,-0.284,0.923,-0.075,-1.8,-0.7,-7.9,670,790,0,,,,
R,,7294024.0,-0.176,1.037,-0.314,-6.7,-0.3,-1.7,694,818,0,,,,
R,,7294084.0,0.091,0.978,-0.265,-1.9,1.0,-4.5,710,837,0,,,,
R,,7294144.0,-0.056,0.96,-0.29,-3.0,-2.0,-1.8,726,851,0,,,,
R,,7294205.0,0.041,1.005,-0.261,-4.2,-1.6,-2.6,724,854,0,,,,
R,,7294264.0,0.043,1.022,-0.214,-3.7,-1.3,-1.2,729,863,0,,,,
R,,7294324.0,-0.064,1.053,-0.203,-4.1,-2.3,-2.7,729,869,0,,,,
R,,7294385.0,-0.064,0.942,-0.147,-4.7,-3.3,-2.8,720,877,0,,,,
R,,7294444.0,-0.103,1.089,-0.176,-5.5,-3.6,-3.0,689,881,0,,,,
R,,7294504.0,-0.066,1.046,-0.095,-7.6,-4.8,-4.0,581,886,0,,,,
R,,7294564.0,-0.109,1.204,-0.048,-10.7,-5.6,-5.6,306,897,0,,,,
R,,7294625.0,0.059,1.202,-0.027,-13.5,-4.8,-5.2,199,896,0,,,,
R,,7294684.0,-0.06,1.617,-0.286,-13.4,-2.2,-10.2,199,876,0,,,,
R,,7294745.0,-0.059,1.51,-0.561,-16.1,-5.7,-16.4,133,792,0,,,,
R,,7294804.0,-0.552,0.322,0.311,-11.1,-6.4,-4.9,293,437,0,,,,
R,,7294864.0,0.15,0.383,-0.199,8.1,-6.1,8.8,304,484,0,,,,
R,,7294924.0,0.061,0.518,0.096,17.4,4.3,13.5,310,471,0,,,,
R,,7294984.0,-0.024,0.886,-0.004,29.1,9.3,18.6,313,483,0,,,,
R,,7295045.0,-0.205,1.203,-0.183,27.9,12.8,15.1,332,498,0,,,,
R,,7295104.0,-0.274,1.544,-0.249,28.0,4.8,16.9,329,516,0,,,,
R,,7295165.0,-0.354,1.516,-0.023,21.6,1.2,13.7,325,537,0,,,,
R,,7295224.0,-0.168,1.576,0.678,8.4,-1.8,1.7,280,562,0,,,,
R,,7295285.0,-0.07,1.417,-0.1,-8.3,9.4,-16.1,456,612,0,,,,
R,,7295344.0,0.436,1.51,-0.045,-9.5,6.9,-13.2,634,746,0,,,,
R,,7295404.0,-0.188,0.908,-0.08,-3.9,-2.3,-10.5,661,782,0,,,,
R,,7295463.0,-0.254,0.977,-0.391,-4.7,2.7,-3.4,689,811,0,,,,
R,,7295524.0,0.202,0.973,-0.208,-2.9,-0.5,-5.1,708,837,0,,,,
R,,7295584.0,-0.114,0.97,-0.289,-2.7,-0.4,-2.6,717,848,0,,,,
R,,7295644.0,0.224,0.899,-0.1,-2.4,0.7,-3.2,722,858,0,,,,
R,,7295705.0,-0.107,0.937,-0.245,-2.7,-3.5,-1.0,722,862,0,,,,
R,,7295766.0,-0.036,0.985,-0.234,-2.8,-1.9,-2.0,721,869,0,,,,
R,,7295825.0,-0.035,1.032,-0.198,-4.1,-3.5,-2.3,705,875,0,,,,
R,,7295884.0,-0.091,1.002,-0.095,-4.9,-5.0,-2.4,658,880,0,,,,
R,,7295944.0,-0.046,1.04,-0.044,-5.4,-4.3,-3.1,573,885,0,,,,
R,,7296004.0,-0.108,1.044,-0.052,-6.7,-3.7,-3.8,446,895,0,,,,
R,,7296064.0,-0.112,1.136,-0.046,-9.0,-5.7,-4.5,266,899,0,,,,
R,,7296125.0,-0.139,1.277,-0.17,-12.1,-3.9,-5.8,215,890,0,,,,
R,,7296214.0,0.103,1.403,-0.076,-14.0,-4.0,-12.8,152,850,0,,,,
R,,7296273.0,-0.248,0.994,-0.157,-13.0,-2.8,-9.9,162,690,0,,,,
R,,7296334.0,-0.459,0.55,-0.02,-4.7,-11.0,-5.9,294,492,0,,,,
R,,7296394.0,0.122,0.364,-0.044,8.3,-15.3,10.9,279,514,0,,,,
R,,7296455.0,0.027,0.726,0.173,20.1,-4.9,15.4,281,489,0,,,,
R,,7296516.0,-0.067,1.153,0.121,24.8,11.9,11.0,303,496,0,,,,
R,,7296575.0,-0.165,1.364,-0.057,23.6,20.3,9.2,334,518,0,,,,
R,,7296634.0,-0.401,1.209,-0.266,21.2,16.9,9.3,340,531,0,,,,
R,,7296694.0,-0.359,1.294,-0.214,19.0,6.5,9.5,332,543,0,,,,
R,,7296754.0,-0.208,1.254,0.033,14.6,-3.5,6.3,322,553,0,,,,
R,,7296814.0,-0.094,1.294,0.308,4.8,4.2,-2.3,337,571,0,,,,
R,,7296875.0,0.299,1.209,-0.365,-6.0,9.9,-13.4,410,578,0,,,,
R,,7296934.0,0.593,1.165,-0.005,-8.6,8.6,-10.5,611,723,0,,,,
R,,7297024.0,-0.409,0.87,-0.264,-1.8,0.3,-8.5,662,778,0,,,,
R,,7297084.0,0.013,0.93,-0.305,-5.7,0.8,-3.2,679,798,0,,,,
R,,7297144.0,0.189,0.937,-0.186,-0.7,2.3,-5.8,694,817,0,,,,
R,,7297206.0,0.135,0.957,-0.219,-5.7,-2.0,-3.7,703,824,0,,,,
R,,7297264.0,-0.1,1.118,-0.011,-4.9,0.6,-7.0,716,842,0,,,,
R,,7297325.0,-0.004,0.939,-0.082,-3.7,-2.8,-1.6,721,848,0,,,,
R,,7297384.0,-0.043,0.998,-0.172,-2.3,-0.3,-1.9,723,854,0,,,,
R,,7297444.0,-0.079,0.967,-0.12,-2.9,-2.6,-2.2,722,861,0,,,,
R,,7297504.0,-0.095,1.007,-0.101,-2.5,-2.7,-3.0,716,867,0,,,,
R,,7297564.0,-0.126,1.007,-0.142,-3.2,-4.9,-2.8,685,875,0,,,,
R,,7297625.0,0.017,1.079,0.024,-5.3,-6.0,-3.1,534,887,0,,,,
R,,7297684.0,-0.185,1.229,-0.084,-9.9,-7.4,-5.9,279,891,0,,,,
R,,7297745.0,0.016,1.412,-0.185,-14.3,-4.6,-7.7,223,883,0,,,,
R,,7297804.0,-0.152,1.435,-0.232,-14.9,-4.0,-14.5,176,838,0,,,,
R,,7297865.0,-0.355,0.755,-0.05,-12.9,-10.2,-8.9,183,629,0,,,,
R,,7297926.0,0.075,0.345,-0.2,1.4,-12.5,-2.0,274,509,0,,,,
R,,7297984.0,0.376,0.326,0.241,7.7,-5.4,10.6,299,508,0,,,,
R,,7298044.0,0.105,0.576,0.07,25.0,-5.4,16.2,278,496,0,,,,
R,,7298104.0,-0.007,1.152,0.101,25.2,10.0,13.1,292,500,0,,,,
R,,7298165.0,-0.122,1.375,-0.128,23.8,15.7,10.6,311,519,0,,,,
R,,7298224.0,-0.293,1.464,-0.256,21.7,12.7,11.7,286,523,0,,,,
R,,7298285.0,-0.517,1.342,-0.1,18.1,2.6,10.1,286,536,0,,,,
R,,7298375.0,-0.129,1.666,0.223,1.0,6.0,-8.4,317,545,0,,,,
R,,7298434.0,1.043,1.068,-0.563,-5.3,10.3,-14.3,605,726,0,,,,
R,,7298495.0,-0.868,1.381,0.123,-2.9,-2.3,-6.5,661,779,0,,,,
R,,7298583.0,0.081,0.918,-0.242,-2.8,-0.1,-3.6,703,832,0,,,,
R,,7298644.0,-0.078,0.945,-0.33,-2.3,0.0,-3.1,712,845,0,,,,
R,,7298706.0,0.081,1.018,-0.18,-2.9,0.4,-2.6,719,861,0,,,,
R,,7298764.0,1.022,1.11,0.382,-1.6,0.9,-5.5,719,865,0,,,,
R,,7298825.0,0.066,1.009,-0.094,-2.0,-1.1,-0.3,720,870,0,,,,
R,,7298884.0,-0.021,1.008,-0.168,-0.5,-0.1,-0.2,721,878,0,,,,
R,,7298944.0,-0.016,1.016,-0.11,-1.7,-0.4,-0.3,718,876,0,,,,
R,,7299004.0,0.015,0.922,-0.112,-0.6,-0.3,0.1,714,879,0,,,,
R,,7299094.0,-0.031,1.023,-0.13,-2.5,-1.3,0.2,716,882,0,,,,
R,,7299184.0,0.004,1.008,-0.11,-3.2,-1.4,1.0,696,878,0,,,,
R,,7299245.0,0.106,1.007,-0.05,-4.1,-1.6,1.1,661,882,0,,,,
R,,7299304.0,0.035,1.1,0.0,-6.3,-1.3,1.2,589,885,0,,,,
R,,7299365.0,0.068,1.132,0.223,-7.5,-3.9,0.1,459,880,0,,,,
R,,7299426.0,-0.058,1.211,-0.113,-12.3,-3.0,-0.8,262,869,0,,,,
R,,7299484.0,0.101,1.089,-0.162,-5.1,5.6,-3.2,119,832,0,,,,
R,,7299544.0,-0.021,1.049,-0.044,-9.8,-3.9,-5.6,157,780,0,,,,
R,,7299604.0,-0.358,0.79,0.349,-6.3,-3.1,-3.8,259,556,0,,,,
R,,7299665.0,0.224,0.475,-0.013,1.1,10.1,0.8,307,540,0,,,,
R,,7299724.0,-0.144,0.848,-0.094,10.6,8.9,5.4,308,560,0,,,,
R,,7299785.0,0.058,0.876,-0.019,13.7,7.0,9.6,308,524,0,,,,
R,,7299844.0,0.208,1.006,0.072,15.7,19.7,7.2,303,509,0,,,,
R,,7299905.0,-0.016,1.22,-0.269,15.2,31.5,3.9,328,535,0,,,,
R,,7299964.0,-0.214,1.161,-0.373,11.9,28.6,3.1,310,548,0,,,,
R,,7300024.0,-0.401,1.141,-0.46,9.9,15.0,3.9,289,557,0,,,,
R,,7300084.0,-0.236,1.028,-0.323,10.0,0.9,3.6,322,601,0,,,,
R,,7300146.0,-0.233,0.947,-0.318,10.2,-4.7,2.5,293,594,0,,,,
R,,7300205.0,-0.004,0.941,-0.036,7.5,-14.5,0.9,273,590,0,,,,
R,,7300264.0,0.163,1.111,-0.013,4.2,-7.2,-0.8,242,610,0,,,,
R,,7300325.0,0.38,1.121,0.307,-1.5,10.7,-6.2,254,609,0,,,,
R,,7300384.0,0.099,1.084,-1.08,4.2,14.8,-10.6,485,630,0,,,,
R,,7300445.0,0.161,1.092,-0.406,-5.7,4.4,-6.1,593,717,0,,,,
R,,7300504.0,-0.032,0.842,-0.208,-3.4,-1.4,-6.8,636,759,0,,,,
R,,7300564.0,-0.102,0.849,-0.47,-3.6,3.3,-3.3,671,799,0,,,,
R,,7300625.0,0.197,1.005,-0.24,-2.0,0.9,-3.0,687,813,0,,,,
R,,7300684.0,-0.084,0.937,-0.366,-1.1,0.5,-4.0,700,827,0,,,,
R,,7300745.0,0.076,1.016,-0.267,-2.6,-0.5,-2.0,712,837,0,,,,
R,,7300806.0,-0.117,1.055,-0.299,-3.8,-1.6,-1.2,716,843,0,,,,
R,,7300865.0,0.051,0.97,-0.203,-4.1,-2.1,-0.4,717,844,0,,,,
R,,7300924.0,-0.112,1.009,-0.144,-2.6,-2.1,-0.1,725,850,0,,,,
R,,7300985.0,0.006,0.957,-0.085,-3.1,-3.2,-0.2,722,850,0,,,,
R,,7301044.0,0.026,1.016,-0.005,-0.1,-3.4,0.1,723,856,0,,,,
R,,7301104.0,-0.109,0.996,-0.19,-3.5,-3.1,0.0,725,859,0,,,,
R,,7301165.0,-0.004,0.988,-0.299,-4.9,-5.4,0.0,723,860,0,,,,
R,,7301224.0,-0.084,1.05,-0.038,-6.7,-6.5,-1.1,686,867,0,,,,
R,,7301285.0,0.079,1.128,0.111,-6.6,-6.0,-2.6,520,883,0,,,,
R,,7301344.0,-0.081,0.978,0.066,-8.9,-7.3,-2.4,427,890,0,,,,
R,,7301405.0,-0.282,1.168,-0.152,-9.1,-9.6,-0.4,323,881,0,,,,
R,,7301464.0,-0.176,1.134,-0.173,-7.0,-11.7,-5.7,239,843,0,,,,
R,,7301526.0,-0.008,1.062,0.087,-4.8,-13.6,-3.6,167,733,0,,,,
R,,7301584.0,-0.152,0.842,0.312,0.2,-13.9,-2.3,294,398,0,,,,
R,,7301644.0,0.725,0.062,-0.184,4.3,17.7,-5.3,323,393,0,,,,
R,,7301704.0,-0.108,0.827,-0.047,13.5,3.0,7.6,342,438,0,,,,
R,,7301764.0,0.052,1.176,0.233,10.6,-0.7,6.7,326,450,0,,,,
R,,7301825.0,0.168,1.207,0.375,16.5,15.1,4.3,364,469,0,,,,
R,,7301884.0,-0.281,1.19,0.287,9.6,5.0,4.2,370,484,0,,,,
R,,7301945.0,-0.112,1.089,0.417,4.9,0.2,-0.6,374,519,0,,,,
R,,7302004.0,0.174,1.088,0.344,3.5,-3.1,-0.7,403,593,0,,,,
R,,7302065.0,-0.087,0.913,-0.264,4.9,4.8,-1.0,549,704,0,,,,
R,,7302125.0,0.006,1.067,-0.205,1.4,-1.4,0.5,637,776,0,,,,
R,,7302184.0,-0.05,0.942,-0.15,1.5,0.6,-0.5,670,804,0,,,,
R,,7302276.0,0.081,0.96,-0.212,1.4,0.9,-0.2,694,822,0,,,,
R,,7302334.0,0.073,1.006,-0.213,1.2,-0.4,-0.6,698,828,0,,,,
R,,7302394.0,0.063,0.976,-0.208,-0.1,-0.3,-1.1,702,829,0,,,,
R,,7302455.0,-0.001,0.975,-0.141,0.0,-1.3,-0.5,703,832,0,,,,
R,,7302514.0,0.007,0.963,-0.195,0.8,-0.9,-0.2,708,839,0,,,,
R,,7302575.0,-0.022,0.979,-0.215,1.3,-1.3,0.1,712,844,0,,,,
R,,7302634.0,0.064,0.979,-0.28,0.7,-1.7,0.0,714,846,0,,,,
R,,7302695.0,0.0,0.976,-0.247,0.0,-2.9,0.8,714,845,0,,,,
R,,7302754.0,0.006,0.972,-0.256,-0.3,-3.2,1.0,714,848,0,,,,
R,,7302815.0,0.082,0.977,-0.162,-0.3,-2.2,0.6,709,843,0,,,,
R,,7302875.0,0.001,0.977,-0.217,0.3,-0.8,0.1,709,842,0,,,,
R,,7302936.0,-0.022,0.983,-0.205,0.2,-1.3,0.0,712,844,0,,,,
R,,7302995.0,0.019,0.976,-0.21,0.2,-1.1,0.0,708,844,0,,,,
R,,7303054.0,0.025,0.983,-0.244,0.1,-1.1,-0.2,706,845,0,,,,
R,,7303115.0,0.008,0.977,-0.216,0.0,-0.2,-0.4,703,843,0,,,,
R,,7303174.0,0.001,0.971,-0.223,0.2,0.0,-0.6,702,846,0,,,,
R,,7303235.0,0.0,0.987,-0.206,0.0,0.0,-0.6,703,848,0,,,,
R,,7303294.0,-0.014,0.957,-0.254,0.2,0.3,-0.5,705,851,0,,,,
R,,7303355.0,-0.005,0.99,-0.192,0.3,0.4,-0.5,711,854,0,,,,
R,,7303415.0,-0.01,0.977,-0.226,0.0,0.2,-0.6,714,851,0,,,,
R,,7303474.0,0.0,0.972,-0.233,-0.2,0.0,-0.6,716,856,0,,,,
R,,7303534.0,-0.019,0.979,-0.218,-0.4,-0.1,-0.3,718,859,0,,,,
R,,7303594.0,-0.006,0.975,-0.223,-0.1,-0.2,-0.2,721,862,0,,,,
R,,7303656.0,-0.008,0.975,-0.199,-0.1,-0.5,-0.2,722,861,0,,,,
R,,7303714.0,-0.02,0.981,-0.218,0.1,-0.4,-0.1,721,863,0,,,,
