side,stage,device_ms,ax,ay,az,gx,gy,gz,toe,heel,phase
L,,8686821,0.029,0.207,-0.059,-30.0,12.8,14.6,618,815,0
L,,8686831,0.013,0.209,-0.060,-29.1,12.6,14.2,614,812,0
L,,8686841,0.032,0.208,-0.049,-27.8,11.3,13.5,611,813,0
L,,8686851,0.052,0.208,-0.047,-26.5,9.6,13.4,611,816,0
L,,8686861,0.055,0.208,-0.055,-24.8,8.0,13.0,609,815,0
L,,8686871,0.052,0.200,-0.074,-23.6,6.4,12.4,610,818,0
L,,8686881,0.026,0.209,-0.106,-22.6,6.9,12.3,609,815,0
L,,8686891,-0.021,0.206,-0.110,-20.8,6.9,11.3,604,818,0
L,,8686901,-0.052,0.190,-0.111,-18.8,7.4,9.8,602,817,0
L,,8686911,-0.068,0.186,-0.135,-16.4,7.5,7.0,606,821,0
L,,8686921,-0.059,0.178,-0.173,-10.7,7.3,4.3,591,813,0
L,,8686931,-0.050,0.172,-0.191,-5.5,6.2,1.8,586,810,0
L,,8686941,-0.038,0.169,-0.187,0.6,3.5,-1.2,590,815,0
L,,8686951,-0.034,0.167,-0.185,6.6,-1.8,-4.1,599,816,0
L,,8686961,-0.037,0.159,-0.165,10.2,-6.8,-6.0,609,819,0
L,,8686971,-0.032,0.145,-0.107,12.5,-10.2,-6.9,635,824,0
L,,8686981,0.135,0.096,0.363,-27.6,-26.3,-2.4,686,842,0
L,,8686991,0.376,0.117,0.597,-27.0,-22.3,1.8,697,845,0
L,,8687001,-0.404,0.277,-0.310,47.2,39.5,4.2,701,847,0
L,,8687011,-0.085,0.162,-0.004,-25.8,-7.7,-12.4,709,855,0
L,,8687021,0.265,0.161,0.070,8.0,2.6,-8.9,715,859,0
L,,8687031,0.125,0.151,0.044,13.9,-7.2,-5.5,723,864,0
L,,8687041,0.083,0.106,0.024,3.7,-17.0,-10.4,727,868,0
L,,8687051,0.024,0.173,0.049,1.3,-15.8,-8.7,731,873,0
L,,8687061,0.020,0.171,0.043,4.9,-13.2,-10.5,738,878,0
L,,8687071,0.010,0.154,0.002,5.4,-10.7,-11.4,740,880,0
L,,8687081,0.003,0.149,0.013,6.0,-8.5,-11.0,741,880,0
L,,8687091,-0.067,0.136,0.058,3.6,-9.0,-11.7,744,884,0
L,,8687101,-0.005,0.168,0.037,8.1,-8.7,-11.0,747,885,0
L,,8687111,0.013,0.135,0.019,8.5,-10.6,-8.2,750,887,0
L,,8687121,-0.027,0.134,0.035,8.1,-8.2,-5.8,760,896,0
L,,8687131,-0.008,0.126,0.031,9.5,-3.6,-4.4,751,888,0
L,,8687141,-0.019,0.122,0.029,10.1,-1.0,-4.3,754,892,0
L,,8687151,0.014,0.126,0.026,9.6,1.7,-3.3,752,892,0
L,,8687161,0.020,0.123,0.022,9.5,2.4,-3.1,755,893,0
L,,8687171,0.020,0.122,0.018,7.0,2.4,-3.4,754,896,0
L,,8687181,0.022,0.119,0.025,5.1,1.9,-3.8,757,894,0
L,,8687191,0.023,0.114,0.029,3.9,0.9,-4.1,755,895,0
L,,8687201,0.023,0.114,0.034,3.0,-0.8,-3.9,757,893,0
L,,8687211,0.016,0.118,0.040,2.6,-2.0,-3.6,757,896,0
L,,8687221,0.006,0.124,0.046,2.9,-2.3,-3.2,757,896,0
L,,8687231,-0.001,0.124,0.049,3.7,-1.9,-2.9,758,895,0
L,,8687241,-0.005,0.123,0.047,4.8,-1.1,-2.7,760,896,0
L,,8687251,-0.007,0.123,0.048,6.0,-0.1,-2.7,758,897,0
L,,8687261,-0.006,0.122,0.045,6.9,1.1,-2.6,759,896,0
L,,8687271,-0.001,0.120,0.040,7.9,1.8,-2.5,758,895,0
L,,8687281,0.008,0.119,0.042,8.4,2.3,-2.4,759,897,0
L,,8687291,0.007,0.120,0.039,8.4,1.3,-2.8,757,896,0
L,,8687301,0.012,0.119,0.035,8.6,0.6,-2.9,758,897,0
L,,8687311,0.014,0.118,0.032,8.1,-0.4,-3.2,760,899,0
L,,8687321,0.008,0.120,0.034,7.6,-0.9,-3.1,761,899,0
L,,8687331,0.018,0.122,0.027,7.8,-1.5,-3.6,771,902,0
L,,8687341,0.016,0.127,0.014,7.3,-2.0,-3.5,761,899,0
L,,8687351,0.000,0.129,0.013,6.8,-2.5,-3.5,764,903,0
L,,8687361,0.018,0.127,0.011,7.1,-2.5,-3.5,764,902,0
L,,8687371,0.009,0.128,0.013,6.9,-2.0,-3.5,764,904,0
L,,8687381,0.007,0.128,0.018,7.0,-1.3,-3.8,764,904,0
L,,8687391,0.002,0.127,0.018,6.6,-0.7,-4.1,764,905,0
L,,8687401,0.005,0.124,0.017,6.3,-0.2,-4.3,766,906,0
L,,8687411,0.002,0.126,0.016,6.3,0.2,-4.4,763,907,0
L,,8687421,0.003,0.125,0.016,6.1,0.3,-4.5,765,906,0
L,,8687431,0.003,0.125,0.018,6.0,0.6,-4.4,765,908,0
L,,8687441,0.000,0.124,0.017,5.9,0.4,-4.4,765,910,0
L,,8687451,-0.003,0.127,0.015,5.9,0.4,-4.4,767,908,0
L,,8687461,0.002,0.126,0.014,5.7,0.3,-4.6,765,909,0
L,,8687471,-0.001,0.125,0.017,5.8,0.4,-4.8,765,907,0
L,,8687481,-0.001,0.124,0.015,5.7,0.7,-4.9,765,908,0
L,,8687491,-0.003,0.125,0.014,5.7,0.5,-5.2,763,908,0
L,,8687501,0.001,0.124,0.011,5.8,0.5,-5.4,764,910,0
L,,8687511,-0.003,0.126,0.015,5.8,0.1,-5.7,763,909,0
L,,8687521,-0.005,0.129,0.018,5.9,0.0,-6.1,762,911,0
L,,8687531,-0.010,0.131,0.012,6.2,-0.1,-6.5,761,910,0
L,,8687541,-0.012,0.132,0.010,6.2,-0.1,-6.7,755,921,0
L,,8687551,-0.015,0.131,0.012,6.3,0.0,-6.9,753,910,0
L,,8687561,-0.016,0.136,0.010,6.9,0.6,-6.8,746,909,0
L,,8687571,-0.026,0.141,0.015,6.3,1.0,-6.8,737,908,0
L,,8687581,-0.012,0.137,0.002,8.2,2.2,-6.8,724,909,0
L,,8687591,-0.007,0.147,0.008,7.9,1.8,-6.7,705,909,0
L,,8687601,-0.001,0.156,0.000,8.9,2.3,-6.6,696,910,0
L,,8687611,-0.005,0.162,0.006,8.2,2.3,-6.7,688,909,0
L,,8687621,-0.004,0.161,0.000,9.3,3.2,-6.9,674,909,0
L,,8687631,-0.003,0.159,0.006,9.6,3.5,-7.4,656,911,0
L,,8687641,0.002,0.167,-0.010,9.8,3.0,-7.9,645,907,0
L,,8687651,-0.004,0.171,0.008,10.7,3.4,-8.1,634,910,0
L,,8687661,0.000,0.170,0.008,11.1,3.7,-8.4,639,916,0
L,,8687671,0.000,0.175,0.010,11.6,4.4,-8.7,627,912,0
L,,8687681,0.001,0.181,0.014,12.4,5.5,-9.3,611,908,0
L,,8687691,0.009,0.184,0.022,13.2,8.8,-9.9,600,908,0
L,,8687701,0.012,0.185,0.022,13.9,7.9,-10.5,571,910,0
L,,8687711,0.015,0.188,0.027,14.3,9.0,-11.0,547,911,0
L,,8687721,0.021,0.185,0.037,14.5,9.5,-12.3,525,908,0
L,,8687731,0.016,0.182,0.042,15.2,10.4,-13.4,510,909,0
L,,8687741,0.003,0.185,0.049,15.4,11.2,-14.6,421,908,0
L,,8687751,0.000,0.188,0.048,16.1,12.7,-16.3,368,908,0
L,,8687761,0.000,0.194,0.027,16.8,12.8,-18.3,261,908,0
L,,8687771,0.006,0.202,-0.030,17.9,12.9,-19.3,269,905,0
L,,8687781,0.000,0.203,-0.053,19.3,12.8,-20.0,266,906,0
L,,8687791,-0.004,0.193,-0.040,19.2,13.5,-18.6,290,901,0
L,,8687801,0.006,0.188,0.032,17.6,17.2,-15.3,280,898,0
L,,8687811,0.012,0.187,0.052,15.4,18.9,-14.1,306,888,0
L,,8687821,0.007,0.157,0.058,13.1,21.5,-13.1,504,870,0
L,,8687831,-0.005,0.125,0.027,12.7,26.0,-14.5,546,843,0
L,,8687841,0.003,0.087,0.004,12.8,32.0,-11.4,581,812,0
L,,8687851,-0.001,0.078,-0.004,11.3,31.2,-9.4,580,796,0
L,,8687861,-0.033,0.032,0.054,9.3,27.0,-8.8,593,808,0
L,,8687871,-0.085,0.013,0.022,2.8,27.3,-10.0,599,809,0
L,,8687881,-0.040,0.033,0.056,2.1,25.5,-8.9,593,809,0
L,,8687891,0.015,0.020,0.084,1.6,21.3,-6.1,587,804,0
L,,8687901,0.089,0.042,0.082,-1.3,17.3,-2.7,582,799,0
L,,8687911,0.086,0.037,0.080,-8.9,13.9,-0.2,575,795,0
L,,8687921,0.050,0.022,0.068,-13.5,12.0,2.0,576,793,0
L,,8687931,0.045,0.026,0.048,-19.6,10.6,3.2,576,791,0
L,,8687941,0.037,0.037,0.021,-20.9,10.5,4.1,576,795,0
L,,8687951,0.043,0.043,0.023,-23.7,8.9,5.2,574,795,0
L,,8687961,0.065,0.051,0.028,-25.8,7.6,6.8,567,797,0
L,,8687971,0.079,0.064,0.019,-26.4,4.5,8.0,579,802,0
L,,8687981,0.083,0.075,0.004,-27.8,5.9,9.0,581,801,0
L,,8687991,0.077,0.083,-0.005,-29.5,4.4,9.8,584,803,0
L,,8688001,0.064,0.097,-0.010,-31.5,2.9,10.3,594,808,0
L,,8688011,0.060,0.111,-0.007,-34.4,0.9,10.9,593,806,0
L,,8688021,0.063,0.129,-0.002,-36.2,-0.6,11.9,599,811,0
L,,8688031,0.062,0.145,-0.004,-37.4,-2.1,13.4,605,812,0
L,,8688041,0.051,0.161,-0.005,-37.8,-2.8,14.9,608,812,0
L,,8688051,0.036,0.175,-0.007,-37.3,-2.2,16.6,608,812,0
L,,8688061,0.028,0.186,-0.007,-36.4,-0.7,17.5,610,811,0
L,,8688071,0.030,0.191,-0.004,-35.3,1.0,18.0,611,814,0
L,,8688081,0.034,0.203,0.000,-34.6,2.6,18.2,614,820,0
L,,8688091,0.027,0.216,-0.004,-33.6,4.8,17.9,614,817,0
L,,8688143,0.001,0.239,-0.053,-32.2,12.3,16.4,611,819,0
L,,8688202,-0.003,0.223,-0.159,-21.9,5.6,11.1,588,817,0
L,,8688262,0.013,0.200,-0.070,10.3,-7.8,-8.7,668,831,0
L,,8688322,0.093,0.159,0.035,8.7,-14.3,-8.7,729,868,0
L,,8688412,-0.029,0.121,0.047,6.7,-1.3,-4.5,754,892,0
L,,8688501,0.018,0.122,0.047,6.0,-2.9,-3.3,762,896,0
L,,8688562,0.013,0.126,0.017,9.0,0.4,-3.6,767,905,0
L,,8688622,0.002,0.122,0.018,5.6,-2.6,-3.7,767,907,0
L,,8688682,0.002,0.122,0.007,5.0,-0.7,-3.5,762,909,0
L,,8688742,0.000,0.128,0.001,4.6,0.3,-3.9,757,911,0
L,,8688802,-0.002,0.136,0.007,6.1,0.9,-5.1,724,909,0
L,,8688862,0.000,0.152,0.000,9.5,3.2,-6.3,678,909,0
L,,8688923,0.014,0.177,0.008,13.9,4.3,-7.6,619,910,0
L,,8688982,0.017,0.192,0.036,18.0,5.5,-12.4,494,909,0
L,,8689072,0.029,0.152,0.062,15.8,12.9,-14.2,508,855,0
L,,8689131,0.005,0.004,0.106,0.6,15.7,-3.5,609,806,0
L,,8689192,0.023,0.035,0.039,-21.7,8.6,8.9,606,802,0
L,,8689251,0.045,0.120,-0.007,-34.3,5.5,12.9,610,807,0
L,,8689342,0.003,0.225,-0.028,-35.1,3.0,17.2,619,820,0
L,,8689402,0.013,0.258,-0.116,-31.3,9.6,16.0,597,817,0
L,,8689461,-0.083,0.175,-0.227,-10.3,-6.3,0.8,591,821,0
L,,8689522,0.026,0.169,0.351,7.0,6.9,-0.8,701,846,0
L,,8689582,0.036,0.186,-0.003,4.5,-15.9,-9.6,736,877,0
L,,8689642,-0.011,0.116,0.027,6.2,-6.3,-6.9,753,890,0
L,,8689704,0.033,0.115,0.021,9.5,0.0,-5.7,757,894,0
L,,8689762,0.011,0.132,0.033,8.3,-3.1,-4.5,761,900,0
L,,8689822,0.019,0.121,0.020,6.2,1.3,-3.8,768,910,0
L,,8689882,-0.003,0.123,0.015,5.1,-0.6,-3.9,753,908,0
L,,8689942,0.004,0.124,0.000,5.1,-0.2,-4.2,727,908,0
L,,8690001,0.005,0.136,0.004,5.7,0.3,-4.8,722,909,0
L,,8690062,-0.005,0.143,0.003,7.9,0.1,-6.2,693,909,0
L,,8690152,0.013,0.178,0.006,13.0,3.2,-7.6,620,909,0
L,,8690211,0.037,0.182,0.017,17.1,6.2,-11.9,494,910,0
L,,8690272,-0.008,0.199,-0.008,21.3,5.4,-13.8,279,896,0
L,,8690332,-0.007,0.046,0.032,10.6,16.0,-4.9,586,794,0
L,,8690393,0.034,0.039,0.069,-9.2,8.6,4.7,595,796,0
L,,8690452,0.045,0.060,0.031,-23.6,7.0,12.1,598,801,0
L,,8690512,0.034,0.145,-0.004,-31.9,0.9,15.4,610,817,0
L,,8690572,0.015,0.197,-0.005,-32.2,-1.1,16.7,626,828,0
L,,8690632,-0.004,0.241,-0.022,-34.2,4.9,16.3,614,822,0
L,,8690692,-0.010,0.225,-0.145,-23.2,2.2,9.8,585,818,0
L,,8690751,-0.048,0.186,-0.178,10.2,-7.1,-8.4,599,825,0
L,,8690812,0.223,0.164,0.039,7.3,4.8,-7.7,715,859,0
L,,8690872,-0.016,0.148,0.042,2.9,-12.8,-11.6,748,883,0
L,,8690932,-0.017,0.124,0.032,8.3,0.0,-5.5,754,891,0
L,,8690992,0.022,0.124,0.032,5.8,-1.4,-3.8,760,894,0
L,,8691052,0.012,0.123,0.032,9.0,-2.6,-4.8,763,901,0
L,,8691114,0.030,0.126,0.018,7.1,-1.4,-5.0,766,905,0
L,,8691202,0.001,0.125,0.002,5.6,-0.9,-4.8,761,910,0
L,,8691262,-0.006,0.127,0.002,5.0,0.0,-4.9,744,908,0
L,,8691322,-0.001,0.144,0.006,6.6,1.2,-5.9,705,908,0
L,,8691382,-0.004,0.164,0.007,10.4,1.6,-7.0,657,910,0
L,,8691442,0.024,0.192,0.013,15.4,5.8,-10.2,622,911,0
L,,8691501,0.029,0.199,0.035,19.2,5.4,-18.2,412,906,0
L,,8691562,0.015,0.150,0.061,15.6,12.6,-13.9,401,878,0
L,,8691622,-0.058,0.008,0.063,0.7,20.9,-6.2,611,812,0
L,,8691682,0.035,0.034,0.027,-19.1,9.1,6.5,598,803,0
L,,8691742,0.046,0.099,-0.005,-32.5,4.5,10.8,607,812,0
L,,8691802,0.032,0.181,-0.023,-35.3,1.1,15.5,616,817,0
L,,8691864,0.012,0.200,-0.041,-32.4,9.0,14.9,622,824,0
L,,8691922,0.048,0.212,-0.082,-24.8,11.8,13.4,609,825,0
L,,8691982,-0.053,0.173,-0.185,-8.7,2.8,3.3,614,830,0
L,,8692041,0.027,0.114,0.323,-2.0,2.1,-0.9,694,846,0
L,,8692132,0.010,0.174,0.001,7.2,-14.1,-12.7,750,887,0
L,,8692222,0.027,0.118,0.026,10.6,5.2,-3.5,761,897,0
L,,8692282,-0.002,0.133,0.033,5.5,-3.8,-3.6,764,901,0
L,,8692342,0.021,0.121,0.027,8.6,1.3,-3.7,767,907,0
L,,8692402,0.005,0.120,0.019,5.7,-1.8,-3.7,770,911,0
L,,8692462,0.003,0.127,0.005,4.9,-1.1,-3.9,766,909,0
L,,8692522,-0.001,0.129,0.003,4.7,0.3,-4.4,757,912,0
L,,8692583,-0.006,0.134,0.004,7.3,1.7,-5.9,723,908,0
L,,8692642,0.000,0.158,0.003,9.6,3.1,-6.5,665,908,0
L,,8692702,0.011,0.178,0.007,13.6,5.8,-8.1,600,911,0
L,,8692762,0.005,0.190,0.028,17.0,7.3,-13.0,485,908,0
L,,8692822,-0.008,0.193,0.031,20.4,8.6,-15.5,243,897,0
L,,8692882,-0.043,0.038,0.021,6.3,22.4,-8.3,613,813,0
L,,8692942,0.031,0.032,0.055,-13.5,10.4,1.3,603,805,0
L,,8693032,0.072,0.126,-0.011,-34.4,7.0,9.2,603,811,0
L,,8693092,0.044,0.184,-0.016,-36.0,2.8,14.4,623,820,0
L,,8693152,0.030,0.224,-0.043,-33.8,9.1,16.2,628,825,0
L,,8693212,-0.004,0.194,-0.087,-24.0,10.7,12.4,607,826,0
L,,8693272,-0.042,0.172,-0.202,2.5,1.6,-1.5,607,831,0
L,,8693333,0.149,0.152,0.016,10.8,-3.6,-8.6,718,863,0
L,,8693392,0.022,0.179,-0.053,11.1,-8.2,-12.5,750,886,0
L,,8693452,-0.018,0.120,0.046,12.9,2.6,-3.5,758,895,0
L,,8693512,0.017,0.118,0.036,5.8,-3.1,-3.5,761,898,0
L,,8693572,0.004,0.125,0.030,6.7,2.0,-4.2,764,901,0
L,,8693632,0.002,0.123,0.022,4.8,0.8,-3.4,762,904,0
L,,8693692,0.000,0.122,0.018,4.5,2.3,-2.6,751,908,0
L,,8693752,-0.002,0.125,0.028,4.2,1.9,-3.7,727,903,0
L,,8693812,0.000,0.123,-0.008,5.2,-1.0,-4.8,703,906,0
L,,8693872,-0.007,0.150,0.014,7.3,1.2,-7.0,666,908,0
L,,8693932,-0.009,0.175,0.013,10.0,2.3,-7.9,628,908,0
L,,8693991,0.022,0.182,0.018,13.7,7.0,-10.0,591,909,0
L,,8694053,-0.016,0.212,-0.002,16.2,9.6,-18.9,276,910,0
L,,8694112,-0.008,0.142,0.046,11.5,25.1,-15.4,434,845,0
L,,8694172,0.052,0.058,0.080,3.0,22.4,-7.2,568,790,0
L,,8694232,0.042,0.036,0.022,-18.9,14.1,2.7,572,793,0
L,,8694292,0.073,0.103,-0.006,-33.3,6.3,10.3,587,805,0
L,,8694352,0.041,0.180,-0.002,-36.9,2.9,16.5,604,810,0
L,,8694412,0.020,0.223,-0.034,-35.7,11.1,16.4,602,817,0
L,,8694472,0.033,0.235,-0.107,-24.5,8.8,13.3,579,812,0
L,,8694531,-0.036,0.188,-0.199,2.7,1.9,-2.2,584,816,0
L,,8694592,-0.163,0.190,-0.121,12.2,-0.4,-13.1,705,852,0
L,,8694652,0.036,0.145,0.003,7.2,-10.8,-10.4,738,879,0
L,,8694713,-0.032,0.124,0.041,6.7,-2.0,-4.9,758,894,0
L,,8694772,0.020,0.114,0.027,5.8,1.8,-3.3,762,897,0
L,,8694862,0.000,0.119,0.041,9.2,0.1,-3.4,761,897,0
L,,8694922,0.012,0.127,0.012,6.0,-2.6,-4.0,766,903,0
L,,8694982,-0.001,0.124,0.022,5.8,-0.5,-4.4,769,912,0
L,,8695042,-0.005,0.127,0.005,5.4,-0.5,-4.6,760,911,0
L,,8695102,0.000,0.127,0.002,5.6,0.5,-6.2,741,909,0
L,,8695162,-0.015,0.153,0.004,7.8,0.1,-7.1,713,909,0
L,,8695222,-0.006,0.178,0.012,10.7,5.0,-8.5,677,909,0
L,,8695282,0.010,0.200,0.055,14.6,13.3,-13.2,563,907,0
L,,8695342,0.021,0.231,-0.045,21.0,14.6,-20.9,271,904,0
L,,8695402,0.048,0.053,0.052,12.8,31.2,-12.6,566,787,0
L,,8695463,0.105,0.042,0.080,-8.1,12.6,-0.2,588,802,0
L,,8695522,0.067,0.058,0.029,-32.3,0.1,9.8,604,811,0
L,,8695583,0.043,0.163,-0.016,-38.1,-4.3,15.2,612,812,0
L,,8695642,0.018,0.215,-0.005,-33.5,2.5,21.1,617,819,0
L,,8695702,-0.007,0.265,-0.074,-31.3,17.9,19.2,598,817,0
L,,8695762,-0.082,0.194,-0.278,-12.7,2.1,3.3,597,821,0
L,,8695822,0.287,0.135,0.603,-34.9,-30.4,-7.8,703,850,0
L,,8695882,0.021,0.180,-0.009,7.2,-12.4,-9.4,743,881,0
L,,8695942,-0.021,0.112,0.031,7.4,-5.6,-6.4,759,893,0
L,,8696002,0.028,0.114,0.027,10.1,-5.1,-5.9,761,900,0
L,,8696062,0.002,0.129,0.019,8.4,-0.8,-4.1,768,907,0
L,,8696124,-0.003,0.122,0.020,5.4,1.4,-3.2,755,910,0
L,,8696182,-0.003,0.123,0.007,4.6,1.1,-2.9,726,908,0
L,,8696242,-0.002,0.127,0.007,4.1,-0.1,-3.3,719,909,0
L,,8696333,0.001,0.133,0.005,6.3,1.0,-5.2,705,910,0
L,,8696392,-0.005,0.151,-0.001,8.5,1.3,-6.5,658,910,0
L,,8696452,0.005,0.174,0.003,12.0,3.5,-7.5,611,911,0
L,,8696512,0.039,0.176,0.019,15.6,5.0,-9.7,539,910,0
L,,8696572,-0.002,0.213,-0.033,19.3,0.4,-16.2,328,905,0
L,,8696632,0.017,0.055,0.035,14.1,17.3,-8.9,562,809,0
L,,8696692,0.076,0.054,0.103,-5.6,12.6,0.4,574,801,0
L,,8696752,0.029,0.047,0.043,-23.3,11.0,10.3,572,802,0
L,,8696812,0.049,0.136,-0.009,-32.7,3.4,14.7,594,814,0
L,,8696874,0.011,0.200,0.000,-33.8,0.2,17.9,607,819,0
L,,8696932,-0.009,0.239,-0.024,-35.6,4.8,17.7,598,820,0
L,,8696992,-0.010,0.227,-0.139,-23.5,3.9,10.2,576,818,0
L,,8697052,-0.040,0.183,-0.183,7.6,-11.8,-7.3,605,830,0
L,,8697111,0.013,0.123,-0.108,9.1,-3.5,-12.9,712,855,0
L,,8697172,-0.061,0.137,-0.017,5.2,-14.0,-13.2,742,878,0
L,,8697232,-0.003,0.124,0.039,8.6,-1.2,-6.1,756,891,0
L,,8697292,0.044,0.113,0.017,6.9,-1.9,-5.2,762,896,0
L,,8697352,0.015,0.123,0.027,6.8,-3.6,-4.4,768,905,0
L,,8697413,0.023,0.129,0.005,5.9,-1.5,-4.4,767,907,0
L,,8697472,0.000,0.125,0.006,5.3,-0.9,-4.1,762,908,0
L,,8697532,0.002,0.126,-0.002,4.5,-0.3,-4.1,754,907,0
L,,8697593,-0.003,0.134,0.000,5.4,1.0,-4.2,733,908,0
L,,8697652,0.006,0.140,-0.003,7.8,1.7,-5.6,684,910,0
L,,8697712,0.005,0.175,-0.002,12.1,0.8,-6.4,644,910,0
L,,8697772,0.039,0.183,0.013,16.2,3.7,-7.8,560,909,0
L,,8697833,0.021,0.195,-0.001,19.5,-0.6,-15.3,257,907,0
L,,8697892,0.024,0.140,0.051,14.4,6.7,-11.4,531,858,0
L,,8697953,-0.020,0.035,0.094,1.8,11.2,-4.3,606,809,0
L,,8698012,0.014,0.039,0.046,-19.2,7.4,9.2,593,802,0
L,,8698072,0.044,0.097,0.017,-30.4,6.7,14.1,604,810,0
L,,8698131,0.025,0.186,0.008,-36.5,-0.9,17.8,621,822,0
L,,8698192,0.002,0.238,-0.013,-38.5,1.3,16.7,623,824,0
L,,8698253,-0.002,0.240,-0.102,-25.8,7.7,11.7,588,822,0
L,,8698312,-0.040,0.181,-0.224,2.1,-1.3,-4.9,600,832,0
L,,8698373,-0.413,0.288,-0.683,58.6,35.9,0.0,712,855,0
L,,8698432,0.028,0.166,0.008,5.7,-13.5,-11.5,744,882,0
L,,8698492,-0.022,0.124,0.048,3.8,-4.7,-7.0,753,890,0
L,,8698552,0.049,0.112,0.028,8.6,-0.5,-5.5,757,893,0
L,,8698612,-0.008,0.140,0.030,7.8,-5.6,-5.0,763,901,0
L,,8698672,0.026,0.124,0.016,6.5,-0.5,-4.6,765,909,0
L,,8698732,-0.004,0.126,0.010,5.8,-1.0,-4.2,751,909,0
L,,8698792,0.004,0.124,0.008,5.1,-0.6,-4.5,728,909,0
L,,8698852,0.001,0.128,0.001,5.8,1.1,-5.1,722,908,0
L,,8698913,-0.003,0.139,0.004,7.8,2.1,-6.6,697,909,0
L,,8698974,0.000,0.160,-0.002,10.5,2.0,-7.4,659,909,0
L,,8699032,0.015,0.177,0.014,13.8,4.9,-8.2,614,909,0
L,,8699092,0.002,0.191,0.016,17.4,7.6,-16.0,395,904,0
L,,8699152,0.034,0.172,0.049,16.7,14.4,-15.1,513,874,0
L,,8699212,-0.082,0.039,0.024,4.4,23.1,-9.9,607,807,0
L,,8699272,0.044,0.037,0.034,-17.3,10.5,3.1,593,805,0
L,,8699333,0.060,0.102,0.007,-32.6,6.5,10.1,601,813,0
L,,8699392,0.039,0.181,-0.021,-36.5,4.3,14.8,612,817,0
L,,8699453,0.020,0.204,-0.021,-33.1,8.9,14.4,622,824,0
L,,8699512,0.057,0.218,-0.087,-28.3,13.1,13.5,604,817,0
L,,8699572,-0.076,0.178,-0.178,-14.6,-0.2,5.6,611,827,0
L,,8699632,-0.002,0.116,0.016,6.7,-7.2,-5.7,665,839,0
L,,8699694,0.100,0.145,0.032,14.9,-4.9,-4.9,726,865,0
L,,8699752,-0.044,0.132,0.055,2.0,-9.7,-11.3,747,882,0
L,,8699812,-0.014,0.119,0.044,11.0,4.8,-3.2,758,892,0
L,,8699873,0.023,0.120,0.037,5.2,-2.0,-3.3,760,895,0
L,,8699932,-0.002,0.120,0.040,10.4,-1.5,-4.5,762,900,0
L,,8699993,0.019,0.131,0.006,6.6,-1.6,-4.8,768,906,0
L,,8700052,-0.003,0.124,0.017,5.6,0.0,-4.6,765,910,0
L,,8700112,-0.010,0.127,0.011,4.9,1.4,-4.9,757,908,0
L,,8700172,-0.007,0.131,0.005,5.0,0.8,-5.9,728,908,0
L,,8700232,-0.013,0.149,0.006,7.5,1.9,-6.3,672,912,0
L,,8700292,-0.009,0.179,0.005,10.7,5.2,-7.5,626,910,0
L,,8700354,0.032,0.182,0.022,15.4,9.6,-10.5,520,910,0
L,,8700413,0.004,0.225,-0.037,20.6,6.3,-18.6,230,905,0
L,,8700472,0.022,0.139,0.028,14.3,20.4,-12.8,557,816,0
L,,8700533,0.094,0.045,0.110,-4.0,12.5,-0.6,583,803,0
L,,8700592,0.042,0.052,0.033,-25.1,12.9,7.2,584,804,0
L,,8700652,0.063,0.141,-0.015,-35.6,5.4,11.6,602,812,0
L,,8700712,0.027,0.196,-0.012,-34.7,4.3,15.2,619,822,0
L,,8700772,0.017,0.222,-0.047,-32.4,12.7,14.9,618,825,0
L,,8700833,0.046,0.211,-0.108,-22.9,13.3,11.3,590,822,0
L,,8700892,-0.010,0.169,-0.199,1.5,-0.3,-1.8,589,828,0
L,,8700953,-0.183,0.188,-0.441,-15.6,-16.3,-13.7,707,853,0
L,,8701012,0.031,0.156,-0.002,7.7,-10.3,-10.6,745,882,0
L,,8701074,-0.035,0.126,0.046,6.3,-4.4,-4.6,759,895,0
L,,8701132,0.025,0.117,0.030,6.4,0.8,-3.7,758,895,0
L,,8701192,-0.007,0.126,0.044,8.0,-2.0,-3.9,759,897,0
L,,8701252,0.022,0.120,0.026,7.9,0.5,-3.5,765,904,0
L,,8701312,-0.004,0.126,0.022,5.7,-1.1,-4.0,766,904,0
L,,8701373,0.002,0.127,0.020,6.4,1.0,-4.8,768,910,0
L,,8701432,-0.008,0.135,0.014,5.5,-0.7,-5.8,758,912,0
L,,8701493,-0.005,0.142,0.004,7.9,1.6,-6.8,697,909,0
L,,8701552,-0.009,0.161,0.009,9.4,3.8,-7.9,642,910,0
L,,8701612,0.018,0.192,0.030,14.6,9.6,-11.0,588,909,0
L,,8701672,0.012,0.218,0.023,18.9,14.2,-20.5,268,910,0
L,,8701732,-0.004,0.135,0.064,11.2,21.0,-15.9,503,854,0
L,,8701793,0.038,0.018,0.116,-1.5,19.4,-4.9,585,806,0
L,,8701852,0.054,0.040,0.026,-25.3,6.6,6.2,582,807,0
L,,8701913,0.052,0.119,-0.008,-36.2,2.8,11.5,596,812,0
L,,8701972,0.044,0.193,-0.013,-35.5,6.5,17.7,611,819,0
L,,8702033,0.031,0.231,-0.048,-35.1,11.0,18.0,614,824,0
L,,8702092,0.024,0.229,-0.144,-22.7,6.7,11.9,593,823,0
L,,8702152,-0.058,0.184,-0.199,10.8,-5.9,-4.9,609,831,0
L,,8702212,0.210,0.174,0.058,17.9,12.1,-5.3,717,859,0
L,,8702272,0.026,0.137,-0.010,6.7,-8.9,-10.5,745,884,0
L,,8702333,-0.017,0.115,0.048,10.5,1.0,-4.4,756,892,0
L,,8702422,-0.001,0.126,0.040,7.2,-5.4,-4.0,764,899,0
L,,8702484,0.019,0.129,0.011,7.4,0.7,-3.9,768,905,0
L,,8702541,-0.005,0.125,0.020,5.0,-0.4,-3.9,767,909,0
L,,8702602,0.000,0.120,0.017,5.0,1.2,-4.0,764,911,0
L,,8702663,-0.002,0.133,0.010,4.6,0.3,-5.4,753,908,0
L,,8702722,-0.006,0.139,0.009,5.7,0.8,-6.5,710,909,0
L,,8702783,-0.010,0.157,0.008,8.1,2.0,-7.5,662,910,0
L,,8702842,0.005,0.175,0.011,11.5,7.8,-8.8,628,909,0
L,,8702902,0.005,0.181,0.047,15.4,15.5,-13.5,432,912,0
L,,8702962,0.021,0.213,0.049,18.6,17.7,-15.1,262,897,0
L,,8703022,-0.028,0.033,0.042,7.8,23.1,-9.0,601,818,0
L,,8703083,0.041,0.028,0.064,-15.1,9.9,3.9,580,806,0
L,,8703142,0.072,0.086,0.009,-29.0,11.5,10.7,584,806,0
L,,8703204,0.048,0.176,-0.025,-35.6,4.1,15.1,600,813,0
L,,8703262,0.033,0.201,-0.025,-33.7,9.5,15.2,616,822,0
L,,8703323,0.034,0.234,-0.097,-28.8,9.4,16.6,585,822,0
L,,8703413,-0.020,0.173,-0.068,0.4,-5.0,-3.1,646,831,0
L,,8703472,0.104,0.150,0.019,10.9,-6.0,-6.6,727,864,0
L,,8703533,0.009,0.164,-0.010,8.3,-10.2,-12.2,752,886,0
L,,8703592,-0.007,0.120,0.038,10.3,1.8,-4.0,761,896,0
L,,8703653,0.034,0.118,0.029,6.0,-0.4,-4.0,762,897,0
L,,8703712,0.005,0.130,0.027,8.0,-0.8,-3.4,768,903,0
L,,8703772,0.020,0.127,0.011,6.7,0.2,-3.6,770,907,0
L,,8703832,0.002,0.126,0.015,5.8,0.9,-3.4,768,910,0
L,,8703894,0.004,0.124,0.009,5.6,0.5,-4.3,765,911,0
L,,8703953,-0.013,0.135,0.011,5.9,0.0,-5.8,752,909,0
L,,8704012,0.003,0.156,-0.003,9.5,0.2,-6.2,640,909,0
L,,8704073,0.009,0.184,-0.010,13.3,2.4,-6.9,564,912,0
L,,8704132,0.055,0.195,0.036,18.2,4.6,-9.4,514,912,0
L,,8704192,0.007,0.243,-0.051,23.6,-2.0,-17.7,263,904,0
L,,8704252,0.034,0.034,0.059,15.0,12.3,-5.4,571,782,0
L,,8704312,0.078,0.023,0.097,-4.2,7.3,5.6,591,805,0
L,,8704373,0.011,0.046,0.054,-26.6,6.4,14.8,592,803,0
L,,8704432,0.028,0.156,-0.019,-34.6,0.5,16.9,600,815,0
L,,8704493,-0.009,0.216,0.001,-35.0,-4.3,19.8,612,823,0
L,,8704552,-0.063,0.264,-0.027,-36.4,6.7,16.7,598,825,0
L,,8704614,-0.083,0.216,-0.220,-17.3,3.2,5.0,579,830,0
L,,8704672,0.192,0.110,0.258,2.3,-19.5,1.2,697,849,0
L,,8704732,0.080,0.185,-0.028,8.0,-16.1,-13.5,737,873,0
L,,8704823,-0.013,0.127,0.042,9.4,0.0,-4.8,759,894,0
L,,8704882,0.032,0.121,0.026,6.3,-2.3,-2.2,767,903,0
L,,8704943,0.001,0.130,0.025,7.7,-2.2,-4.8,767,903,0
L,,8705033,0.009,0.124,0.015,6.3,-1.0,-4.3,766,910,0
L,,8705092,-0.001,0.123,0.007,5.6,0.1,-4.0,751,910,0
L,,8705153,0.017,0.130,-0.009,6.4,1.2,-3.9,720,908,0
L,,8705212,0.005,0.138,0.000,7.9,0.0,-5.5,675,911,0
L,,8705272,0.003,0.168,0.003,12.9,1.0,-6.7,633,911,0
L,,8705333,0.046,0.194,0.018,17.7,3.3,-8.3,605,909,0
L,,8705394,0.013,0.226,0.015,21.6,-1.7,-18.0,213,909,0
L,,8705453,0.045,0.155,0.031,14.7,7.2,-13.9,500,841,0
L,,8705512,-0.020,0.019,0.116,-1.7,13.0,-2.6,605,805,0
L,,8705573,0.011,0.030,0.025,-22.6,6.5,11.2,605,804,0
L,,8705632,0.035,0.129,-0.007,-34.3,1.5,14.6,607,808,0
L,,8705693,0.021,0.189,-0.004,-35.5,-3.4,18.4,617,816,0
L,,8705752,-0.006,0.240,-0.007,-36.8,4.1,17.9,621,820,0
L,,8705842,-0.092,0.189,-0.231,-13.5,8.4,2.1,610,830,0
L,,8705903,0.224,0.147,0.407,-4.3,-10.4,-0.4,694,845,0
L,,8705962,0.045,0.180,-0.006,5.5,-15.9,-11.5,738,875,0
L,,8706022,-0.029,0.118,0.047,6.6,-9.2,-5.8,755,892,0
L,,8706083,0.043,0.112,0.028,10.9,1.6,-4.6,760,896,0
L,,8706142,-0.006,0.127,0.038,7.4,-5.8,-4.4,763,900,0
L,,8706203,0.019,0.125,0.010,7.0,0.1,-4.5,767,908,0
L,,8706262,-0.002,0.122,0.013,5.2,-0.6,-3.9,767,910,0
L,,8706323,0.002,0.123,0.010,4.5,-0.7,-3.9,764,911,0
L,,8706382,-0.002,0.129,0.003,5.0,0.5,-4.8,757,911,0
L,,8706443,-0.010,0.134,0.001,6.7,0.5,-5.7,731,909,0
L,,8706502,-0.005,0.160,0.000,8.5,-0.4,-6.3,695,912,0
L,,8706562,0.010,0.178,-0.004,13.1,5.1,-7.6,653,909,0
L,,8706623,0.017,0.188,0.053,16.4,6.8,-11.7,518,909,0
L,,8706682,-0.053,0.216,-0.047,20.9,9.0,-20.0,284,904,0
L,,8706743,-0.007,0.038,0.054,6.9,25.0,-6.8,599,808,0
L,,8706804,0.073,0.033,0.056,-9.3,14.8,0.1,598,805,0
L,,8706892,0.069,0.120,-0.010,-36.3,3.9,8.4,615,816,0
L,,8706952,0.032,0.191,-0.033,-35.2,4.5,13.8,624,818,0
L,,8707012,0.029,0.198,-0.043,-31.2,10.3,13.2,630,825,0
L,,8707073,0.037,0.208,-0.062,-25.6,8.1,13.1,619,823,0
L,,8707132,-0.071,0.186,-0.133,-11.1,6.3,5.1,615,825,0
L,,8707193,0.087,0.108,0.204,-1.1,-3.4,-3.4,673,840,0
L,,8707252,0.094,0.112,-0.007,2.1,-14.4,-7.2,727,866,0
L,,8707312,-0.070,0.142,0.036,4.3,-7.0,-10.5,746,883,0
L,,8707373,0.003,0.116,0.038,10.8,4.6,-2.8,756,891,0
L,,8707432,0.013,0.118,0.043,3.4,-3.2,-3.0,758,893,0
L,,8707493,0.002,0.114,0.042,11.0,2.5,-2.9,759,893,0
L,,8707554,0.019,0.117,0.024,6.8,-1.9,-3.3,765,904,0
L,,8707613,0.001,0.124,0.017,7.0,-0.4,-4.1,767,907,0
L,,8707672,0.001,0.126,0.004,6.2,-0.5,-4.3,766,910,0
L,,8707733,-0.006,0.127,0.003,8.6,0.7,-5.5,757,911,0
L,,8707792,-0.007,0.142,-0.001,7.6,-0.7,-5.9,730,910,0
L,,8707852,0.000,0.175,-0.004,10.8,2.5,-7.1,688,907,0
L,,8707943,0.010,0.189,0.057,17.2,14.0,-13.6,479,909,0
L,,8708002,-0.029,0.224,-0.001,23.4,15.1,-17.1,276,905,0
L,,8708063,-0.019,0.040,0.043,5.6,23.3,-7.4,608,812,0
L,,8708123,0.040,0.035,0.057,-10.3,9.5,1.1,603,800,0
L,,8708182,0.046,0.059,0.015,-29.3,3.9,8.2,613,810,0
L,,8708274,0.036,0.190,-0.011,-36.8,4.5,15.3,621,816,0
L,,8708333,0.022,0.222,-0.040,-34.0,8.5,17.7,623,820,0
L,,8708392,0.037,0.229,-0.095,-25.1,10.6,13.5,608,815,0
L,,8708453,-0.046,0.182,-0.206,-2.4,-1.6,0.1,604,825,0
L,,8708512,-0.205,0.212,-0.418,21.0,-12.1,-9.6,701,849,0
L,,8708573,0.029,0.151,0.002,5.7,-14.3,-10.6,740,876,0
L,,8708663,0.013,0.121,0.033,12.1,5.0,-3.8,758,893,0
L,,8708722,0.005,0.124,0.046,5.6,-5.0,-4.0,761,897,0
L,,8708782,0.004,0.119,0.033,8.6,1.0,-3.8,767,904,0
L,,8708842,0.014,0.124,0.021,6.0,-2.0,-4.4,767,907,0
L,,8708903,0.000,0.120,0.010,5.8,-1.2,-4.1,763,910,0
L,,8708993,-0.008,0.126,0.004,4.3,-0.3,-4.4,745,909,0
L,,8709054,-0.008,0.139,0.006,5.7,-0.9,-5.6,723,909,0
L,,8709113,-0.011,0.149,0.000,8.2,0.7,-6.8,702,909,0
L,,8709172,-0.001,0.175,0.002,11.4,5.7,-8.2,667,907,0
L,,8709233,0.014,0.193,0.055,15.4,10.0,-13.2,532,908,0
L,,8709292,-0.031,0.192,-0.009,18.7,14.7,-18.9,256,905,0
L,,8709353,0.020,0.070,0.010,9.7,28.5,-9.4,595,802,0
L,,8709413,0.123,0.055,0.065,-5.8,15.8,-2.8,594,802,0
L,,8709472,0.075,0.064,0.010,-29.6,2.8,6.1,614,816,0
L,,8709533,0.065,0.153,-0.021,-37.9,-0.7,12.0,618,815,0
L,,8709592,0.042,0.194,-0.024,-32.9,7.5,17.6,630,820,0
L,,8709653,0.042,0.233,-0.055,-32.4,15.7,18.2,618,821,0
L,,8709712,-0.030,0.218,-0.169,-20.5,4.2,12.4,618,826,0
L,,8709774,-0.053,0.176,-0.154,14.0,-6.7,-7.0,623,834,0
L,,8709833,0.158,0.127,0.038,12.4,2.3,-4.4,720,862,0
L,,8709893,0.011,0.133,0.012,6.9,-5.0,-9.8,744,881,0
L,,8709953,-0.006,0.116,0.038,11.2,2.9,-4.1,759,891,0
L,,8710042,-0.001,0.129,0.046,6.1,-1.6,-2.9,761,899,0
L,,8710103,0.020,0.122,0.027,7.6,0.0,-3.2,766,900,0
L,,8710193,-0.003,0.128,0.012,6.6,-0.6,-4.3,768,908,0
L,,8710252,-0.001,0.127,0.007,5.4,-0.8,-4.7,765,910,0
L,,8710313,-0.004,0.128,0.005,5.9,0.7,-5.9,753,910,0
L,,8710373,-0.009,0.150,0.004,6.9,0.2,-6.7,713,912,0
L,,8710432,-0.008,0.184,0.007,10.9,3.0,-8.1,670,910,0
L,,8710495,0.016,0.212,0.063,16.1,11.1,-12.9,531,910,0
L,,8710552,0.022,0.236,-0.037,21.3,12.1,-21.1,274,905,0
L,,8710613,0.054,0.058,0.042,13.0,28.7,-10.3,579,796,0
L,,8710672,0.100,0.039,0.085,-7.8,18.3,-0.8,593,803,0
L,,8710733,0.075,0.053,0.017,-29.1,4.2,7.0,607,811,0
L,,8710792,0.048,0.155,-0.013,-39.5,-0.6,12.9,612,813,0
L,,8710853,0.036,0.217,-0.017,-35.3,4.0,18.2,622,819,0
L,,8710913,0.012,0.242,-0.054,-32.8,13.3,17.5,611,820,0
L,,8710972,-0.077,0.212,-0.204,-18.9,0.2,8.2,598,819,0
L,,8711033,0.148,0.115,0.349,-11.2,-21.3,-8.0,694,848,0
L,,8711123,-0.067,0.156,-0.023,6.4,-7.6,-14.0,747,884,0
L,,8711183,-0.030,0.122,0.057,13.0,2.4,-3.9,758,894,0
L,,8711245,0.031,0.120,0.028,7.7,-1.5,-4.3,762,895,0
L,,8711302,0.000,0.120,0.025,7.9,-0.4,-4.3,764,900,0
L,,8711363,0.008,0.128,0.016,5.8,1.1,-3.7,765,905,0
L,,8711422,-0.005,0.123,0.011,4.6,2.1,-2.5,757,904,0
L,,8711483,-0.005,0.123,0.020,4.1,-0.2,-3.6,746,907,0
L,,8711542,0.018,0.131,-0.005,6.5,2.6,-4.9,718,909,0
L,,8711603,0.000,0.154,0.001,9.4,-0.3,-6.8,633,911,0
L,,8711663,0.006,0.180,0.010,14.2,2.8,-8.0,567,914,0
L,,8711723,0.056,0.194,0.027,19.8,4.3,-11.1,495,909,0
L,,8711783,0.002,0.216,-0.033,24.8,1.1,-13.8,240,902,0
L,,8711842,0.007,0.038,0.017,11.3,17.4,-3.6,546,756,0
L,,8711904,0.059,0.043,0.081,-6.8,8.2,5.0,559,786,0
L,,8711962,0.019,0.056,0.034,-22.4,7.3,13.7,565,789,0
L,,8712023,0.025,0.144,-0.004,-31.0,-1.4,18.7,585,805,0
L,,8712083,-0.014,0.198,0.001,-32.0,-3.1,19.3,598,814,0
L,,8712172,-0.015,0.237,-0.060,-30.2,8.2,14.0,587,817,0
L,,8712233,-0.102,0.186,-0.178,-14.1,6.5,3.0,578,816,0
L,,8712292,0.200,0.116,0.299,-11.6,-23.0,-6.6,683,840,0
L,,8712353,0.071,0.131,0.005,2.7,-16.8,-11.6,729,870,0
L,,8712413,0.021,0.152,0.013,5.9,-10.8,-8.4,756,894,0
L,,8712473,0.019,0.124,0.025,10.0,4.8,-4.3,760,895,0
L,,8712533,0.005,0.125,0.054,5.9,-6.1,-4.4,763,898,0
L,,8712592,0.032,0.120,0.010,10.1,0.6,-4.2,766,904,0
L,,8712654,0.002,0.124,0.012,6.3,-3.6,-4.2,768,908,0
L,,8712712,0.006,0.123,-0.001,5.2,-1.2,-4.1,761,910,0
L,,8712773,0.002,0.130,-0.006,5.4,0.1,-4.2,749,908,0
L,,8712833,0.010,0.138,-0.002,7.3,0.8,-5.1,717,907,0
L,,8712893,0.003,0.156,0.000,10.8,-0.3,-6.3,656,909,0
L,,8712953,0.026,0.183,-0.005,15.6,2.2,-6.7,621,912,0
L,,8713013,0.045,0.191,0.041,19.7,1.1,-10.4,451,911,0
L,,8713073,-0.015,0.231,0.037,22.4,0.3,-14.7,237,900,0
L,,8713132,-0.096,0.018,0.005,7.9,13.9,-4.3,608,814,0
L,,8713223,0.013,0.035,0.049,-21.7,8.0,11.5,596,802,0
L,,8713283,0.032,0.130,0.000,-32.9,3.1,14.5,608,812,0
L,,8713342,0.008,0.195,-0.002,-34.6,-1.4,17.4,619,821,0
L,,8713404,-0.003,0.237,-0.015,-36.5,3.1,16.9,617,822,0
L,,8713462,0.037,0.224,-0.105,-24.7,6.0,11.5,604,826,0
L,,8713523,-0.026,0.177,-0.210,2.9,-0.8,-4.6,594,833,0
L,,8713583,-0.264,0.217,-0.432,-16.0,-19.4,-12.4,705,851,0
L,,8713643,-0.042,0.150,0.011,5.1,-16.4,-13.3,742,878,0
L,,8713703,-0.030,0.121,0.033,7.3,-3.0,-4.4,761,895,0
L,,8713763,0.030,0.110,0.019,6.6,0.4,-4.4,762,898,0
L,,8713853,0.010,0.123,0.020,7.0,0.4,-3.7,766,906,0
L,,8713913,0.015,0.126,0.015,5.8,-3.5,-4.5,769,907,0
L,,8713973,0.002,0.126,0.002,5.6,-1.8,-4.5,766,909,0
L,,8714033,0.000,0.127,0.002,5.7,-0.2,-4.6,758,909,0
L,,8714094,0.000,0.132,0.000,6.0,0.5,-5.6,746,909,0
L,,8714153,0.006,0.153,0.003,9.4,0.0,-6.4,711,907,0
L,,8714243,0.027,0.191,0.010,15.7,4.3,-9.3,692,909,0
L,,8714303,-0.010,0.199,0.054,18.5,10.2,-15.5,226,909,0
L,,8714363,0.079,0.162,0.065,15.8,14.2,-13.8,497,867,0
L,,8714422,-0.066,0.041,0.072,2.0,29.6,-9.0,613,804,0
L,,8714482,0.037,0.032,0.022,-20.8,7.7,4.4,612,798,0
L,,8714542,0.058,0.115,-0.001,-37.9,1.8,9.2,619,804,0
L,,8714603,0.044,0.191,-0.024,-37.3,0.1,15.1,622,806,0
L,,8714663,0.008,0.218,-0.023,-34.6,7.9,16.3,631,816,0
L,,8714752,-0.070,0.189,-0.173,-15.4,6.4,5.9,616,821,0
L,,8714813,0.213,0.087,0.385,-7.7,-12.6,0.9,689,840,0
L,,8714875,0.051,0.182,0.000,5.8,-18.4,-12.1,739,877,0
L,,8714933,-0.007,0.132,0.039,5.4,-12.9,-7.9,752,888,0
L,,8714993,0.028,0.118,0.028,9.5,4.8,-3.7,760,898,0
L,,8715053,0.000,0.128,0.038,2.3,-5.0,-3.5,763,900,0
L,,8715113,0.007,0.122,0.032,8.9,2.5,-3.6,762,904,0
L,,8715172,0.009,0.124,0.023,5.9,-1.9,-4.3,767,906,0
L,,8715233,0.003,0.124,0.018,6.3,-0.2,-4.6,765,910,0
L,,8715323,0.002,0.124,-0.003,5.9,2.6,-5.9,748,911,0
L,,8715382,-0.007,0.143,0.004,6.4,2.0,-6.8,676,909,0
L,,8715443,-0.001,0.160,0.001,9.4,5.1,-7.5,603,910,0
L,,8715502,0.017,0.176,0.015,13.2,9.7,-9.7,562,909,0
L,,8715563,0.005,0.191,0.028,16.3,10.0,-16.9,273,910,0
L,,8715625,-0.004,0.169,0.054,16.4,17.3,-15.8,250,879,0
L,,8715683,-0.044,0.018,0.030,1.5,18.9,-10.2,587,800,0
L,,8715743,0.025,0.037,0.029,-19.4,17.9,2.4,575,797,0
L,,8715833,0.062,0.145,-0.024,-35.6,8.3,11.4,583,803,0
L,,8715893,0.051,0.201,-0.011,-34.7,6.9,15.5,605,811,0
L,,8715953,0.029,0.236,-0.061,-33.3,10.8,16.7,606,816,0
L,,8716013,-0.092,0.221,-0.158,-21.3,9.4,11.1,580,815,0
L,,8716073,-0.020,0.147,-0.099,8.2,-8.0,-7.4,657,837,0
L,,8716132,0.139,0.144,-0.021,10.6,-13.5,-7.7,728,868,0
L,,8716193,0.035,0.161,0.007,8.0,-9.5,-10.3,755,892,0
L,,8716252,0.012,0.121,0.036,13.8,2.7,-4.3,760,895,0
L,,8716314,-0.002,0.130,0.036,5.1,-5.5,-4.2,763,898,0
L,,8716403,0.023,0.127,0.016,6.0,-1.2,-3.9,768,908,0
L,,8716462,-0.005,0.125,0.022,5.8,0.7,-4.0,767,908,0
L,,8716523,-0.008,0.124,0.018,4.6,0.3,-4.2,747,908,0
L,,8716583,0.004,0.130,-0.003,5.3,0.6,-5.0,714,908,0
L,,8716643,-0.016,0.140,0.009,5.9,0.0,-6.3,688,909,0
L,,8716703,-0.002,0.164,0.004,9.8,3.0,-7.6,655,909,0
L,,8716763,0.014,0.190,0.025,13.9,8.2,-10.3,596,910,0
L,,8716823,0.004,0.203,0.041,17.9,13.9,-19.5,249,910,0
L,,8716883,0.017,0.154,0.066,14.8,21.6,-16.1,355,867,0
L,,8716943,-0.017,0.028,0.036,2.4,29.2,-10.3,585,803,0
L,,8717002,0.048,0.031,0.018,-18.9,11.8,2.2,574,797,0
L,,8717064,0.063,0.100,-0.007,-35.0,2.7,9.1,580,805,0
L,,8717153,0.033,0.204,-0.020,-34.0,4.0,16.8,603,816,0
L,,8717212,0.019,0.229,-0.028,-32.0,11.3,17.6,596,814,0
L,,8717273,-0.027,0.218,-0.118,-21.2,12.6,12.2,596,822,0
L,,8717333,-0.010,0.167,-0.187,11.0,-3.7,-5.6,604,834,0
L,,8717393,0.243,0.173,0.083,15.0,6.7,-5.5,719,861,0
L,,8717483,-0.033,0.128,0.040,6.2,-8.4,-5.9,755,888,0
L,,8717542,0.027,0.117,0.031,9.0,3.4,-3.1,760,894,0
L,,8717602,0.000,0.120,0.054,6.2,-4.6,-3.4,761,898,0
L,,8717663,0.023,0.132,0.002,10.0,0.1,-2.9,765,904,0
L,,8717723,0.001,0.126,0.021,5.8,-3.7,-3.8,768,907,0
L,,8717783,0.000,0.125,0.012,7.1,0.6,-3.7,766,908,0
L,,8717844,-0.007,0.130,0.010,5.3,-0.9,-4.5,761,909,0
L,,8717903,-0.009,0.135,0.008,5.4,-0.4,-5.7,731,910,0
L,,8717962,0.002,0.148,-0.003,9.0,2.4,-6.5,681,910,0
L,,8718023,-0.001,0.184,0.016,13.0,5.5,-8.4,661,907,0
L,,8718083,0.020,0.196,0.059,16.5,8.8,-13.4,532,911,0
L,,8718143,-0.020,0.226,-0.036,21.7,11.2,-20.8,248,904,0
L,,8718203,0.007,0.038,0.041,7.4,27.1,-6.6,591,800,0
L,,8718263,0.090,0.040,0.072,-12.3,14.8,0.0,591,804,0
L,,8718353,0.073,0.111,0.001,-38.0,3.2,9.5,604,813,0
L,,8718413,0.049,0.194,-0.029,-36.7,4.2,15.8,612,814,0
L,,8718473,0.029,0.221,-0.048,-31.3,10.3,15.6,622,823,0
L,,8718535,0.049,0.231,-0.118,-24.3,2.7,13.5,583,821,0
L,,8718593,-0.073,0.190,-0.222,4.0,-5.9,-2.4,594,834,0
L,,8718653,0.156,0.159,0.061,9.4,0.2,-7.3,722,862,0
L,,8718713,-0.046,0.135,0.030,6.2,-10.0,-12.7,748,882,0
L,,8718773,-0.023,0.119,0.043,10.2,2.9,-3.7,759,893,0
L,,8718833,0.041,0.111,0.033,5.1,-1.2,-3.7,761,895,0
L,,8718893,-0.003,0.119,0.051,9.6,-0.7,-4.0,764,899,0
L,,8718953,0.027,0.132,0.008,7.8,-1.2,-3.6,769,903,0
L,,8719013,0.000,0.128,0.015,6.9,0.0,-3.6,766,908,0
L,,8719073,-0.006,0.125,0.009,5.6,-0.2,-4.1,755,909,0
L,,8719133,0.014,0.137,-0.011,7.3,1.2,-4.9,724,907,0
L,,8719193,0.005,0.149,-0.001,9.3,0.2,-6.5,678,912,0
L,,8719254,0.011,0.180,-0.006,14.5,2.2,-7.5,639,909,0
L,,8719313,0.048,0.194,0.040,18.2,5.9,-9.9,512,910,0
L,,8719373,-0.008,0.244,-0.033,25.0,2.8,-17.8,274,905,0
L,,8719433,0.022,-0.005,0.063,13.0,13.7,-3.9,563,787,0
L,,8719493,0.047,0.038,0.067,-8.7,8.1,3.4,590,796,0
L,,8719553,0.024,0.038,0.036,-26.0,5.3,12.6,596,802,0
L,,8719613,0.026,0.143,0.000,-36.3,2.0,15.7,602,811,0
L,,8719673,0.020,0.207,-0.005,-35.8,-1.6,19.6,617,822,0
L,,8719763,0.008,0.258,-0.080,-29.7,8.5,15.6,598,822,0
L,,8719823,-0.047,0.196,-0.256,-5.7,-0.2,-1.9,591,829,0
L,,8719883,0.395,0.112,0.439,-13.8,-16.3,1.1,697,845,0
L,,8719945,0.029,0.187,0.019,5.6,-17.5,-12.9,737,877,0
L,,8720003,-0.018,0.121,0.025,6.8,-4.9,-6.7,757,893,0
L,,8720063,0.027,0.116,0.021,8.9,-1.8,-6.3,762,898,0
L,,8720123,0.012,0.131,0.026,7.8,-2.1,-4.4,765,906,0
L,,8720183,0.015,0.126,0.019,7.0,-0.3,-4.6,767,908,0
L,,8720273,0.000,0.126,0.002,5.6,-0.6,-4.5,755,911,0
L,,8720333,0.000,0.126,-0.002,6.0,-0.7,-4.8,736,907,0
L,,8720393,0.005,0.137,-0.005,6.1,0.4,-5.5,720,909,0
L,,8720453,-0.003,0.157,-0.005,9.3,-0.1,-6.3,687,909,0
L,,8720513,0.014,0.179,-0.001,13.7,2.6,-6.8,665,909,0
L,,8720603,0.029,0.189,0.001,20.3,2.4,-15.5,234,907,0
L,,8720663,0.033,0.168,0.049,15.3,5.6,-12.8,416,875,0
L,,8720724,-0.052,0.053,0.068,1.4,16.8,-5.5,600,803,0
L,,8720783,0.015,0.035,0.035,-18.2,7.6,9.1,591,799,0
L,,8720843,0.043,0.101,0.001,-29.6,5.5,13.2,600,806,0
L,,8720903,0.022,0.166,-0.004,-34.8,-0.7,16.5,616,818,0
L,,8720963,0.009,0.209,0.001,-36.1,0.0,16.9,619,824,0
L,,8721023,-0.020,0.254,-0.067,-29.8,9.1,15.0,609,823,0
L,,8721083,-0.060,0.205,-0.286,-8.8,9.1,-0.5,580,822,0
L,,8721143,0.087,0.153,0.337,9.2,1.3,0.9,698,845,0
L,,8721203,0.012,0.179,0.013,6.3,-21.5,-14.3,740,877,0
L,,8721263,-0.034,0.114,0.046,6.3,-6.5,-6.6,756,891,0
L,,8721323,0.025,0.121,-0.002,9.5,-0.3,-5.6,763,901,0
L,,8721383,-0.006,0.122,0.046,8.0,-3.5,-4.4,766,904,0
L,,8721445,0.019,0.128,0.016,6.8,-1.6,-4.6,767,907,0
L,,8721503,-0.005,0.126,0.011,5.7,-1.7,-4.5,764,907,0
L,,8721563,0.009,0.126,0.004,5.2,0.0,-4.8,757,910,0
L,,8721623,0.001,0.129,0.004,6.1,0.4,-5.7,736,907,0
L,,8721683,-0.005,0.149,-0.002,9.2,0.4,-7.1,703,907,0
L,,8721743,-0.004,0.172,0.003,12.1,2.5,-8.4,701,908,0
L,,8721803,0.016,0.194,0.039,16.8,10.0,-11.7,676,906,0
L,,8721863,0.009,0.185,-0.003,20.5,12.5,-18.3,243,910,0
L,,8721923,0.036,0.125,0.006,16.4,17.2,-13.7,598,845,0
L,,8721983,0.066,0.040,0.115,1.8,19.8,-1.3,596,793,0
L,,8722043,0.060,0.041,0.017,-26.7,5.2,6.0,610,804,0
L,,8722105,0.058,0.141,-0.012,-38.1,3.8,10.5,616,807,0
L,,8722163,0.052,0.190,-0.047,-33.8,12.3,14.7,622,809,0
L,,8722223,0.032,0.203,-0.054,-31.9,11.5,13.0,628,818,0
L,,8722283,0.035,0.195,-0.114,-24.1,1.3,10.7,624,821,0
L,,8722343,-0.104,0.179,-0.131,-9.3,-0.1,2.8,634,825,0
L,,8722403,0.125,0.104,0.290,-9.8,-4.0,-4.2,678,834,0
L,,8722463,0.061,0.114,0.026,0.4,-14.1,-9.4,721,863,0
L,,8722523,-0.073,0.142,0.055,6.7,-2.2,-10.2,748,882,0
L,,8722583,0.009,0.127,0.030,9.4,3.3,-3.9,760,895,0
L,,8722643,0.010,0.117,0.043,6.0,-3.2,-3.7,763,898,0
L,,8722703,0.005,0.120,0.036,10.3,1.0,-3.6,763,901,0
L,,8722763,0.013,0.120,0.020,6.1,-0.4,-3.9,767,903,0
L,,8722825,0.000,0.127,0.009,5.9,0.4,-4.0,767,907,0
L,,8722913,0.000,0.124,0.014,5.8,1.5,-5.8,759,909,0
L,,8722973,-0.011,0.132,-0.001,6.8,0.5,-6.9,685,907,0
L,,8723033,-0.009,0.166,0.002,8.8,1.5,-7.7,639,911,0
L,,8723093,0.005,0.177,0.012,12.6,7.2,-8.9,589,912,0
L,,8723153,0.009,0.181,0.036,16.8,9.9,-13.2,344,909,0
L,,8723213,0.011,0.221,0.047,19.4,14.2,-15.6,276,894,0
L,,8723273,-0.083,0.001,0.044,3.4,21.9,-9.1,591,803,0
L,,8723333,0.022,0.021,0.050,-18.3,12.8,3.6,574,793,0
L,,8723393,0.071,0.114,-0.004,-29.8,14.1,10.2,575,800,0
L,,8723453,0.049,0.162,-0.019,-34.2,8.2,14.1,603,813,0
L,,8723513,0.045,0.208,-0.025,-35.0,8.9,13.6,620,819,0
L,,8723575,0.030,0.228,-0.082,-28.0,8.7,15.9,606,822,0
L,,8723664,-0.048,0.179,-0.193,3.9,-1.2,-2.1,609,828,0
L,,8723723,-0.133,0.227,-0.018,0.1,-1.8,-12.1,710,855,0
L,,8723813,-0.002,0.169,0.010,8.4,-6.6,-9.4,751,887,0
L,,8723874,0.019,0.119,0.028,12.0,3.8,-3.4,759,894,0
L,,8723933,0.010,0.124,0.041,5.6,-4.8,-3.7,759,898,0
L,,8723993,0.016,0.116,0.027,9.2,0.2,-4.3,764,901,0
L,,8724083,-0.003,0.128,0.019,5.8,-1.7,-3.9,766,909,0
L,,8724143,-0.002,0.124,0.009,5.1,0.2,-4.0,760,911,0
L,,8724204,-0.004,0.129,0.001,5.5,0.0,-5.2,744,909,0
L,,8724263,-0.004,0.146,0.005,7.3,-1.0,-6.5,696,908,0
L,,8724325,0.000,0.170,-0.008,11.0,3.6,-7.8,664,906,0
L,,8724383,0.014,0.188,0.024,14.6,9.9,-10.1,592,908,0
L,,8724443,0.019,0.223,0.029,19.3,12.6,-19.5,229,909,0
L,,8724503,0.022,0.132,0.051,13.9,17.5,-15.1,521,848,0
L,,8724563,0.028,0.010,0.129,0.4,21.9,-4.4,587,804,0
L,,8724624,0.068,0.044,0.018,-24.3,10.1,5.7,591,806,0
L,,8724683,0.077,0.132,-0.015,-36.3,5.1,10.0,602,812,0
L,,8724743,0.055,0.185,-0.016,-35.8,7.0,16.2,615,820,0
L,,8724803,0.026,0.234,-0.057,-33.5,14.8,17.3,606,822,0
L,,8724863,0.000,0.228,-0.149,-24.2,8.3,13.0,591,826,0
L,,8724923,-0.025,0.183,-0.198,11.6,-8.7,-5.7,607,834,0
L,,8724983,0.277,0.174,0.091,16.6,3.5,-7.3,721,863,0
L,,8725044,0.004,0.187,-0.040,10.9,-8.6,-13.8,751,891,0
L,,8725103,-0.014,0.123,0.046,14.2,3.2,-3.8,760,896,0
L,,8725164,0.026,0.119,0.044,5.7,-6.0,-4.0,764,902,0
L,,8725223,0.015,0.127,0.016,9.4,0.4,-4.8,769,907,0
L,,8725283,0.002,0.125,0.017,6.9,-1.8,-4.3,767,908,0
L,,8725343,0.002,0.124,0.009,6.0,-0.6,-4.2,760,910,0
L,,8725403,-0.003,0.124,-0.002,5.8,0.5,-4.8,741,907,0
L,,8725463,-0.005,0.132,0.001,5.2,0.4,-5.3,719,908,0
L,,8725523,-0.010,0.146,0.000,7.3,1.0,-6.6,687,908,0
L,,8725583,-0.001,0.173,-0.005,10.9,5.0,-7.7,644,908,0
L,,8725643,0.013,0.184,0.038,14.7,11.8,-10.8,555,907,0
L,,8725704,0.019,0.215,-0.027,19.8,13.2,-19.6,228,909,0
L,,8725794,-0.073,0.029,-0.020,5.4,25.1,-8.5,585,799,0
L,,8725853,0.056,0.040,0.039,-12.1,8.5,0.2,576,797,0
L,,8725914,0.056,0.077,0.014,-30.3,4.4,7.1,584,807,0
L,,8725973,0.045,0.164,-0.022,-36.9,1.4,12.8,600,812,0
L,,8726033,0.039,0.194,-0.020,-33.0,4.3,15.6,616,822,0
L,,8726093,0.028,0.223,-0.034,-32.4,6.9,16.9,610,820,0
L,,8726153,-0.054,0.218,-0.128,-20.6,7.0,10.5,593,824,0
L,,8726213,-0.022,0.176,-0.169,11.8,-9.8,-7.0,602,834,0
L,,8726303,0.035,0.173,0.014,7.2,-19.2,-12.0,738,877,0
L,,8726363,-0.039,0.118,0.043,6.9,-6.7,-5.9,756,893,0
L,,8726423,0.032,0.116,0.022,7.8,1.5,-4.2,761,898,0
L,,8726485,0.006,0.134,0.030,8.7,-4.4,-3.5,765,902,0
L,,8726543,0.029,0.125,0.022,7.4,-3.2,-4.7,767,905,0
L,,8726603,-0.003,0.125,0.014,6.4,-1.5,-4.9,765,905,0
L,,8726664,0.003,0.122,0.014,5.2,-0.7,-4.8,761,906,0
L,,8726723,-0.004,0.126,0.000,5.3,1.9,-5.2,757,910,0
L,,8726813,0.000,0.155,-0.001,8.3,1.0,-6.3,703,908,0
L,,8726874,0.010,0.182,-0.005,11.9,3.9,-8.3,695,909,0
L,,8726933,0.042,0.189,0.035,16.0,9.9,-11.0,636,907,0
L,,8726994,0.029,0.222,-0.051,21.9,9.0,-19.7,243,905,0
L,,8727053,0.012,0.010,0.049,14.9,18.7,-7.9,584,811,0
L,,8727113,0.092,0.031,0.083,-8.6,10.1,3.2,584,793,0
L,,8727173,0.037,0.048,0.034,-26.9,6.2,11.8,584,796,0
L,,8727235,0.035,0.164,-0.013,-36.9,0.0,14.6,590,804,0
L,,8727293,0.019,0.207,-0.006,-35.2,-1.5,19.3,599,809,0
L,,8727353,-0.010,0.246,-0.012,-34.7,4.8,19.3,593,815,0
L,,8727414,-0.065,0.235,-0.172,-24.2,4.8,9.1,590,824,0
L,,8727473,-0.053,0.171,-0.165,11.4,-22.7,-10.9,620,834,0
L,,8727534,0.139,0.138,0.097,6.1,-8.9,-9.5,728,867,0
L,,8727593,-0.029,0.213,0.020,8.5,-6.9,-15.2,751,888,0
L,,8727653,0.020,0.116,0.034,12.4,3.7,-4.9,759,894,0
L,,8727713,0.015,0.128,0.040,4.8,-6.3,-4.8,763,898,0
L,,8727772,0.028,0.113,0.017,9.8,0.4,-5.8,764,901,0
L,,8727863,0.000,0.123,0.012,6.7,-2.0,-4.5,765,907,0
L,,8727955,0.001,0.127,-0.005,5.3,-0.6,-4.3,749,908,0
L,,8728013,0.000,0.135,-0.004,6.7,-0.7,-5.3,698,911,0
L,,8728074,0.006,0.148,-0.006,9.4,-0.7,-6.0,656,910,0
L,,8728133,0.011,0.185,0.000,13.3,1.8,-6.5,643,909,0
L,,8728193,0.048,0.196,0.045,18.5,4.0,-9.4,484,910,0
L,,8728253,-0.042,0.225,-0.042,22.6,0.9,-17.6,244,908,0
L,,8728313,-0.023,0.025,0.050,8.7,15.1,-2.4,595,799,0
L,,8728374,0.058,0.049,0.071,-9.6,6.7,2.9,588,795,0
L,,8728463,0.035,0.108,0.004,-33.3,5.7,12.1,608,809,0
L,,8728523,0.035,0.176,-0.010,-36.5,3.1,15.6,617,815,0
L,,8728583,0.009,0.227,-0.015,-38.2,2.6,16.5,623,819,0
L,,8728643,0.002,0.249,-0.095,-27.6,7.9,13.0,605,820,0
L,,8728705,-0.035,0.176,-0.214,1.7,1.7,-2.9,597,830,0
L,,8728806,0.056,0.155,0.017,4.9,-14.7,-11.4,735,873,0
L,,8728824,0.025,0.154,0.004,7.4,-11.6,-13.0,741,878,0
L,,8728914,0.010,0.124,0.028,15.7,4.8,-4.6,758,898,0
L,,8728973,0.021,0.119,0.042,6.1,-5.8,-4.4,764,902,0
L,,8729034,0.014,0.119,0.012,7.7,1.2,-4.4,765,908,0
L,,8729093,0.001,0.121,0.013,5.4,-0.1,-3.8,766,910,0
L,,8729153,0.004,0.119,0.012,3.5,0.8,-3.1,769,910,0
L,,8729213,0.002,0.126,0.012,2.9,1.1,-2.7,767,909,0
L,,8729273,0.000,0.132,0.012,4.5,0.1,-4.5,768,912,0
L,,8729333,-0.011,0.138,0.014,7.5,0.4,-6.2,747,909,0
L,,8729393,0.008,0.167,-0.006,10.2,1.2,-7.3,655,910,0
L,,8729455,0.016,0.184,0.020,13.8,4.8,-9.5,605,911,0
L,,8729513,-0.005,0.210,0.065,19.1,13.8,-16.3,382,910,0
L,,8729574,0.032,0.185,0.091,15.8,16.1,-16.5,304,890,0
L,,8729633,-0.079,0.014,0.047,0.8,28.8,-10.6,612,816,0
L,,8729693,0.040,0.036,0.014,-21.5,10.3,3.8,601,804,0
L,,8729753,0.056,0.122,-0.017,-36.4,4.4,8.8,605,807,0
L,,8729813,0.051,0.189,-0.031,-36.8,2.9,15.0,612,811,0
L,,8729874,0.032,0.217,-0.039,-33.4,7.4,16.2,615,817,0
L,,8729963,-0.077,0.204,-0.143,-17.8,4.6,9.1,606,821,0
L,,8730023,0.055,0.131,0.093,1.6,2.7,-3.2,666,836,0
L,,8730083,0.095,0.163,0.029,7.0,-11.6,-8.2,731,872,0
L,,8730145,0.013,0.138,0.035,5.9,-13.6,-7.3,753,890,0
L,,8730204,0.011,0.119,0.032,11.3,4.8,-3.0,758,895,0
L,,8730263,0.018,0.126,0.039,5.0,-3.8,-3.7,762,898,0
L,,8730324,0.005,0.121,0.020,11.6,0.6,-4.1,765,902,0
L,,8730383,0.013,0.116,0.016,6.6,-3.5,-4.6,770,909,0
L,,8730443,-0.014,0.126,0.008,5.4,-0.1,-3.7,763,907,0
L,,8730503,-0.002,0.128,0.003,4.7,0.3,-3.9,756,908,0
L,,8730563,-0.007,0.135,0.007,6.4,0.7,-6.1,723,908,0
L,,8730624,-0.003,0.158,0.001,9.5,0.6,-7.3,668,909,0
L,,8730683,0.006,0.179,0.003,13.9,6.7,-9.2,648,907,0
L,,8730744,0.009,0.204,0.082,16.9,10.3,-15.1,430,907,0
L,,8730803,0.024,0.199,0.075,18.7,14.5,-18.2,310,896,0
L,,8730865,-0.121,-0.004,0.009,0.7,31.2,-10.3,614,813,0
L,,8730923,0.075,0.027,0.029,-15.3,12.3,1.1,589,798,0
L,,8731013,0.077,0.145,-0.029,-38.1,0.0,8.5,607,808,0
L,,8731074,0.057,0.183,-0.029,-33.7,6.4,14.8,618,814,0
L,,8731133,0.026,0.216,-0.055,-33.3,13.6,14.2,633,826,0
L,,8731194,0.033,0.219,-0.119,-24.0,7.1,14.5,613,824,0
L,,8731253,-0.066,0.183,-0.221,3.9,1.6,-1.0,610,830,0
L,,8731313,-0.055,0.186,0.008,-14.6,-9.3,-11.2,715,857,0
L,,8731373,0.018,0.152,-0.006,7.9,-13.3,-12.1,742,877,0
L,,8731433,-0.034,0.116,0.054,9.9,-1.0,-4.6,755,890,0
L,,8731494,0.035,0.112,0.032,6.5,0.0,-4.3,757,893,0
L,,8731553,-0.030,0.123,0.037,8.0,-4.1,-3.8,762,900,0
L,,8731615,0.026,0.127,0.001,7.2,-1.4,-3.9,767,903,0
L,,8731673,-0.013,0.129,0.016,5.5,-1.8,-4.1,767,907,0
L,,8731733,0.001,0.127,0.010,5.3,1.0,-4.3,765,909,0
L,,8731793,-0.007,0.133,0.006,5.3,1.8,-5.2,757,909,0
L,,8731883,-0.005,0.156,0.000,8.3,2.2,-7.1,651,912,0
L,,8731944,-0.006,0.180,0.015,11.9,5.5,-8.5,604,910,0
L,,8732003,0.006,0.197,0.060,15.6,13.4,-13.8,459,911,0
L,,8732093,0.031,0.136,0.083,13.7,22.7,-15.9,374,868,0
L,,8732154,-0.017,0.017,0.082,-2.4,29.2,-10.2,582,797,0
L,,8732213,0.048,0.046,0.014,-22.5,10.9,2.4,567,794,0
L,,8732273,0.076,0.114,-0.009,-36.0,1.0,8.0,570,800,0
L,,8732334,0.046,0.169,-0.022,-34.8,0.6,14.5,591,805,0
L,,8732393,0.013,0.206,-0.035,-33.2,5.1,16.3,606,815,0
L,,8732484,-0.064,0.221,-0.145,-20.7,6.8,10.4,590,820,0
L,,8732543,0.098,0.088,0.274,-1.7,-12.0,-7.1,685,841,0
L,,8732603,0.090,0.151,0.023,9.8,-9.2,-9.1,732,871,0
L,,8732664,0.022,0.148,0.011,6.7,-8.6,-6.8,752,890,0
L,,8732723,0.025,0.114,0.033,10.1,4.0,-3.5,758,891,0
L,,8732784,-0.006,0.127,0.058,8.2,-3.9,-3.7,761,895,0
L,,8732843,0.024,0.127,0.024,9.1,-0.1,-3.7,764,901,0
L,,8732904,-0.004,0.125,0.016,7.5,-0.1,-3.9,764,905,0
L,,8732963,0.000,0.120,0.019,6.5,1.3,-3.6,760,908,0
L,,8733024,0.000,0.126,-0.001,5.7,-0.8,-4.3,727,906,0
L,,8733115,-0.005,0.150,0.007,7.6,0.5,-6.1,653,910,0
L,,8733173,0.007,0.170,-0.002,12.7,2.9,-7.6,596,913,0
L,,8733234,0.042,0.199,0.036,17.7,6.7,-10.0,531,910,0
L,,8733293,0.039,0.246,-0.029,21.9,1.7,-19.6,255,907,0
L,,8733353,0.054,0.102,0.061,13.3,17.0,-11.2,540,775,0
L,,8733414,0.067,0.048,0.102,-7.2,11.9,1.4,573,791,0
L,,8733472,0.029,0.040,0.036,-23.4,9.5,10.1,580,798,0
L,,8733534,0.045,0.125,-0.001,-34.4,3.7,14.0,593,807,0
L,,8733593,0.027,0.196,0.000,-36.8,-1.5,18.5,597,815,0
L,,8733654,0.006,0.248,-0.025,-36.9,1.6,19.8,601,820,0
L,,8733713,-0.029,0.261,-0.160,-24.9,6.0,14.0,585,823,0
L,,8733774,-0.036,0.190,-0.213,12.1,-11.2,-8.0,599,832,0
L,,8733835,0.247,0.144,0.074,-1.8,-13.3,-13.2,724,864,0
L,,8733893,-0.031,0.136,0.020,6.9,-8.7,-13.1,748,883,0
L,,8733954,0.011,0.108,0.038,13.1,0.2,-6.7,755,892,0
L,,8734013,0.020,0.116,0.023,5.8,-7.0,-6.6,762,899,0
L,,8734074,0.014,0.119,0.004,10.7,-1.7,-6.7,765,904,0
L,,8734164,-0.010,0.126,0.003,5.6,-2.4,-4.7,761,907,0
L,,8734223,0.002,0.123,-0.002,4.0,0.6,-3.2,750,905,0
L,,8734284,-0.003,0.126,0.001,3.8,1.7,-3.4,738,908,0
L,,8734343,0.003,0.140,0.002,7.0,1.2,-5.4,694,909,0
L,,8734404,0.008,0.160,-0.006,11.2,-0.3,-7.1,675,907,0
L,,8734463,0.024,0.178,-0.004,14.9,4.4,-8.1,674,911,0
L,,8734525,0.022,0.192,0.053,18.5,7.4,-13.5,423,910,0
L,,8734583,0.044,0.212,0.072,20.7,8.8,-15.6,250,895,0
L,,8734643,-0.140,0.032,-0.013,4.2,21.3,-5.0,597,804,0
L,,8734704,0.033,0.029,0.049,-14.5,6.2,6.7,585,793,0
L,,8734763,0.037,0.093,0.005,-31.4,3.2,11.5,600,804,0
L,,8734824,0.027,0.173,-0.031,-34.0,0.9,14.5,614,811,0
L,,8734883,0.018,0.196,-0.018,-32.3,0.3,14.8,624,817,0
L,,8734944,0.018,0.218,-0.061,-30.8,4.9,14.9,620,820,0
L,,8735003,-0.081,0.213,-0.137,-19.5,1.6,9.3,619,830,0
L,,8735064,-0.049,0.181,-0.166,12.2,-6.7,-7.2,611,832,0
L,,8735124,0.181,0.133,0.075,7.6,-4.1,-6.4,720,860,0
L,,8735213,0.002,0.136,0.030,7.7,-6.6,-8.9,751,885,0
L,,8735275,0.035,0.122,0.012,7.5,3.2,-4.0,760,894,0
L,,8735333,-0.012,0.132,0.050,5.1,-5.0,-3.7,762,898,0
L,,8735393,0.028,0.119,0.023,11.2,0.7,-4.1,765,901,0
L,,8735454,0.012,0.124,0.012,6.2,-3.2,-4.8,767,905,0
L,,8735513,0.000,0.123,0.007,6.0,0.0,-4.1,764,910,0
L,,8735574,0.002,0.132,0.005,5.1,-1.5,-4.8,760,910,0
L,,8735633,0.003,0.135,-0.009,8.0,0.2,-6.5,743,908,0
L,,8735694,-0.002,0.160,-0.001,9.8,-0.1,-7.3,673,910,0
L,,8735753,0.015,0.177,-0.004,13.9,6.0,-8.5,643,913,0
L,,8735814,0.026,0.188,0.046,17.2,8.6,-12.2,463,908,0
L,,8735874,-0.013,0.205,0.013,21.3,8.6,-15.9,270,901,0
L,,8735935,-0.077,0.000,0.050,5.7,18.6,-6.6,609,819,0
L,,8736024,0.040,0.047,0.040,-23.7,12.5,7.6,595,801,0
L,,8736083,0.057,0.142,-0.003,-35.8,6.7,11.3,603,812,0
L,,8736143,0.048,0.203,-0.016,-36.1,3.8,15.1,615,816,0
L,,8736204,0.021,0.229,-0.047,-34.3,3.7,15.4,621,823,0
L,,8736305,-0.081,0.192,-0.214,-10.2,5.4,2.9,601,828,0
L,,8736324,-0.046,0.176,-0.195,2.2,3.1,-2.9,601,829,0
L,,8736383,-0.213,0.230,-0.264,-9.3,-11.4,-8.8,706,849,0
L,,8736444,0.028,0.159,0.020,6.6,-14.3,-12.1,737,876,0
L,,8736503,-0.025,0.131,0.034,8.2,-2.7,-5.4,756,889,0
L,,8736564,0.035,0.117,0.028,7.1,0.8,-4.9,761,894,0
L,,8736624,-0.017,0.127,0.054,9.2,-2.5,-4.0,766,901,0
L,,8736685,0.029,0.125,0.019,8.3,1.2,-3.7,771,908,0
L,,8736774,-0.001,0.120,0.015,6.3,1.0,-3.8,763,909,0
L,,8736833,0.005,0.128,0.001,5.7,-1.8,-4.6,755,910,0
L,,8736894,0.009,0.126,-0.009,5.8,1.2,-5.4,731,907,0
L,,8736954,-0.004,0.150,0.002,8.3,-0.3,-6.5,676,905,0
L,,8737013,-0.001,0.182,0.004,12.5,2.7,-7.9,642,909,0
L,,8737073,0.022,0.191,0.048,16.8,10.1,-11.0,540,910,0
L,,8737133,0.006,0.216,-0.048,21.0,9.4,-19.2,236,908,0
L,,8737194,0.034,0.111,0.030,13.7,17.9,-12.9,578,803,0
L,,8737253,0.088,0.057,0.104,-5.8,16.0,-0.5,582,792,0
L,,8737343,0.060,0.086,0.010,-33.6,2.4,10.1,603,807,0
L,,8737404,0.037,0.174,-0.020,-36.4,-0.7,15.6,616,813,0
L,,8737465,0.018,0.206,-0.014,-32.4,4.8,17.3,625,822,0
L,,8737524,0.030,0.232,-0.051,-30.8,12.2,16.7,606,818,0
L,,8737583,-0.094,0.192,-0.184,-15.9,8.8,6.5,604,829,0
L,,8737644,0.092,0.091,0.261,-11.4,-13.0,-4.1,676,836,0
L,,8737704,0.095,0.117,0.000,10.0,-14.9,-9.0,726,867,0
L,,8737763,0.002,0.169,-0.001,7.5,-9.4,-11.3,754,887,0
L,,8737824,0.014,0.119,0.030,9.7,2.5,-3.7,759,894,0
L,,8737883,0.011,0.125,0.042,3.6,-3.2,-3.6,765,899,0
L,,8737973,0.029,0.127,0.020,7.3,0.0,-2.8,766,901,0
L,,8738034,-0.001,0.126,0.028,5.5,-2.0,-3.8,768,903,0
L,,8738093,0.007,0.121,0.012,5.6,-1.1,-4.4,769,904,0
L,,8738155,0.003,0.129,0.013,5.9,-1.2,-6.4,768,908,0
L,,8738213,-0.013,0.137,0.006,7.6,0.1,-7.4,760,911,0
L,,8738274,-0.016,0.176,0.007,9.8,1.6,-7.7,691,910,0
L,,8738363,0.002,0.213,0.068,15.9,17.5,-15.0,600,906,0
L,,8738423,0.032,0.206,-0.037,23.2,22.6,-21.2,244,904,0
L,,8738484,0.028,0.067,0.012,10.7,33.3,-13.6,591,807,0
L,,8738543,0.125,0.022,0.078,-9.3,16.9,-2.1,584,797,0
L,,8738604,0.071,0.071,-0.003,-31.5,2.5,5.6,606,808,0
L,,8738664,0.063,0.168,-0.032,-37.9,1.2,13.3,607,809,0
L,,8738723,0.041,0.189,-0.028,-31.4,15.0,15.2,615,815,0
L,,8738784,0.052,0.215,-0.066,-32.2,18.4,13.4,615,817,0
L,,8738843,-0.050,0.226,-0.159,-19.5,-0.3,11.8,606,822,0
L,,8738905,0.119,0.136,0.235,-6.0,-13.4,-8.2,682,838,0
L,,8738963,0.093,0.128,0.024,5.3,-11.4,-8.2,727,864,0
L,,8739024,-0.065,0.140,0.072,2.6,-11.2,-10.4,746,881,0
L,,8739083,0.004,0.120,0.033,10.9,5.5,-2.8,758,890,0
L,,8739144,0.011,0.119,0.045,3.1,-3.4,-3.4,760,894,0
L,,8739204,0.000,0.119,0.042,10.6,3.5,-2.6,761,895,0
L,,8739263,0.027,0.118,0.013,7.4,-3.4,-3.8,764,899,0
L,,8739324,-0.006,0.126,0.012,7.2,-0.4,-4.7,767,906,0
L,,8739383,-0.003,0.130,0.006,6.1,0.0,-4.3,764,908,0
L,,8739444,-0.001,0.139,0.007,7.1,2.6,-5.9,744,909,0
L,,8739503,0.002,0.150,0.003,9.9,0.3,-7.5,676,908,0
L,,8739564,0.008,0.182,0.006,13.8,5.0,-8.6,612,911,0
L,,8739625,0.017,0.199,0.060,18.1,10.5,-13.7,457,909,0
L,,8739684,-0.007,0.235,-0.015,22.5,10.2,-19.7,245,900,0
L,,8739744,-0.048,0.013,0.063,4.8,25.4,-9.1,601,816,0
L,,8739803,0.054,0.032,0.056,-14.1,17.5,1.9,583,793,0
L,,8739864,0.063,0.081,0.012,-32.7,7.9,7.0,595,806,0
L,,8739923,0.045,0.180,-0.023,-38.4,3.4,11.5,605,812,0
L,,8739984,0.046,0.203,-0.040,-34.2,2.3,15.4,617,820,0
L,,8740043,0.018,0.233,-0.047,-31.3,5.1,15.9,600,819,0
L,,8740104,-0.094,0.185,-0.168,-15.1,4.5,5.0,592,824,0
L,,8740164,0.166,0.128,0.323,-13.9,-21.0,-8.3,687,840,0
L,,8740224,0.069,0.128,0.009,4.3,-20.6,-12.7,734,871,0
L,,8740286,-0.001,0.144,0.023,6.6,-10.0,-7.3,755,889,0
L,,8740343,0.036,0.116,0.024,8.6,3.0,-4.6,760,895,0
L,,8740404,0.014,0.123,0.049,7.8,-6.6,-4.3,761,898,0
L,,8740463,0.035,0.127,0.017,10.4,0.1,-4.3,767,905,0
L,,8740524,-0.003,0.126,0.017,6.0,-2.0,-4.5,767,905,0
L,,8740614,-0.009,0.125,0.016,4.6,0.1,-4.2,744,908,0
L,,8740673,0.007,0.133,-0.002,6.4,0.4,-6.2,724,907,0
L,,8740734,-0.001,0.143,0.004,8.4,1.9,-7.4,688,909,0
L,,8740793,-0.004,0.177,0.000,11.3,2.8,-8.4,655,907,0
L,,8740854,0.022,0.197,0.039,14.8,8.7,-10.9,552,910,0
L,,8740914,-0.004,0.217,-0.026,19.8,12.6,-19.9,249,907,0
L,,8740974,0.050,0.057,0.042,15.0,20.7,-13.9,561,836,0
L,,8741036,0.051,0.012,0.148,-2.0,17.8,-2.2,573,792,0
L,,8741093,0.070,0.035,0.035,-29.3,3.4,9.4,563,791,0
L,,8741154,0.058,0.142,-0.014,-35.8,0.5,12.1,585,804,0
L,,8741213,0.028,0.198,-0.021,-33.2,2.7,17.9,608,816,0
L,,8741274,0.024,0.221,-0.042,-32.9,4.0,17.1,607,821,0
L,,8741333,-0.023,0.219,-0.103,-23.1,-1.8,10.9,595,822,0
L,,8741394,-0.086,0.175,-0.182,0.0,-6.0,-1.3,602,829,0
L,,8741454,-0.205,0.212,-0.324,-16.3,-15.2,-7.3,709,856,0
L,,8741514,0.030,0.159,0.011,6.8,-8.2,-11.5,741,877,0
L,,8741574,0.006,0.151,-0.005,12.7,-2.0,-6.5,753,889,0
L,,8741664,0.030,0.113,0.031,4.9,-4.8,-4.5,760,894,0
L,,8741724,0.009,0.105,0.049,11.1,-5.0,-5.4,762,900,0
L,,8741786,0.021,0.122,0.002,5.9,-4.7,-4.8,766,907,0
L,,8741843,-0.005,0.128,0.005,6.3,-2.0,-3.9,756,909,0
L,,8741904,0.004,0.129,-0.003,5.9,0.0,-4.2,727,909,0
L,,8741963,0.016,0.135,-0.009,7.7,-0.3,-5.3,689,906,0
L,,8742024,0.004,0.147,-0.001,11.5,0.4,-6.7,672,908,0
L,,8742083,0.017,0.179,-0.007,14.3,-0.4,-7.0,662,907,0
L,,8742144,0.047,0.199,0.056,18.1,1.8,-8.9,456,908,0
L,,8742204,-0.026,0.232,0.019,22.5,6.3,-13.9,244,901,0
L,,8742264,-0.037,0.051,0.050,8.0,12.5,-2.6,598,796,0
L,,8742324,0.041,0.055,0.059,-10.6,1.8,5.0,578,786,0
L,,8742383,0.034,0.071,0.030,-25.6,1.1,14.2,588,792,0
L,,8742445,0.011,0.154,-0.010,-31.7,-1.0,16.5,608,806,0
L,,8742503,-0.013,0.200,-0.013,-33.1,-1.4,16.3,619,814,0
L,,8742564,-0.026,0.244,-0.023,-35.2,2.3,15.7,617,815,0
L,,8742624,-0.042,0.223,-0.146,-22.1,2.1,8.6,606,817,0
L,,8742684,-0.037,0.177,-0.176,7.5,-6.0,-7.7,604,822,0
L,,8742744,-0.224,0.226,-0.132,-1.2,-11.3,-16.6,710,852,0
L,,8742804,0.022,0.159,0.012,3.3,-15.4,-12.2,742,877,0
L,,8742864,0.003,0.121,0.041,9.2,-2.2,-7.5,755,893,0
L,,8742923,0.053,0.117,0.020,4.4,-6.1,-6.0,763,900,0
L,,8742984,-0.003,0.128,0.032,7.6,-2.4,-6.0,766,904,0
L,,8743043,0.008,0.131,0.015,5.4,-1.5,-5.5,766,907,0
L,,8743104,0.006,0.121,0.019,6.5,1.5,-5.1,763,907,0
L,,8743166,0.000,0.125,0.003,5.7,3.7,-4.6,762,909,0
L,,8743224,-0.012,0.126,0.006,4.2,1.9,-4.0,755,908,0
L,,8743313,0.002,0.142,-0.008,6.1,6.1,-3.4,704,907,0
L,,8743374,0.015,0.179,0.005,9.7,8.0,-4.6,605,911,0
L,,8743434,-0.019,0.186,0.030,14.6,15.6,-9.4,536,907,0
L,,8743494,0.023,0.175,-0.010,16.3,14.7,-14.8,307,894,0
L,,8743554,-0.006,0.135,0.033,14.5,16.1,-15.3,426,829,0
L,,8743614,0.011,0.054,0.006,2.3,14.0,-10.4,546,771,0
L,,8743673,0.045,0.047,0.029,-12.0,11.9,-0.8,544,786,0
L,,8743734,0.067,0.102,0.020,-26.1,9.2,5.3,563,798,0
L,,8743793,0.052,0.172,-0.018,-32.4,5.5,9.4,547,802,0
L,,8743855,0.054,0.186,-0.026,-27.6,7.2,11.2,558,804,0
L,,8743914,0.016,0.187,-0.029,-26.4,5.9,11.1,581,813,0
L,,8743974,0.037,0.172,-0.073,-18.6,6.1,9.1,562,816,0
L,,8744034,-0.040,0.147,-0.152,-7.5,5.1,-1.6,558,818,0
L,,8744094,0.358,0.058,0.498,-25.2,-22.8,-0.7,689,841,0
L,,8744154,-0.007,0.166,-0.015,9.8,-13.0,-9.4,729,870,0
L,,8744213,0.004,0.103,0.035,10.4,-8.6,-8.9,740,875,0
L,,8744274,0.011,0.122,0.017,12.0,-0.9,-4.8,746,881,0
L,,8744333,0.017,0.120,0.011,5.5,-2.4,-4.2,753,890,0
L,,8744394,0.000,0.128,0.011,6.1,0.9,-2.7,760,896,0
L,,8744454,0.004,0.124,0.013,3.2,-1.4,-2.6,765,900,0
L,,8744514,0.003,0.123,0.009,3.5,-2.5,-2.7,766,905,0
L,,8744576,0.008,0.126,0.006,4.3,-0.8,-3.5,764,906,0
L,,8744634,-0.003,0.132,0.008,5.3,-1.4,-5.6,754,906,0
L,,8744694,-0.002,0.145,-0.005,8.5,2.5,-6.2,685,909,0
L,,8744753,0.017,0.173,-0.013,13.1,4.5,-8.0,630,908,0
L,,8744814,0.034,0.181,0.022,16.0,6.7,-10.1,541,910,0
L,,8744874,0.000,0.207,0.005,19.7,6.5,-15.8,196,910,0
L,,8744934,0.022,0.142,0.043,11.7,11.4,-13.0,526,847,0
L,,8744994,0.057,0.029,0.118,-2.1,19.3,-0.7,583,795,0
L,,8745054,0.047,0.049,0.044,-24.5,13.5,6.1,579,798,0
L,,8745114,0.068,0.131,-0.006,-37.0,10.6,8.2,590,807,0
L,,8745174,0.059,0.189,-0.015,-37.5,7.7,12.4,599,813,0
L,,8745234,0.024,0.228,-0.066,-35.5,4.9,15.2,603,820,0
L,,8745295,0.011,0.227,-0.154,-24.0,1.6,8.8,576,821,0
L,,8745354,-0.034,0.180,-0.169,8.3,-9.4,-7.5,588,825,0
L,,8745414,0.209,0.152,0.047,5.6,4.0,-6.5,714,857,0
L,,8745474,-0.009,0.170,0.024,5.5,-5.3,-12.5,750,884,0
L,,8745534,-0.015,0.117,0.052,8.5,2.9,-3.2,758,891,0
L,,8745594,0.017,0.124,0.053,7.3,-1.9,-3.5,758,895,0
L,,8745654,0.013,0.122,0.037,9.1,-1.4,-4.8,766,902,0
L,,8745714,0.005,0.127,0.022,6.5,0.0,-5.2,765,904,0
L,,8745774,-0.007,0.127,0.015,5.7,2.1,-4.0,745,902,0
L,,8745833,-0.002,0.130,0.019,5.0,2.5,-4.5,691,901,0
L,,8745894,-0.007,0.128,-0.004,5.1,-1.7,-6.3,662,905,0
L,,8745956,-0.014,0.153,0.012,7.4,3.6,-7.4,647,907,0
L,,8746014,0.002,0.178,0.021,11.3,5.6,-9.2,638,909,0
L,,8746074,-0.009,0.189,0.048,15.4,13.7,-15.3,509,908,0
L,,8746134,0.020,0.231,0.016,17.8,15.7,-19.2,278,895,0
L,,8746194,-0.077,0.031,0.016,6.6,31.3,-11.2,542,765,0
L,,8746254,0.038,0.027,0.065,-18.2,16.8,0.1,547,779,0
L,,8746314,0.094,0.100,0.000,-31.0,15.7,7.6,540,786,0
L,,8746374,0.055,0.164,-0.030,-34.3,9.8,12.8,583,806,0
L,,8746433,0.062,0.191,-0.034,-33.8,9.5,14.4,608,813,0
L,,8746494,0.038,0.228,-0.064,-31.1,4.7,15.5,589,816,0
L,,8746583,-0.097,0.183,-0.207,5.0,0.9,-4.0,578,822,0
L,,8746644,-0.001,0.166,-0.043,16.5,2.4,-12.0,710,852,0
L,,8746706,-0.031,0.148,-0.013,5.7,-8.8,-13.0,743,880,0
L,,8746793,0.025,0.123,0.026,10.7,5.2,-4.3,760,894,0
L,,8746854,-0.001,0.132,0.045,7.1,-4.3,-3.9,763,900,0
L,,8746914,0.022,0.126,0.019,7.2,2.0,-3.6,767,905,0
L,,8746974,-0.003,0.125,0.017,5.7,1.3,-3.7,763,906,0
L,,8747034,-0.002,0.124,0.018,5.3,1.4,-4.0,727,908,0
L,,8747094,0.003,0.127,-0.006,4.8,2.2,-3.9,667,910,0
L,,8747154,-0.005,0.137,0.000,6.0,0.1,-6.0,625,909,0
L,,8747214,-0.001,0.159,0.002,9.5,1.3,-7.2,600,912,0
L,,8747274,0.025,0.179,0.014,13.8,6.5,-8.8,558,911,0
L,,8747333,0.002,0.196,0.030,17.7,6.9,-15.8,282,911,0
L,,8747394,0.023,0.201,0.061,18.3,16.2,-17.1,241,885,0
L,,8747456,-0.090,0.043,0.012,4.5,24.7,-9.2,570,787,0
L,,8747514,0.016,0.015,0.030,-15.1,10.1,5.4,558,785,0
L,,8747574,0.049,0.074,0.004,-29.0,7.6,12.5,566,799,0
L,,8747634,0.025,0.168,-0.015,-35.4,-1.6,17.3,588,810,0
L,,8747694,-0.010,0.217,-0.038,-35.0,2.8,16.9,601,816,0
L,,8747754,0.009,0.246,-0.083,-29.4,7.3,16.3,559,813,0
L,,8747814,-0.110,0.180,-0.213,-9.7,0.8,0.4,574,822,0
L,,8747874,0.112,0.113,0.222,10.5,-1.9,2.0,688,837,0
L,,8747934,0.028,0.180,0.005,6.2,-10.9,-9.6,733,872,0
L,,8747994,-0.022,0.124,0.033,6.8,-5.5,-5.9,755,888,0
L,,8748083,0.037,0.114,0.033,5.9,-3.0,-4.0,762,895,0
L,,8748146,-0.001,0.124,0.036,10.2,-0.4,-4.3,764,898,0
L,,8748204,0.018,0.127,0.012,7.1,-0.2,-4.3,766,904,0
L,,8748264,-0.001,0.125,0.008,6.5,1.0,-4.2,748,908,0
L,,8748324,-0.005,0.120,-0.005,5.7,-0.3,-3.8,687,908,0
L,,8748384,0.012,0.135,0.005,6.3,0.0,-4.6,656,908,0
L,,8748444,0.000,0.148,0.001,9.6,-0.7,-6.4,572,910,0
L,,8748504,0.010,0.189,0.000,13.9,1.0,-7.7,559,910,0
L,,8748564,0.060,0.206,0.033,20.5,5.7,-11.6,473,910,0
L,,8748624,-0.017,0.243,0.004,26.8,3.0,-16.8,271,901,0
L,,8748684,-0.034,0.045,0.011,8.6,15.0,-2.0,589,795,0
L,,8748744,0.047,0.030,0.071,-13.2,3.4,6.0,577,791,0
L,,8748834,0.037,0.120,-0.011,-31.0,4.0,17.0,589,801,0
L,,8748896,0.014,0.187,0.002,-34.2,-4.7,21.1,609,814,0
L,,8748954,-0.040,0.231,-0.002,-36.6,2.7,18.6,610,817,0
L,,8749014,0.014,0.249,-0.124,-26.6,12.6,11.9,560,821,0
L,,8749074,-0.057,0.183,-0.223,4.6,-0.7,-6.5,561,827,0
L,,8749134,0.136,0.143,-0.048,6.7,-3.2,-12.7,710,854,0
L,,8749194,-0.067,0.137,0.011,0.1,-16.1,-14.3,741,878,0
L,,8749284,0.035,0.121,0.019,8.2,5.0,-4.8,760,893,0
L,,8749344,0.004,0.129,0.050,3.7,-2.9,-3.0,763,895,0
L,,8749404,0.023,0.120,0.026,9.8,0.7,-4.5,764,900,0
L,,8749464,0.006,0.127,0.015,6.7,-0.2,-4.6,766,904,0
L,,8749524,0.002,0.125,0.010,6.2,2.1,-4.0,757,905,0
L,,8749584,0.010,0.122,-0.005,5.7,-0.7,-4.5,720,905,0
L,,8749646,0.007,0.137,-0.003,7.2,0.2,-6.0,656,911,0
L,,8749704,0.001,0.155,0.007,10.3,-0.6,-7.0,610,911,0
L,,8749764,0.016,0.174,0.004,14.3,2.7,-7.7,558,910,0
L,,8749824,0.034,0.185,0.027,18.1,3.2,-12.1,426,911,0
L,,8749914,0.039,0.119,0.046,13.8,15.0,-11.9,508,839,0
L,,8749974,-0.001,0.033,0.088,1.8,13.7,-3.1,575,794,0
L,,8750034,0.017,0.038,0.033,-21.1,10.0,7.8,573,793,0
L,,8750094,0.052,0.113,-0.001,-33.8,3.6,13.0,595,803,0
L,,8750154,0.031,0.185,0.003,-35.7,-1.7,17.0,615,818,0
L,,8750214,0.007,0.249,-0.007,-37.4,2.3,17.0,614,821,0
L,,8750274,0.019,0.240,-0.102,-25.5,7.4,12.4,583,822,0
L,,8750335,-0.035,0.179,-0.200,5.5,5.2,-4.2,584,833,0
L,,8750394,-0.215,0.221,-0.597,32.6,5.8,-4.3,706,851,0
L,,8750454,-0.013,0.159,0.006,5.4,-17.3,-13.6,744,880,0
L,,8750514,-0.026,0.123,0.036,11.3,1.0,-5.9,757,893,0
L,,8750574,0.027,0.108,0.020,6.3,-1.8,-4.7,765,901,0
L,,8750634,-0.010,0.130,0.026,6.7,-1.7,-4.0,767,905,0
L,,8750694,0.013,0.126,0.022,6.1,-0.8,-4.4,769,910,0
L,,8750754,-0.002,0.122,0.012,5.4,-0.4,-4.6,765,909,0
L,,8750814,-0.004,0.130,0.003,4.7,0.1,-4.7,754,909,0
L,,8750875,0.005,0.131,0.000,5.4,1.5,-5.4,704,909,0
L,,8750964,-0.011,0.157,0.004,8.3,1.7,-7.3,632,912,0
L,,8751024,0.006,0.181,0.015,12.8,7.1,-9.6,601,911,0
L,,8751085,-0.003,0.201,0.047,17.2,15.2,-16.8,388,908,0
L,,8751144,0.015,0.197,0.057,18.6,18.4,-15.7,281,893,0
L,,8751205,-0.097,0.014,0.000,3.6,28.7,-12.1,585,807,0
L,,8751264,0.050,0.030,0.038,-16.7,12.8,1.1,564,794,0
L,,8751324,0.078,0.099,0.006,-34.2,4.3,9.1,582,804,0
L,,8751384,0.052,0.173,-0.011,-38.3,1.1,15.3,589,807,0
L,,8751444,0.026,0.219,-0.019,-35.4,9.8,18.3,607,816,0
L,,8751504,0.033,0.249,-0.085,-29.9,13.9,17.1,584,813,0
L,,8751564,-0.052,0.192,-0.267,-4.5,4.1,2.0,592,830,0
L,,8751625,0.184,0.046,0.461,-7.3,10.5,3.2,696,842,0
L,,8751684,0.017,0.202,0.025,5.8,-12.2,-9.9,742,878,0
L,,8751746,-0.040,0.135,0.043,7.9,-1.5,-4.7,761,898,0
L,,8751804,0.035,0.112,0.031,9.1,-1.2,-4.6,763,897,0
L,,8751864,-0.008,0.123,0.048,9.0,-1.4,-4.6,765,904,0
L,,8751924,0.008,0.123,0.023,7.1,0.7,-4.2,765,908,0
L,,8752014,-0.009,0.121,0.024,4.8,1.0,-3.9,747,908,0
L,,8752074,-0.009,0.129,0.008,4.7,0.5,-4.4,727,910,0
L,,8752134,-0.001,0.129,0.000,4.8,0.9,-5.4,683,909,0
L,,8752194,-0.014,0.154,0.008,7.1,1.1,-6.4,627,910,0
L,,8752284,0.020,0.176,0.020,12.9,7.8,-8.9,546,910,0
L,,8752344,-0.016,0.196,0.050,17.4,9.3,-16.5,244,911,0
L,,8752404,0.025,0.202,0.073,16.6,17.7,-17.9,264,885,0
L,,8752464,-0.030,0.047,0.078,0.5,24.8,-10.4,583,795,0
L,,8752556,0.082,0.060,0.004,-27.0,13.6,5.8,572,803,0
L,,8752614,0.066,0.141,-0.018,-38.6,4.4,10.7,587,811,0
L,,8752673,0.047,0.194,-0.026,-36.0,7.1,14.8,600,813,0
L,,8752734,0.020,0.245,-0.045,-34.7,11.3,17.1,581,815,0
L,,8752794,-0.076,0.242,-0.176,-23.2,5.0,10.4,575,820,0
L,,8752854,-0.039,0.171,-0.156,15.4,-13.0,-9.7,629,831,0
L,,8752915,0.149,0.158,0.012,11.2,-9.0,-4.6,726,865,0
L,,8752974,-0.033,0.185,0.035,8.1,-6.5,-12.1,755,888,0
L,,8753064,0.025,0.112,0.023,7.3,0.0,-4.6,761,896,0
L,,8753125,-0.018,0.124,0.045,8.2,-2.3,-4.0,765,899,0
L,,8753184,0.020,0.125,0.019,6.6,0.0,-3.9,771,905,0
L,,8753245,-0.006,0.127,0.020,5.8,0.1,-4.1,766,907,0
L,,8753335,-0.006,0.127,0.026,5.0,-1.0,-5.4,739,906,0
L,,8753424,-0.012,0.141,0.007,6.0,0.5,-6.4,669,909,0
L,,8753484,-0.009,0.163,0.006,9.1,3.8,-7.1,619,911,0
L,,8753544,0.020,0.187,0.020,13.9,8.8,-9.5,550,912,0
L,,8753604,0.016,0.214,0.033,19.3,12.5,-19.9,248,909,0
L,,8753665,0.028,0.162,0.083,17.8,19.1,-16.2,260,869,0
L,,8753724,-0.007,0.019,0.053,0.0,24.3,-7.9,586,799,0
L,,8753785,0.029,0.045,0.027,-21.3,13.5,3.6,566,788,0
L,,8753844,0.070,0.106,-0.006,-33.2,9.6,8.3,579,802,0
L,,8753904,0.043,0.167,-0.024,-35.4,3.8,12.8,584,809,0
L,,8753963,0.035,0.205,-0.022,-36.3,2.2,15.4,602,818,0
L,,8754026,0.018,0.255,-0.082,-27.2,6.6,15.3,582,819,0
L,,8754114,0.052,0.115,0.090,-0.2,-4.4,-4.2,671,844,0
L,,8754174,0.099,0.154,0.017,8.0,-11.1,-8.5,732,868,0
L,,8754234,0.012,0.156,0.030,7.8,-12.0,-9.8,757,891,0
L,,8754294,0.013,0.119,0.034,12.9,4.3,-3.5,762,895,0
L,,8754354,0.013,0.126,0.029,6.3,-4.5,-4.1,765,900,0
L,,8754415,0.004,0.121,0.017,10.2,-0.3,-4.2,767,904,0
L,,8754474,0.004,0.122,0.015,6.9,-2.8,-4.4,768,908,0
L,,8754535,-0.009,0.126,0.001,5.7,0.0,-3.7,761,910,0
L,,8754594,0.000,0.123,-0.002,5.0,0.2,-3.6,737,908,0
L,,8754654,0.007,0.139,-0.005,6.4,0.7,-5.5,687,908,0
L,,8754714,-0.003,0.158,0.008,11.1,2.5,-7.8,639,912,0
L,,8754776,0.018,0.187,0.016,15.8,6.3,-9.4,586,912,0
L,,8754834,0.009,0.215,0.037,21.3,10.7,-18.0,334,908,0
L,,8754894,0.047,0.169,0.076,16.2,9.6,-16.1,400,874,0
L,,8754955,-0.010,0.016,0.116,1.8,18.7,-5.0,591,799,0
L,,8755014,0.029,0.038,0.027,-20.7,8.2,6.5,586,800,0
L,,8755075,0.059,0.107,0.000,-33.7,7.5,11.9,590,806,0
L,,8755165,0.035,0.206,-0.025,-34.9,4.3,17.2,617,821,0
L,,8755224,0.039,0.234,-0.064,-34.8,3.5,18.2,595,820,0
L,,8755285,-0.103,0.230,-0.196,-21.7,-7.8,10.9,595,825,0
L,,8755344,-0.085,0.180,-0.165,13.8,-12.8,-9.5,615,832,0
L,,8755404,0.239,0.126,0.085,-0.2,-2.5,-9.5,720,861,0
L,,8755464,0.004,0.133,0.022,7.2,-5.2,-11.5,745,880,0
L,,8755526,0.009,0.113,0.035,11.6,2.3,-5.0,760,895,0
L,,8755584,0.034,0.119,0.025,3.4,-6.5,-4.3,765,900,0
L,,8755674,0.034,0.121,0.022,9.6,-2.5,-4.9,768,904,0
L,,8755734,0.002,0.123,0.004,7.1,-2.5,-4.5,765,910,0
L,,8755793,0.004,0.129,-0.010,6.0,-1.1,-3.8,754,909,0
L,,8755854,0.007,0.131,-0.007,6.4,0.9,-3.8,737,907,0
L,,8755915,0.006,0.150,-0.002,8.6,-1.8,-5.6,687,908,0
L,,8755974,0.015,0.164,-0.012,12.6,-0.4,-5.9,661,909,0
L,,8756035,0.038,0.187,0.006,16.8,1.3,-6.0,623,907,0
L,,8756094,0.001,0.194,0.031,20.1,0.3,-12.9,209,911,0
L,,8756184,-0.016,0.028,0.043,7.7,13.1,-3.0,582,792,0
L,,8756246,0.052,0.068,0.055,-8.4,5.1,3.9,575,789,0
L,,8756304,0.020,0.056,0.027,-25.6,-0.9,12.6,587,795,0
L,,8756365,0.019,0.151,-0.008,-33.8,-4.4,14.7,601,806,0
L,,8756424,-0.011,0.201,-0.008,-33.0,-5.6,17.3,611,813,0
L,,8756484,-0.026,0.231,-0.014,-34.6,2.4,16.1,612,817,0
L,,8756544,0.015,0.222,-0.139,-24.4,4.6,8.5,602,820,0
L,,8756604,-0.043,0.187,-0.193,7.1,-9.1,-9.1,596,829,0
L,,8756665,0.146,0.146,-0.070,4.7,-5.3,-12.4,715,856,0
L,,8756724,-0.068,0.149,0.021,3.0,-10.3,-12.9,744,880,0
L,,8756785,-0.009,0.123,0.030,10.5,1.8,-5.5,757,892,0
L,,8756844,0.039,0.114,0.030,3.5,-5.0,-5.5,765,899,0
L,,8756905,-0.005,0.129,0.032,9.5,0.3,-5.1,765,904,0
L,,8756966,0.018,0.125,0.012,6.9,-1.1,-5.1,764,907,0
L,,8757054,0.005,0.120,0.012,5.9,0.0,-4.4,735,909,0
L,,8757115,0.000,0.119,0.004,5.1,-0.6,-4.6,722,908,0
L,,8757174,0.002,0.144,-0.005,6.3,-0.7,-5.7,712,908,0
L,,8757264,0.005,0.190,0.005,13.1,1.8,-7.2,621,910,0
L,,8757325,0.045,0.202,0.041,18.1,4.9,-10.2,495,909,0
L,,8757384,0.016,0.233,-0.031,23.7,4.7,-19.9,236,907,0
L,,8757445,0.001,0.013,0.039,12.9,21.9,-7.0,573,790,0
L,,8757504,0.085,0.032,0.099,-9.6,13.8,0.9,572,791,0
L,,8757564,0.045,0.057,0.019,-26.9,10.7,7.5,582,797,0
L,,8757625,0.051,0.154,-0.016,-37.8,2.7,10.2,589,805,0
L,,8757684,0.036,0.199,-0.029,-36.1,2.4,13.6,608,816,0
L,,8757746,0.033,0.229,-0.056,-33.6,5.3,16.1,610,820,0
L,,8757804,-0.010,0.236,-0.160,-22.0,3.5,11.6,597,825,0
L,,8757865,-0.025,0.182,-0.168,11.9,4.0,-6.1,598,831,0
L,,8757924,0.216,0.151,0.052,3.7,4.2,-7.2,717,860,0
L,,8758014,-0.018,0.128,0.031,6.0,-8.3,-6.6,753,887,0
L,,8758075,0.025,0.121,0.025,7.9,2.6,-3.1,759,893,0
L,,8758134,0.007,0.127,0.048,5.3,-3.5,-3.3,766,900,0
L,,8758195,0.012,0.122,0.026,10.5,0.8,-3.0,765,901,0
L,,8758285,-0.004,0.124,0.017,6.2,0.4,-4.0,768,909,0
L,,8758344,-0.002,0.125,0.009,5.5,0.4,-4.2,763,909,0
L,,8758405,-0.015,0.128,0.011,4.6,-0.3,-5.2,753,910,0
L,,8758466,0.005,0.147,0.002,7.4,1.1,-6.2,683,911,0
L,,8758524,0.001,0.163,-0.003,10.7,2.7,-7.8,623,910,0
L,,8758584,0.019,0.195,0.032,15.4,9.0,-11.4,581,910,0
L,,8758674,0.000,0.206,0.000,21.1,15.4,-18.9,253,905,0
L,,8758735,0.000,0.046,0.023,9.3,27.5,-6.8,577,806,0
L,,8758794,0.076,0.029,0.065,-15.5,9.6,1.5,569,789,0
L,,8758854,0.072,0.074,0.014,-31.3,6.8,9.3,578,800,0
L,,8758914,0.052,0.176,-0.023,-39.0,1.0,13.8,583,804,0
L,,8758974,0.023,0.212,-0.017,-34.4,8.9,16.6,603,812,0
L,,8759035,0.060,0.238,-0.067,-30.4,12.2,16.8,586,810,0
L,,8759094,-0.091,0.187,-0.231,-14.4,6.0,5.3,594,824,0
L,,8759155,0.033,0.073,0.121,-0.2,-7.7,-2.8,664,836,0
L,,8759216,0.088,0.131,-0.019,2.5,-11.3,-6.3,725,866,0
L,,8759274,-0.048,0.143,0.073,3.4,-7.9,-10.8,749,883,0
L,,8759365,0.028,0.121,0.018,6.9,1.3,-3.2,760,894,0
L,,8759424,-0.003,0.129,0.043,6.4,-2.4,-3.8,766,899,0
L,,8759485,0.023,0.121,0.033,8.9,-0.3,-3.8,765,900,0
L,,8759544,0.000,0.127,0.009,6.0,-2.1,-4.3,767,909,0
L,,8759604,0.000,0.126,0.005,5.6,-0.2,-4.2,763,910,0
L,,8759665,0.001,0.130,-0.007,5.5,0.1,-4.9,746,909,0
L,,8759724,-0.003,0.138,-0.002,6.5,-0.3,-5.9,688,910,0
L,,8759785,-0.007,0.163,0.004,9.9,1.7,-7.0,614,910,0
L,,8759844,0.017,0.183,0.014,14.1,6.1,-8.8,558,912,0
L,,8759906,0.005,0.198,0.044,19.4,12.6,-17.6,249,911,0
L,,8759964,0.029,0.177,0.068,17.7,15.6,-16.8,295,890,0
L,,8760025,-0.082,0.022,0.055,1.2,26.1,-8.7,595,803,0
L,,8760084,0.031,0.034,0.030,-18.4,13.5,3.9,569,794,0
L,,8760144,0.064,0.094,-0.002,-32.8,4.4,9.6,576,800,0
L,,8760205,0.040,0.175,-0.013,-37.7,-2.2,15.1,590,809,0
L,,8760264,0.008,0.212,-0.015,-35.7,3.3,17.6,609,815,0
L,,8760325,-0.002,0.236,-0.123,-23.9,13.2,12.7,588,820,0
L,,8760384,-0.061,0.190,-0.247,-3.2,10.0,0.5,582,828,0
L,,8760445,-0.155,0.230,-0.168,-5.7,-5.1,-7.1,704,853,0
L,,8760504,0.031,0.137,0.023,6.7,-14.7,-11.6,742,878,0
L,,8760565,-0.032,0.117,0.049,7.4,-2.5,-5.1,758,892,0
L,,8760626,0.028,0.109,0.029,4.8,0.0,-3.4,765,900,0
L,,8760684,-0.022,0.128,0.032,5.9,-2.9,-3.0,766,902,0
L,,8760744,0.022,0.127,0.019,7.1,-0.4,-3.2,768,906,0
L,,8760804,-0.005,0.127,0.024,6.8,-1.8,-3.8,769,908,0
L,,8760865,0.007,0.123,0.014,6.0,-1.4,-4.5,764,908,0
L,,8760924,-0.004,0.126,0.000,5.7,0.4,-5.0,750,907,0
L,,8760985,-0.011,0.132,0.000,5.6,1.1,-5.3,707,908,0
L,,8761075,-0.004,0.173,0.004,9.9,4.1,-7.5,647,909,0
L,,8761134,0.021,0.187,0.026,14.5,10.6,-10.5,574,908,0
L,,8761195,0.012,0.210,0.033,18.6,13.3,-19.2,222,910,0
L,,8761254,0.018,0.127,0.057,14.4,20.6,-16.1,516,857,0
L,,8761315,0.038,0.018,0.104,0.3,27.5,-5.8,580,796,0
L,,8761376,0.069,0.046,0.021,-23.7,13.9,3.3,576,793,0
L,,8761434,0.079,0.120,-0.004,-37.1,5.3,8.3,571,800,0
L,,8761495,0.062,0.187,-0.025,-35.9,7.0,14.0,582,803,0
L,,8761554,0.055,0.222,-0.040,-33.6,9.5,16.1,593,815,0
L,,8761615,0.046,0.220,-0.112,-24.6,4.6,13.5,578,814,0
L,,8761674,-0.034,0.173,-0.190,8.9,-0.3,-4.8,583,826,0
L,,8761735,-0.096,0.112,-0.002,8.6,-7.4,-15.7,707,853,0
L,,8761794,0.014,0.151,-0.004,5.1,-14.1,-12.1,746,878,0
L,,8761855,-0.013,0.119,0.039,9.9,2.5,-4.5,758,892,0
L,,8761915,0.032,0.110,0.026,4.1,-1.1,-4.1,761,891,0
L,,8761974,-0.015,0.121,0.051,9.8,-1.9,-4.4,764,899,0
L,,8762036,0.035,0.124,0.005,7.5,-0.8,-4.0,770,907,0
L,,8762094,-0.008,0.124,0.024,6.2,-0.1,-3.6,767,908,0
L,,8762155,0.007,0.123,0.007,4.7,-0.3,-3.8,764,908,0
L,,8762214,0.000,0.126,-0.008,4.1,-0.1,-4.0,752,910,0
L,,8762275,-0.003,0.137,0.004,6.0,0.7,-5.6,705,907,0
L,,8762334,-0.003,0.159,0.006,8.9,0.7,-6.7,617,913,0
L,,8762394,0.014,0.175,0.002,13.3,5.3,-7.9,574,910,0
L,,8762485,0.010,0.214,0.000,18.5,6.1,-18.5,246,910,0
L,,8762544,0.019,0.131,0.052,13.8,18.7,-14.1,477,850,0
L,,8762605,0.026,0.020,0.100,3.0,18.4,-3.4,590,800,0
L,,8762665,0.030,0.053,0.029,-23.3,10.5,7.6,580,795,0
L,,8762724,0.046,0.128,-0.020,-34.1,3.3,12.8,585,802,0
L,,8762786,0.032,0.190,-0.008,-34.0,0.3,17.6,602,817,0
L,,8762844,0.006,0.227,-0.032,-36.3,3.1,17.2,602,820,0
L,,8762905,-0.007,0.228,-0.147,-24.2,1.9,11.5,566,822,0
L,,8762964,-0.067,0.190,-0.186,10.4,-10.4,-8.3,575,829,0
L,,8763025,0.227,0.171,0.005,-0.9,-5.3,-11.8,717,857,0
L,,8763084,-0.070,0.146,0.028,3.3,-11.8,-13.0,745,882,0
L,,8763145,0.000,0.119,0.033,12.5,1.0,-6.5,759,893,0
L,,8763205,0.037,0.117,0.018,6.7,-6.1,-5.4,764,898,0
L,,8763264,0.010,0.121,0.019,8.4,-1.9,-5.6,770,906,0
L,,8763325,0.014,0.125,0.007,6.4,-2.5,-5.0,769,909,0
L,,8763384,-0.004,0.123,0.004,5.8,0.9,-4.5,757,910,0
L,,8763445,0.000,0.121,-0.005,4.2,-0.5,-3.5,730,907,0
L,,8763506,-0.004,0.130,-0.010,3.6,0.4,-2.8,693,909,0
L,,8763565,0.000,0.141,0.000,6.1,1.2,-4.1,654,910,0
L,,8763625,0.001,0.162,0.001,10.3,-0.3,-5.4,589,914,0
L,,8763714,0.038,0.187,0.034,16.6,5.2,-8.0,477,909,0
L,,8763775,0.009,0.225,-0.059,22.0,0.9,-17.6,231,907,0
L,,8763834,0.026,-0.014,0.043,14.4,16.3,-7.9,565,792,0
L,,8763895,0.051,0.040,0.088,-5.4,10.4,2.6,574,790,0
L,,8763955,0.022,0.054,0.042,-27.0,4.8,11.9,580,793,0
L,,8764044,0.027,0.162,0.000,-35.3,-4.6,17.0,599,809,0
L,,8764105,-0.037,0.220,-0.014,-37.3,-0.4,18.3,612,819,0
L,,8764165,-0.008,0.259,-0.081,-30.1,7.8,13.8,583,822,0
L,,8764226,-0.038,0.192,-0.250,-0.1,-1.8,-3.3,574,828,0
L,,8764285,-0.190,0.213,-0.157,1.2,-14.4,-12.2,700,849,0
L,,8764344,0.033,0.142,0.003,6.4,-15.0,-11.9,737,873,0
L,,8764405,-0.011,0.110,0.042,7.4,-5.0,-6.8,753,890,0
L,,8764464,0.029,0.113,0.014,7.3,-0.5,-5.9,762,897,0
L,,8764525,0.000,0.121,0.034,5.4,-3.9,-4.2,767,902,0
L,,8764584,0.028,0.126,0.008,6.5,0.3,-3.6,770,905,0
L,,8764645,-0.004,0.126,0.015,4.9,-0.4,-3.2,769,908,0
L,,8764705,0.011,0.121,0.009,5.3,0.5,-3.3,769,911,0
L,,8764764,0.001,0.129,0.005,4.9,0.0,-3.8,765,909,0
L,,8764825,0.001,0.135,0.003,6.2,-0.5,-5.2,745,909,0
L,,8764884,0.006,0.160,-0.001,10.2,-0.8,-6.1,666,909,0
L,,8764946,0.020,0.180,-0.006,14.4,3.4,-7.6,632,908,0
L,,8765004,0.030,0.195,0.052,18.7,7.5,-11.6,474,909,0
L,,8765065,-0.063,0.210,-0.019,21.0,3.8,-18.3,256,906,0
L,,8765125,-0.042,0.034,0.044,5.8,20.4,-6.2,588,806,0
L,,8765185,0.034,0.036,0.045,-11.1,10.5,1.9,580,788,0
L,,8765245,0.041,0.075,0.012,-30.0,6.1,8.6,589,799,0
L,,8765304,0.044,0.171,-0.031,-36.0,1.2,12.3,597,804,0
L,,8765365,0.025,0.203,-0.026,-35.1,2.6,14.5,608,811,0
L,,8765455,0.021,0.227,-0.093,-24.7,1.5,12.3,595,817,0
L,,8765514,-0.044,0.181,-0.206,4.2,2.9,-3.7,591,826,0
L,,8765575,-0.226,0.232,-0.409,12.2,4.4,-3.6,698,845,0
L,,8765634,0.030,0.154,0.017,6.7,-12.8,-10.9,734,871,0
L,,8765696,-0.029,0.119,0.041,5.7,-4.3,-5.6,754,892,0
L,,8765754,0.028,0.117,0.014,7.0,2.6,-3.7,761,898,0
L,,8765844,0.003,0.122,0.042,8.0,0.4,-2.8,768,900,0
L,,8765905,0.023,0.125,0.020,6.3,0.0,-3.7,767,904,0
L,,8765964,-0.004,0.125,0.018,6.1,0.2,-4.0,767,907,0
L,,8766025,0.002,0.130,0.008,5.3,-0.3,-3.9,766,908,0
L,,8766084,0.000,0.126,-0.001,4.5,0.1,-4.6,740,908,0
L,,8766145,-0.001,0.148,0.002,6.9,0.7,-5.4,657,907,0
L,,8766205,0.000,0.159,0.007,10.5,1.7,-7.3,596,913,0
L,,8766265,0.020,0.177,0.011,15.0,4.6,-9.3,545,910,0
L,,8766325,0.015,0.197,0.032,18.2,6.5,-16.4,239,912,0
L,,8766386,0.018,0.175,0.061,15.9,9.7,-14.9,293,885,0
L,,8766445,-0.064,0.014,0.041,1.3,20.3,-8.6,596,804,0
L,,8766504,0.031,0.035,0.023,-17.0,14.7,4.9,581,791,0
L,,8766565,0.065,0.104,-0.014,-32.2,8.8,11.1,582,798,0
L,,8766625,0.057,0.171,-0.032,-34.3,5.6,15.5,591,804,0
L,,8766685,0.025,0.209,-0.031,-33.3,8.2,15.7,601,816,0
L,,8766745,0.030,0.222,-0.079,-28.5,6.5,15.0,581,823,0
L,,8766805,-0.095,0.178,-0.182,-10.2,4.3,2.4,573,826,0
L,,8766865,0.217,0.139,0.404,-0.2,-8.6,0.0,683,836,0
L,,8766924,0.047,0.156,0.025,4.6,-17.2,-10.9,727,866,0
L,,8766985,0.012,0.139,0.024,6.3,-10.2,-9.0,753,887,0
L,,8767044,0.029,0.124,0.016,9.5,3.9,-4.2,761,894,0
L,,8767106,0.004,0.121,0.037,2.1,-4.0,-3.9,763,896,0
L,,8767165,0.010,0.125,0.020,8.8,2.1,-3.6,766,901,0
L,,8767225,0.014,0.121,0.023,5.2,-2.5,-4.2,768,905,0
L,,8767285,-0.001,0.126,0.014,5.8,0.5,-3.6,772,911,0
L,,8767344,0.005,0.125,0.009,4.5,-0.1,-4.1,767,909,0
L,,8767405,-0.004,0.128,0.016,5.6,1.5,-5.8,757,909,0
L,,8767464,-0.002,0.143,0.002,8.3,1.0,-6.4,654,909,0
L,,8767525,0.000,0.173,0.005,10.3,2.2,-7.3,588,911,0
L,,8767584,0.022,0.185,0.026,15.4,7.1,-10.5,526,911,0
L,,8767645,0.016,0.218,0.020,18.3,9.4,-19.5,234,908,0
L,,8767705,0.015,0.120,0.054,13.4,20.4,-15.3,488,844,0
L,,8767766,0.081,0.035,0.099,-1.0,22.8,-3.1,574,796,0
L,,8767825,0.062,0.058,0.028,-23.6,11.8,5.3,569,796,0
L,,8767884,0.065,0.128,-0.008,-36.1,4.2,10.5,581,801,0
L,,8767945,0.047,0.184,-0.022,-34.2,3.1,15.4,589,809,0
L,,8768004,0.016,0.220,-0.032,-33.7,5.0,17.3,597,815,0
L,,8768065,-0.008,0.246,-0.119,-25.2,10.3,14.5,579,819,0
L,,8768125,-0.015,0.171,-0.197,8.6,2.0,-4.0,578,829,0
L,,8768185,-0.024,0.167,-0.032,14.4,1.5,-13.3,703,850,0
L,,8768245,0.028,0.146,-0.014,6.0,-11.2,-11.5,738,873,0
L,,8768305,-0.033,0.114,0.057,7.6,0.0,-3.7,755,889,0
L,,8768365,0.034,0.110,0.033,4.7,-0.5,-3.9,760,893,0
L,,8768424,-0.015,0.118,0.058,8.8,-1.6,-4.2,759,895,0
L,,8768486,0.036,0.130,0.003,8.4,-0.6,-3.3,766,904,0
L,,8768544,-0.004,0.128,0.018,6.2,-2.4,-4.2,767,908,0
L,,8768605,0.006,0.124,0.010,6.0,-0.5,-4.3,763,907,0
L,,8768665,-0.008,0.131,0.000,5.6,0.3,-5.1,750,908,0
L,,8768725,-0.004,0.142,0.009,7.6,0.1,-6.6,697,907,0
L,,8768785,-0.001,0.165,0.000,10.5,2.0,-7.5,677,911,0
L,,8768845,0.009,0.194,0.028,15.3,8.6,-10.3,615,909,0
L,,8768905,0.002,0.216,0.044,20.4,17.3,-18.7,257,909,0
L,,8768964,0.044,0.152,0.070,15.6,17.9,-16.8,468,862,0
L,,8769025,-0.009,0.023,0.097,-0.8,29.6,-9.5,590,797,0
L,,8769084,0.070,0.042,0.012,-21.3,7.6,2.9,593,802,0
L,,8769145,0.076,0.109,0.000,-37.0,2.4,8.6,592,802,0
L,,8769207,0.060,0.181,-0.026,-36.4,3.4,16.6,601,806,0
L,,8769265,0.018,0.220,-0.039,-35.1,9.7,16.4,613,814,0
L,,8769325,0.035,0.254,-0.122,-27.1,5.1,14.8,591,819,0
L,,8769385,-0.092,0.193,-0.213,7.6,2.8,-2.9,595,827,0
L,,8769445,-0.380,0.405,-0.942,82.9,29.7,-5.9,705,850,0
L,,8769504,0.036,0.151,0.002,6.3,-13.8,-10.7,740,875,0
L,,8769565,-0.023,0.122,0.047,9.1,2.2,-4.7,756,890,0
L,,8769624,0.032,0.110,0.032,8.8,-1.7,-4.6,761,897,0
L,,8769685,-0.009,0.122,0.045,8.1,-3.2,-3.5,765,904,0
L,,8769745,0.017,0.125,0.017,6.5,-1.1,-3.6,767,907,0
L,,8769834,0.001,0.125,0.010,5.6,-0.1,-4.2,763,908,0
L,,8769896,-0.008,0.129,0.014,5.5,0.6,-5.0,753,910,0
L,,8769955,0.000,0.134,0.014,6.8,1.6,-6.5,712,907,0
L,,8770015,-0.011,0.165,0.007,10.1,1.3,-7.3,646,909,0
L,,8770075,0.002,0.178,0.008,13.9,7.1,-8.7,614,913,0
L,,8770135,0.004,0.187,0.046,17.1,11.6,-14.4,411,909,0
L,,8770195,0.000,0.229,0.054,19.7,12.5,-17.7,342,899,0
L,,8770254,-0.040,0.033,0.011,6.3,25.3,-5.8,588,807,0
L,,8770315,0.078,0.037,0.060,-13.5,10.1,0.1,573,791,0
L,,8770375,0.063,0.086,0.007,-31.9,9.4,6.3,583,801,0
L,,8770435,0.047,0.179,-0.032,-37.3,4.7,11.1,590,808,0
L,,8770495,0.044,0.198,-0.039,-32.3,7.0,13.6,602,816,0
L,,8770555,0.042,0.212,-0.046,-31.8,5.8,14.6,605,815,0
L,,8770617,-0.036,0.201,-0.103,-20.8,-2.9,10.8,592,824,0
L,,8770675,-0.047,0.168,-0.090,3.9,-7.2,-5.6,623,818,0
L,,8770735,0.107,0.149,0.007,11.0,0.6,-5.9,719,860,0
L,,8770794,-0.045,0.145,0.061,3.8,-9.9,-11.7,747,881,0
L,,8770885,0.042,0.113,0.039,9.2,0.0,-4.2,760,893,0
L,,8770945,0.000,0.135,0.043,7.7,-6.3,-4.8,765,901,0
L,,8771004,0.026,0.128,0.010,8.3,-0.2,-4.1,769,908,0
L,,8771065,-0.002,0.129,0.012,6.1,-2.5,-3.6,766,909,0
L,,8771125,0.003,0.124,0.007,5.4,0.0,-3.3,755,909,0
L,,8771185,0.001,0.132,-0.006,6.1,1.2,-3.8,739,907,0
L,,8771245,0.021,0.136,-0.007,8.2,0.6,-5.3,702,906,0
L,,8771305,0.004,0.154,-0.004,10.9,-0.4,-6.6,675,908,0
L,,8771367,0.021,0.184,0.000,15.2,2.3,-7.4,663,908,0
L,,8771425,0.041,0.189,0.057,18.2,8.0,-10.6,416,912,0
L,,8771485,-0.032,0.248,0.033,23.0,4.5,-16.7,238,904,0
L,,8771544,-0.048,0.058,0.017,8.3,16.8,-1.4,587,800,0
L,,8771605,0.043,0.032,0.067,-12.6,2.0,6.4,579,783,0
L,,8771665,0.021,0.060,0.027,-28.2,4.9,13.1,584,792,0
L,,8771725,0.027,0.164,-0.022,-35.8,1.1,14.1,592,803,0
L,,8771785,0.008,0.216,-0.018,-36.4,-5.9,18.7,607,815,0
L,,8771845,-0.025,0.264,-0.031,-34.6,0.2,18.9,591,813,0
L,,8771935,-0.031,0.182,-0.217,4.6,-5.7,-5.8,585,820,0
L,,8771995,0.009,0.183,-0.108,6.1,-9.9,-13.7,707,848,0
L,,8772056,0.028,0.133,0.015,5.2,-9.4,-11.7,740,875,0
L,,8772115,-0.008,0.127,0.042,9.4,-3.4,-5.8,752,887,0
L,,8772175,0.064,0.102,0.026,4.6,-5.1,-6.6,760,895,0
L,,8772235,0.006,0.124,0.033,8.8,-2.0,-5.2,766,905,0
L,,8772294,0.029,0.126,0.008,6.6,-2.5,-5.2,768,910,0
L,,8772355,0.002,0.125,0.005,6.2,-1.5,-4.6,755,909,0
L,,8772415,0.003,0.129,-0.008,5.2,-1.1,-4.1,739,908,0
L,,8772475,0.007,0.131,-0.011,6.1,-0.4,-4.6,712,908,0
L,,8772535,0.000,0.141,-0.001,8.0,-0.3,-5.7,694,907,0
L,,8772595,0.000,0.165,-0.005,11.8,-1.4,-6.9,688,908,0
L,,8772655,0.030,0.184,0.003,15.9,3.6,-7.4,681,907,0
L,,8772715,-0.001,0.196,0.037,19.4,6.1,-14.4,218,910,0
L,,8772777,0.076,0.169,0.065,13.7,9.4,-12.8,409,877,0
L,,8772834,-0.112,0.059,0.063,4.9,20.8,-4.9,607,809,0
L,,8772895,0.025,0.039,0.039,-21.5,2.4,7.5,588,789,0
L,,8772955,0.022,0.115,0.004,-32.9,5.7,8.6,607,804,0
L,,8773015,0.033,0.172,-0.017,-34.4,4.4,13.1,617,810,0
L,,8773075,0.017,0.214,-0.027,-36.0,0.4,11.5,629,819,0
L,,8773135,-0.005,0.225,-0.075,-29.7,0.4,13.5,622,820,0
L,,8773195,-0.095,0.185,-0.147,-15.2,2.8,2.8,619,828,0
L,,8773255,0.101,0.096,0.152,1.7,-7.2,-6.0,664,834,0
L,,8773315,0.119,0.126,-0.027,3.2,-15.2,-8.3,722,864,0
L,,8773405,-0.015,0.129,0.024,8.6,-1.1,-4.6,757,893,0
L,,8773465,0.043,0.107,0.033,5.8,-0.4,-5.0,761,897,0
L,,8773527,-0.018,0.127,0.057,7.8,-2.5,-4.4,766,899,0
L,,8773584,0.026,0.130,0.016,7.8,0.5,-4.4,766,903,0
L,,8773645,-0.004,0.126,0.020,5.6,0.8,-4.3,760,906,0
L,,8773735,-0.004,0.127,0.009,5.2,1.4,-3.8,702,909,0
L,,8773795,0.007,0.113,0.011,4.4,2.0,-4.9,677,906,0
L,,8773855,-0.001,0.139,0.013,6.6,0.0,-6.3,617,909,0
L,,8773915,-0.015,0.159,0.003,8.9,0.5,-7.2,599,909,0
L,,8773975,0.011,0.169,0.003,12.4,6.7,-8.6,561,909,0
L,,8774035,-0.018,0.178,0.031,15.1,11.2,-13.1,295,911,0
L,,8774095,0.004,0.205,0.024,17.3,14.0,-15.4,258,891,0
L,,8774155,-0.021,0.060,0.031,7.5,23.6,-9.8,551,771,0
L,,8774216,0.055,0.035,0.077,-12.6,16.9,1.0,551,775,0
L,,8774275,0.071,0.077,0.005,-28.6,11.2,5.9,565,783,0
L,,8774335,0.047,0.171,-0.026,-37.8,4.2,10.1,567,788,0
L,,8774395,0.047,0.197,-0.030,-32.0,7.8,13.0,593,801,0
L,,8774455,0.021,0.221,-0.045,-31.1,9.3,13.9,590,804,0
L,,8774514,-0.039,0.210,-0.112,-20.2,7.0,10.7,580,809,0
L,,8774575,-0.016,0.168,-0.168,10.6,-3.8,-5.5,580,818,0
L,,8774635,0.182,0.116,0.116,14.2,6.2,-6.4,708,851,0
L,,8774695,-0.076,0.165,0.000,5.3,-5.8,-10.9,742,878,0
L,,8774755,-0.009,0.116,0.050,11.7,1.7,-3.9,755,890,0
L,,8774815,0.020,0.110,0.038,6.5,-3.0,-3.3,762,896,0
L,,8774875,0.003,0.117,0.018,5.9,2.0,-2.0,762,896,0
L,,8774937,0.011,0.120,0.031,4.0,-0.1,-1.7,763,897,0
L,,8774995,0.003,0.127,0.015,5.9,-0.4,-2.5,768,903,0
L,,8775085,-0.002,0.130,0.013,5.4,-0.2,-4.3,768,907,0
L,,8775145,0.000,0.126,0.010,6.3,-1.3,-5.8,756,907,0
L,,8775205,-0.005,0.144,-0.003,9.0,0.3,-6.3,659,908,0
L,,8775265,0.001,0.172,0.004,12.1,1.7,-7.2,597,911,0
L,,8775325,0.024,0.183,0.028,15.9,7.2,-10.1,528,909,0
L,,8775385,0.007,0.208,-0.007,19.1,7.4,-18.3,253,906,0
L,,8775445,0.024,0.110,0.060,13.9,18.1,-12.5,483,842,0
L,,8775505,-0.005,0.020,0.087,2.1,22.7,-6.5,575,794,0
L,,8775565,0.037,0.045,0.029,-21.0,11.7,4.1,565,788,0
L,,8775626,0.065,0.117,-0.010,-34.8,5.4,9.6,571,800,0
L,,8775715,0.020,0.206,-0.019,-32.8,3.7,14.5,597,814,0
L,,8775775,-0.006,0.216,-0.045,-30.8,9.8,13.8,602,819,0
L,,8775835,-0.011,0.220,-0.116,-19.7,7.8,9.4,582,820,0
L,,8775895,0.001,0.182,-0.168,7.3,-9.1,-7.4,604,818,0
L,,8775955,0.145,0.118,0.012,10.5,-14.3,-8.1,717,859,0
L,,8776015,-0.007,0.192,-0.007,9.5,-8.7,-13.0,750,888,0
L,,8776105,0.045,0.108,0.025,7.6,-0.1,-4.4,765,901,0
L,,8776165,-0.012,0.130,0.043,7.4,-2.1,-3.3,765,903,0
L,,8776225,0.028,0.124,0.026,6.2,-0.8,-3.5,770,905,0
L,,8776285,-0.001,0.126,0.020,5.3,-1.3,-3.9,768,907,0
L,,8776345,0.003,0.127,0.010,5.2,0.5,-3.8,766,908,0
L,,8776407,-0.003,0.126,0.009,4.9,1.0,-4.6,751,910,0
L,,8776465,-0.007,0.129,0.018,5.6,-0.3,-5.9,717,908,0
L,,8776525,-0.006,0.143,-0.002,7.2,-1.2,-6.5,667,910,0
L,,8776585,-0.016,0.167,0.002,9.4,2.8,-6.3,623,908,0
L,,8776645,0.002,0.179,0.028,12.8,12.3,-9.5,506,910,0
L,,8776735,-0.017,0.175,-0.014,16.3,17.3,-15.4,257,897,0
L,,8776795,0.032,0.136,0.007,12.7,26.1,-12.1,516,765,0
L,,8776855,0.061,0.040,0.070,-3.6,17.4,-1.6,553,780,0
L,,8776916,0.043,0.057,-0.002,-21.3,4.0,3.8,559,788,0
L,,8776975,0.052,0.125,-0.012,-33.3,-1.1,9.1,561,786,0
L,,8777035,0.029,0.175,-0.025,-31.6,0.0,13.7,582,799,0
L,,8777094,-0.005,0.198,-0.030,-30.4,4.6,13.2,602,808,0
L,,8777187,-0.043,0.202,-0.062,-19.1,6.5,11.6,592,813,0
L,,8777245,-0.008,0.162,-0.155,0.5,16.0,-2.0,579,823,0
L,,8777305,0.206,0.077,0.203,12.9,11.9,3.6,689,838,0
L,,8777365,0.023,0.165,0.047,5.2,-9.5,-7.4,728,866,0
L,,8777425,0.002,0.146,0.014,8.0,-5.0,-6.2,748,883,0
L,,8777485,0.012,0.131,0.025,8.6,1.9,-3.1,757,892,0
L,,8777575,0.000,0.118,0.041,9.3,-3.1,-3.7,765,903,0
L,,8777635,0.014,0.122,0.028,5.7,-1.1,-2.8,766,908,0
L,,8777695,-0.004,0.124,0.018,4.5,0.6,-2.1,755,908,0
L,,8777755,0.001,0.121,0.013,4.2,-0.6,-2.7,732,909,0
L,,8777815,0.001,0.124,-0.001,4.2,0.2,-3.4,715,908,0
L,,8777876,-0.003,0.124,0.012,4.2,0.4,-4.0,712,907,0
L,,8777935,-0.003,0.132,-0.003,4.6,1.3,-4.5,690,908,0
L,,8777995,-0.015,0.138,0.002,5.7,0.0,-4.9,662,910,0
L,,8778055,-0.007,0.141,-0.010,7.6,2.8,-5.5,640,910,0
L,,8778115,0.001,0.153,-0.005,9.3,5.3,-6.2,598,908,0
L,,8778206,-0.023,0.146,-0.028,11.3,9.6,-10.9,380,907,0
L,,8778265,-0.019,0.175,-0.010,11.5,13.2,-12.3,458,888,0
L,,8778325,-0.037,0.050,0.065,6.4,17.8,-8.9,565,786,0
L,,8778385,0.044,0.033,0.030,-6.2,20.2,0.5,551,783,0
L,,8778475,0.065,0.102,-0.017,-24.4,12.7,6.3,572,802,0
L,,8778535,0.055,0.168,-0.048,-27.2,8.5,7.9,594,807,0
L,,8778595,0.028,0.167,-0.056,-25.3,3.6,8.6,602,814,0
L,,8778657,0.022,0.166,-0.042,-22.9,5.3,8.5,584,811,0
L,,8778715,0.047,0.160,-0.042,-17.2,-1.7,7.9,587,812,0
L,,8778775,-0.001,0.133,-0.045,-11.8,-9.7,4.8,593,817,0
L,,8778835,-0.021,0.135,-0.069,-1.4,-11.6,-1.4,583,811,0
L,,8778895,0.011,0.140,0.038,1.6,-1.7,-6.5,696,843,0
L,,8778956,0.025,0.141,0.007,6.0,-2.8,-7.8,730,867,0
L,,8779015,0.027,0.111,0.036,0.3,-0.7,-4.2,753,887,0
L,,8779075,0.019,0.109,0.052,3.3,-1.5,-3.5,756,889,0
L,,8779135,0.031,0.119,0.031,1.5,-2.5,-3.8,759,894,0
L,,8779195,0.014,0.121,0.034,1.8,-2.8,-3.5,763,900,0
L,,8779285,0.025,0.121,0.019,2.4,1.6,-1.9,768,902,0
L,,8779345,0.016,0.119,0.030,2.3,0.4,-0.5,767,901,0
L,,8779437,0.019,0.124,0.019,1.9,-0.2,0.0,771,904,0
L,,8779496,0.018,0.124,0.017,1.8,1.0,-0.2,773,905,0
L,,8779555,0.015,0.123,0.013,0.9,1.2,0.4,770,906,0
L,,8779615,0.015,0.125,0.016,0.1,1.6,0.6,770,902,0
L,,8779675,0.020,0.125,0.022,-0.8,-1.5,-0.1,769,902,0
L,,8779735,0.009,0.126,0.018,2.0,-1.0,-0.8,768,900,0
L,,8779795,0.013,0.109,0.013,2.1,-0.1,-0.2,767,902,0
L,,8779855,0.011,0.124,0.012,1.0,-0.5,0.1,767,903,0
L,,8779916,0.015,0.124,0.010,1.0,-0.9,0.0,767,902,0
L,,8779975,0.012,0.126,0.011,1.7,0.4,0.3,767,905,0
L,,8780036,0.013,0.124,0.007,1.7,-0.6,0.1,768,901,0
L,,8780097,0.017,0.126,0.008,2.1,-0.1,0.0,767,904,0
L,,8780155,0.018,0.127,0.004,2.5,-1.6,-0.6,766,902,0
L,,8780214,0.007,0.127,0.003,2.4,-1.8,-1.2,763,903,0
L,,8780305,0.016,0.124,-0.001,3.8,-0.5,-1.4,746,897,0
L,,8780365,0.021,0.136,-0.011,1.6,-3.5,-1.7,680,888,0
L,,8780425,0.031,0.138,-0.006,3.8,-1.6,-0.8,642,843,0
L,,8780485,0.001,0.173,-0.054,9.3,-4.7,-2.9,637,831,0
L,,8780545,-0.001,0.135,-0.034,13.1,4.0,-7.3,647,832,0
L,,8780605,0.032,0.045,0.010,9.5,0.4,-4.8,655,833,0
L,,8780695,0.005,0.055,-0.003,-7.3,-1.9,5.4,657,834,0
L,,8780796,0.002,0.096,-0.023,-9.4,3.6,8.1,660,839,0
L,,8780815,0.014,0.109,-0.008,-10.2,4.0,7.7,658,838,0
L,,8780876,0.135,0.282,-0.064,3.1,-0.3,1.9,739,881,0
L,,8780965,0.001,0.144,0.004,2.1,5.1,-0.3,730,892,0
L,,8781025,0.022,0.110,-0.019,-1.7,-5.4,-0.4,720,894,0
L,,8781085,0.015,0.128,-0.005,-0.4,0.3,-0.1,734,900,0
L,,8781145,0.017,0.120,-0.014,-1.1,-0.7,0.0,738,902,0
L,,8781206,0.011,0.124,-0.003,-1.4,-0.8,0.4,744,903,0
L,,8781265,0.018,0.122,-0.003,-0.8,0.0,0.0,750,907,0
L,,8781355,0.016,0.126,-0.001,-0.7,-0.6,-0.1,751,905,0
L,,8781416,0.014,0.125,-0.003,-0.4,-0.7,-0.3,751,905,0
L,,8781475,0.014,0.124,-0.003,-0.4,-0.8,-0.4,755,907,0
L,,8781536,0.013,0.124,-0.003,-0.5,-0.1,-0.4,754,906,0
L,,8781595,0.012,0.125,-0.001,-0.5,-0.1,-0.3,757,907,0
L,,8781657,0.013,0.123,0.000,-0.4,-0.7,-0.6,759,908,0
L,,8781715,0.010,0.123,0.000,-0.7,-0.5,-0.5,758,905,0
L,,8781775,0.009,0.123,0.000,-1.4,-1.4,-0.6,761,908,0
L,,8781835,0.011,0.124,0.001,-1.8,-1.0,-0.6,766,908,0
L,,8781895,0.007,0.126,0.008,-1.6,-0.5,-0.7,770,908,0
L,,8781956,0.006,0.123,0.010,-2.3,-1.2,0.0,770,907,0
L,,8782015,0.005,0.126,0.010,-0.3,0.5,0.7,775,911,0
L,,8782105,0.006,0.128,0.009,2.1,0.0,0.2,774,910,0
L,,8782166,0.011,0.125,0.002,2.1,-0.2,0.0,774,909,0
L,,8782225,0.008,0.127,0.002,2.1,0.4,0.2,775,910,0
L,,8782286,0.012,0.126,0.001,2.6,0.0,-0.5,775,911,0
L,,8782347,0.002,0.130,0.004,3.8,1.0,-0.7,775,909,0
L,,8782435,0.005,0.139,0.005,6.3,0.2,-0.6,760,909,0
L,,8782496,0.027,0.152,-0.027,8.2,2.6,-1.2,617,903,0
L,,8782555,0.016,0.120,-0.023,5.9,-1.0,-1.1,506,907,0
L,,8782616,-0.011,0.116,-0.020,5.8,-0.1,-1.7,435,902,0
L,,8782675,0.007,0.108,-0.041,5.3,0.6,-2.0,412,898,0
L,,8782735,-0.003,0.114,-0.038,4.0,-2.6,-1.2,344,904,0
L,,8782795,-0.013,0.107,-0.043,3.4,-1.1,-0.7,258,905,0
L,,8782854,-0.008,0.106,-0.053,2.3,-0.3,-0.3,243,908,0
L,,8782916,-0.007,0.108,-0.046,1.4,-1.3,0.2,255,906,0
L,,8782975,-0.011,0.113,-0.052,0.8,-0.8,0.1,247,908,0
L,,8783036,-0.008,0.112,-0.053,1.0,-0.4,-2.2,262,908,0
L,,8783097,0.001,0.114,-0.051,0.4,0.0,0.0,248,908,0
L,,8783156,-0.007,0.116,-0.050,1.2,-1.4,-0.4,266,910,0
L,,8783215,-0.002,0.132,-0.039,3.0,-2.4,-1.5,246,908,0
L,,8783275,-0.002,0.163,-0.035,5.8,-0.1,-5.7,254,905,0
L,,8783334,-0.004,0.137,-0.028,8.9,3.0,-7.1,346,837,0
L,,8783395,0.030,0.078,0.009,2.1,10.8,-1.7,512,769,0
L,,8783485,0.034,0.078,-0.023,-11.7,8.7,4.2,527,771,0
L,,8783545,0.040,0.112,-0.035,-19.0,1.0,6.7,537,774,0
L,,8783605,0.008,0.139,-0.051,-19.6,-4.5,8.8,535,769,0
L,,8783666,0.007,0.146,-0.037,-16.0,0.4,8.8,534,782,0
L,,8783725,-0.003,0.141,-0.048,-12.3,1.9,6.3,546,781,0
L,,8783787,0.016,0.133,-0.039,-9.8,-0.1,2.9,539,785,0
L,,8783845,0.023,0.127,-0.045,-7.7,-10.6,2.5,552,799,0
L,,8783906,-0.090,0.182,0.024,-7.7,-9.4,-1.3,608,794,0
L,,8783965,0.054,0.144,-0.002,2.7,-2.6,-2.7,734,880,0
L,,8784025,0.048,0.116,0.028,1.5,-0.4,-6.9,749,892,0
L,,8784085,0.012,0.130,0.008,3.4,-2.0,-2.8,760,899,0
L,,8784145,0.032,0.122,0.021,0.2,-1.4,-3.1,766,904,0
L,,8784206,0.020,0.125,0.010,0.9,-2.6,-2.1,769,906,0
L,,8784265,0.022,0.124,0.012,0.6,-2.4,-2.5,768,908,0
L,,8784326,0.015,0.121,0.015,0.8,-2.8,-1.9,769,909,0
L,,8784385,0.016,0.124,0.010,1.2,-2.2,-1.9,772,909,0
L,,8784446,0.010,0.125,0.009,0.5,-2.4,-1.4,766,907,0
L,,8784507,0.014,0.120,0.014,1.6,-0.3,-1.2,769,909,0
L,,8784565,0.008,0.127,0.012,0.4,-1.5,-0.6,768,909,0
L,,8784625,0.010,0.124,0.007,0.6,-1.3,-0.6,765,908,0
L,,8784685,0.006,0.127,0.002,0.4,-0.7,-0.1,766,909,0
L,,8784746,0.009,0.126,0.007,0.4,-0.5,0.0,765,910,0
L,,8784805,0.006,0.127,-0.002,0.8,-0.6,0.0,766,909,0
L,,8784866,0.009,0.125,0.007,1.0,-0.3,0.2,769,910,0
L,,8784925,0.007,0.126,0.001,0.7,-0.3,0.4,771,913,0
L,,8784985,0.007,0.123,0.005,0.7,-0.1,0.8,768,909,0
L,,8785045,0.006,0.126,0.005,0.7,0.5,0.9,766,909,0
L,,8785105,0.009,0.125,0.004,1.1,0.7,0.8,769,909,0
L,,8785166,0.009,0.124,0.001,1.2,1.3,1.2,769,911,0
L,,8785227,0.012,0.123,0.002,1.5,1.1,1.7,769,910,0
L,,8785286,0.018,0.126,-0.001,2.7,0.7,1.4,770,909,0
L,,8785345,0.015,0.124,0.000,3.7,-0.1,1.8,770,910,0
L,,8785406,0.020,0.134,-0.009,5.1,1.9,1.6,770,912,0
L,,8785465,0.016,0.151,0.015,8.6,3.2,2.0,758,909,0
L,,8785555,0.036,0.129,-0.024,7.8,2.7,-2.8,545,885,0
L,,8785616,-0.010,0.095,-0.037,4.4,0.0,-0.2,590,833,0
L,,8785675,0.018,0.093,-0.022,-0.9,0.3,3.3,604,816,0
L,,8785736,0.023,0.105,-0.040,-0.6,2.9,3.6,602,811,0
L,,8785795,0.043,0.114,-0.049,-1.3,0.4,3.6,599,810,0
L,,8785855,0.023,0.113,-0.046,0.0,-1.8,3.0,599,810,0
L,,8785916,0.034,0.115,-0.044,1.3,0.0,2.5,597,813,0
L,,8785975,0.019,0.112,-0.046,2.3,0.6,1.8,597,810,0
L,,8786036,0.036,0.109,-0.036,2.6,0.4,1.2,604,815,0
L,,8786095,0.039,0.112,-0.032,2.4,-2.2,0.7,609,817,0
L,,8786156,0.051,0.104,-0.034,1.5,-0.3,0.9,616,820,0
L,,8786215,0.051,0.102,-0.033,1.1,-0.4,1.0,619,822,0
L,,8786276,0.053,0.105,-0.034,0.7,0.4,1.6,619,819,0
L,,8786335,0.051,0.105,-0.028,-0.7,-1.9,2.3,621,821,0
L,,8786395,0.035,0.105,-0.035,-1.2,-2.7,1.9,622,821,0
L,,8786456,0.031,0.106,-0.024,-2.3,-3.3,1.5,625,821,0
L,,8786515,0.029,0.108,-0.021,-2.7,0.0,1.1,626,822,0
L,,8786576,0.036,0.111,-0.021,-3.4,-1.2,0.4,629,824,0
L,,8786637,0.034,0.112,-0.019,-4.2,-1.9,0.0,627,824,0
L,,8786696,0.036,0.111,-0.023,-5.0,-0.9,-0.3,627,823,0
L,,8786755,0.047,0.117,-0.019,-5.9,-1.8,-0.5,628,827,0
L,,8786815,0.045,0.115,-0.025,-6.1,-3.2,-0.5,627,827,0
L,,8786875,0.045,0.117,-0.022,-5.9,-3.1,-0.4,627,825,0
L,,8786935,0.035,0.116,-0.027,-4.7,-0.3,-0.6,627,828,0
L,,8786996,0.043,0.117,-0.025,-3.3,0.3,-1.1,625,827,0
L,,8787055,0.041,0.117,-0.024,-2.2,-1.3,-1.3,631,829,0
L,,8787116,0.027,0.115,-0.025,-1.6,-1.6,-2.0,631,830,0
L,,8787175,0.038,0.118,-0.009,-1.8,-1.7,-2.4,627,830,0
L,,8787236,0.019,0.110,-0.054,-0.1,-9.5,-0.7,629,852,0
L,,8787295,0.054,0.132,-0.017,-3.4,0.3,-4.4,752,894,0
L,,8787357,0.002,0.144,0.024,2.0,-1.3,-3.9,761,901,0
L,,8787416,0.024,0.125,-0.010,0.4,-2.1,-2.4,766,903,0
L,,8787475,0.009,0.123,0.006,-0.3,-0.9,-1.4,770,906,0
L,,8787536,0.015,0.123,0.000,-0.1,-0.2,-1.2,771,909,0
L,,8787595,0.007,0.127,0.009,1.1,-0.4,-1.2,771,909,0
L,,8787656,0.012,0.124,0.002,0.4,-0.9,-1.3,768,909,0
L,,8787715,0.011,0.121,0.000,0.4,-1.0,-0.6,770,910,0
L,,8787776,0.007,0.123,-0.003,-0.5,-2.7,-0.3,771,910,0
L,,8787835,0.010,0.124,0.001,-0.7,-2.3,-0.1,769,910,0
L,,8787895,0.009,0.126,-0.001,-0.2,-1.8,-0.5,771,910,0
L,,8787956,0.008,0.126,0.003,0.2,-0.3,-0.4,771,910,0
L,,8788017,0.010,0.123,0.003,0.7,0.8,-0.7,773,911,0
L,,8788076,0.006,0.123,0.002,0.2,-0.5,-0.3,771,912,0
L,,8788135,0.005,0.123,0.002,-0.1,-1.2,-0.2,771,913,0
L,,8788196,0.006,0.123,0.000,0.0,-0.7,-0.1,770,910,0
L,,8788255,0.006,0.125,0.002,0.3,-0.8,0.0,778,914,0
L,,8788345,0.005,0.124,0.005,0.3,-1.1,0.4,770,910,0
L,,8788406,0.005,0.126,0.000,0.4,-1.2,0.2,770,910,0
L,,8788496,0.007,0.125,0.000,0.4,-0.6,0.7,772,909,0
L,,8788555,0.009,0.126,-0.003,0.8,0.4,0.3,771,909,0
L,,8788616,0.006,0.125,-0.002,1.1,0.0,0.7,772,911,0
L,,8788675,0.005,0.125,-0.003,1.0,1.7,0.7,775,912,0
L,,8788736,0.010,0.126,-0.001,0.9,0.8,1.4,773,911,0
L,,8788797,0.007,0.126,-0.002,1.2,1.5,1.7,773,911,0
L,,8788856,0.016,0.125,-0.004,1.3,1.2,2.0,772,911,0
L,,8788916,0.015,0.124,-0.004,2.3,1.7,2.3,773,911,0
L,,8788975,0.018,0.124,-0.003,2.9,1.5,2.4,772,912,0
L,,8789036,0.022,0.125,-0.008,3.7,0.7,3.1,768,910,0
L,,8789095,0.027,0.130,-0.015,3.9,3.5,2.5,739,908,0
L,,8789156,0.047,0.143,-0.015,2.5,-0.6,1.6,607,899,0
L,,8789246,-0.022,0.128,-0.059,3.7,2.6,0.6,635,835,0
L,,8789305,0.048,0.105,-0.040,2.5,7.6,3.5,635,826,0
L,,8789366,0.032,0.114,-0.045,2.6,7.3,3.5,630,826,0
L,,8789425,0.046,0.116,-0.041,4.2,3.9,2.9,636,825,0
L,,8789486,0.040,0.113,-0.030,4.6,-0.9,1.8,631,826,0
L,,8789547,0.040,0.106,-0.022,4.6,-0.4,1.2,633,827,0
L,,8789606,0.046,0.102,-0.020,3.9,1.6,0.9,629,825,0
L,,8789666,0.051,0.105,-0.020,2.4,0.1,1.0,632,826,0
L,,8789725,0.045,0.105,-0.022,1.1,0.4,0.8,635,826,0
L,,8789786,0.047,0.104,-0.032,0.1,0.0,0.7,635,828,0
L,,8789845,0.046,0.105,-0.035,-0.8,-0.8,0.9,635,828,0
L,,8789906,0.056,0.103,-0.036,-0.7,-0.2,0.8,634,829,0
L,,8789965,0.049,0.102,-0.036,-1.3,-1.6,0.7,634,828,0
L,,8790026,0.050,0.103,-0.035,-1.1,-0.4,0.8,638,830,0
L,,8790085,0.050,0.103,-0.037,-1.2,0.5,0.4,641,831,0
L,,8790146,0.052,0.106,-0.029,-1.4,-0.6,0.4,640,830,0
L,,8790208,0.042,0.108,-0.026,-2.0,-1.1,0.0,642,831,0
L,,8790265,0.045,0.104,-0.027,-2.4,-1.4,-0.5,642,830,0
L,,8790326,0.048,0.109,-0.023,-2.8,-2.3,-0.8,643,832,0
L,,8790385,0.045,0.114,-0.022,-2.5,-2.7,-1.3,640,831,0
L,,8790446,0.044,0.113,-0.023,-2.5,-2.2,-1.9,642,831,0
L,,8790505,0.047,0.112,-0.023,-2.4,-1.4,-2.2,642,832,0
L,,8790566,0.049,0.112,-0.023,-2.0,-1.8,-2.5,644,832,0
L,,8790625,0.051,0.112,-0.023,-1.5,-0.8,-2.3,641,834,0
L,,8790686,0.045,0.113,-0.020,-1.7,-0.7,-2.0,642,830,0
L,,8790746,0.034,0.113,-0.018,-1.9,0.4,-2.1,645,830,0
L,,8790805,0.037,0.109,-0.016,-3.3,-0.2,-1.8,643,831,0
L,,8790865,-0.197,0.164,-0.079,-9.2,-7.2,-6.1,644,845,0
L,,8790927,0.025,0.147,-0.016,-3.0,-1.8,-3.1,678,893,0
L,,8790986,0.030,0.117,-0.009,-3.9,-0.8,-4.7,754,903,0
L,,8791045,0.015,0.125,0.002,-1.7,-0.4,-2.7,763,908,0
L,,8791106,0.015,0.129,0.000,-3.0,-1.8,-1.3,765,909,0
L,,8791166,0.021,0.125,0.004,-0.9,-2.7,-1.3,766,908,0
L,,8791225,0.011,0.125,0.001,-0.3,-2.1,-1.8,764,909,0
L,,8791286,0.012,0.123,0.002,-0.3,-2.4,-1.4,765,907,0
L,,8791345,0.007,0.125,-0.006,-0.9,-1.7,-1.1,766,908,0
L,,8791406,0.008,0.123,0.007,-0.5,2.8,-0.4,767,909,0
L,,8791465,0.007,0.126,0.005,-0.7,0.0,0.0,769,911,0
L,,8791526,0.009,0.125,0.009,-0.3,0.5,-0.1,768,910,0
L,,8791587,0.010,0.124,0.006,-0.3,-0.6,-0.1,769,911,0
L,,8791646,0.004,0.125,0.004,-0.4,0.3,0.4,769,910,0
L,,8791706,0.012,0.123,0.009,-0.7,-0.5,0.4,771,913,0
L,,8791765,0.008,0.123,0.011,-0.8,-1.8,0.1,769,910,0
L,,8791826,0.005,0.127,0.007,-1.7,-3.2,0.3,770,909,0
L,,8791885,0.014,0.124,0.011,-1.1,-2.1,0.3,769,908,0
L,,8791946,0.010,0.125,0.011,0.0,-2.3,-0.3,769,904,0
L,,8792005,0.013,0.127,0.000,0.8,-1.0,0.1,767,906,0
L,,8792066,0.006,0.126,0.015,1.4,2.4,0.0,772,908,0
L,,8792125,0.010,0.125,0.011,1.0,0.9,0.7,773,910,0
L,,8792186,0.015,0.122,0.009,0.6,0.4,1.2,772,910,0
L,,8792246,0.014,0.125,0.003,0.3,-0.7,1.0,775,912,0
L,,8792307,0.012,0.125,0.005,0.8,0.4,0.8,776,913,0
L,,8792366,0.013,0.122,0.005,0.9,0.0,1.3,774,911,0
L,,8792425,0.014,0.123,0.006,1.1,0.8,1.6,775,911,0
L,,8792486,0.015,0.124,0.004,0.9,0.7,1.9,775,911,0
L,,8792545,0.018,0.123,0.004,1.1,1.1,2.4,774,911,0
L,,8792606,0.021,0.125,0.001,1.6,0.4,2.9,774,910,0
L,,8792666,0.024,0.125,-0.001,2.6,1.6,3.5,773,912,0
L,,8792726,0.030,0.124,0.003,2.8,1.1,4.5,770,906,0
L,,8792786,0.046,0.123,0.000,4.5,0.9,1.9,733,897,0
L,,8792845,0.019,0.123,0.000,2.0,1.0,1.5,654,863,0
L,,8792906,0.029,0.117,-0.027,3.4,-0.4,2.5,641,835,0
L,,8792965,0.036,0.113,-0.026,3.1,9.1,1.8,638,832,0
L,,8793027,0.061,0.114,-0.028,3.9,5.3,1.8,635,831,0
L,,8793085,0.052,0.112,-0.025,4.4,-0.1,1.2,632,829,0
L,,8793146,0.044,0.113,-0.013,3.7,-2.8,1.5,626,828,0
L,,8793206,0.043,0.109,-0.019,3.7,4.4,1.3,627,830,0
L,,8793266,0.047,0.106,-0.019,2.4,2.5,1.9,631,830,0
L,,8793326,0.046,0.109,-0.020,1.8,1.3,1.2,630,830,0
L,,8793385,0.049,0.108,-0.019,1.8,0.5,0.6,633,830,0
L,,8793446,0.051,0.105,-0.026,1.4,-0.1,0.3,634,831,0
L,,8793505,0.049,0.105,-0.022,0.8,-0.1,0.6,636,831,0
L,,8793566,0.046,0.104,-0.033,0.7,-0.1,0.2,638,831,0
L,,8793625,0.050,0.106,-0.026,0.4,-0.9,0.2,642,833,0
L,,8793687,0.049,0.108,-0.022,-0.4,-2.0,0.0,643,834,0
L,,8793746,0.041,0.107,-0.023,-0.6,-1.6,-0.3,645,836,0
L,,8793806,0.047,0.108,-0.024,-1.0,-1.4,-0.9,644,834,0
L,,8793866,0.047,0.105,-0.025,-1.1,-2.2,-1.1,646,834,0
L,,8793956,0.047,0.110,-0.021,-1.8,-2.5,-0.8,650,837,0
L,,8794016,0.051,0.111,-0.022,-2.6,-1.6,-0.3,649,835,0
L,,8794106,0.046,0.110,-0.023,-3.0,-3.3,-0.5,650,836,0
L,,8794166,0.046,0.113,-0.018,-2.9,-4.0,-0.6,652,837,0
L,,8794226,0.042,0.115,-0.018,-2.8,-3.0,-0.9,650,838,0
L,,8794286,0.040,0.115,-0.017,-3.4,-1.6,-0.6,655,840,0
L,,8794345,0.049,0.115,-0.018,-4.0,-1.4,0.0,654,838,0
L,,8794406,0.044,0.115,-0.022,-3.5,-1.1,-0.2,656,839,0
L,,8794467,0.044,0.117,-0.023,-2.8,-1.8,-0.5,656,837,0
L,,8794526,0.037,0.117,-0.024,-1.8,-2.0,-0.7,656,837,0
L,,8794585,0.021,0.115,-0.024,-1.1,-0.9,-1.5,659,837,0
L,,8794646,0.024,0.126,-0.069,0.2,-1.5,-1.7,664,845,0
L,,8794706,0.043,0.141,-0.039,-3.6,0.4,-3.0,752,896,0
L,,8794766,0.013,0.141,0.004,-3.7,0.0,-4.1,765,905,0
L,,8794826,0.023,0.127,0.014,-1.5,2.8,-1.6,771,906,0
L,,8794885,0.020,0.126,0.004,-0.7,-1.9,-1.6,771,907,0
L,,8794976,0.019,0.109,0.003,0.0,-2.6,-2.3,769,909,0
L,,8795036,0.010,0.124,0.001,-0.3,-2.2,-1.5,775,912,0
L,,8795096,0.013,0.129,0.010,-1.1,-1.8,-1.0,773,910,0
L,,8795156,0.013,0.124,0.013,-0.5,1.8,-0.5,772,910,0
L,,8795217,0.013,0.122,0.010,-0.3,1.6,-0.4,768,909,0
L,,8795276,0.008,0.121,0.013,-0.2,1.9,0.4,766,905,0
L,,8795335,0.009,0.123,0.018,-0.2,0.7,0.4,762,904,0
L,,8795396,0.016,0.111,0.004,0.0,-6.8,-0.7,767,907,0
L,,8795456,0.011,0.125,0.015,-0.2,0.8,-0.9,772,910,0
L,,8795516,0.010,0.125,0.010,-0.1,-3.1,-0.4,776,910,0
L,,8795576,0.005,0.127,0.010,0.1,0.0,-0.2,777,912,0
L,,8795635,0.012,0.127,0.008,-0.1,-1.1,0.3,776,911,0
L,,8795696,0.012,0.125,0.006,0.0,-0.2,0.3,778,911,0
L,,8795755,0.005,0.125,0.013,0.1,0.6,0.7,778,912,0
L,,8795816,0.012,0.122,0.015,0.3,0.3,0.4,776,911,0
L,,8795877,0.011,0.127,0.008,0.5,0.0,0.6,780,912,0
L,,8795936,0.012,0.124,0.014,0.0,-0.3,0.6,777,911,0
L,,8796026,0.012,0.123,0.011,0.0,-0.5,0.7,778,912,0
L,,8796085,0.013,0.124,0.014,0.2,-1.4,1.1,779,911,0
L,,8796146,0.014,0.125,0.009,0.8,-0.3,1.1,777,912,0
L,,8796206,0.016,0.124,0.011,0.5,-0.5,1.6,777,912,0
L,,8796266,0.019,0.124,0.007,1.2,-0.6,1.8,778,910,0
L,,8796326,0.019,0.123,0.008,1.8,-0.1,2.2,781,914,0
L,,8796386,0.020,0.123,0.002,2.2,0.2,2.7,777,912,0
L,,8796446,0.026,0.124,0.003,2.5,0.4,3.4,773,910,0
L,,8796505,0.028,0.125,0.004,3.3,0.5,3.5,773,909,0
L,,8796566,0.035,0.124,-0.004,4.1,1.5,4.0,770,908,0
L,,8796627,0.052,0.140,0.002,1.4,1.3,3.0,665,903,0
L,,8796686,0.013,0.124,0.000,-0.3,5.0,1.6,604,855,0
L,,8796746,0.029,0.116,-0.036,5.3,3.6,1.2,617,833,0
L,,8796806,0.034,0.114,-0.021,4.3,3.8,-0.2,607,825,0
L,,8796866,0.043,0.115,-0.026,4.5,0.9,0.1,608,824,0
L,,8796926,0.039,0.115,-0.023,5.6,1.7,-0.6,604,821,0
L,,8796986,0.044,0.112,-0.020,5.3,1.8,-0.7,607,820,0
L,,8797076,0.049,0.113,-0.018,4.8,2.1,-0.4,609,826,0
L,,8797136,0.044,0.109,-0.028,4.3,1.7,-0.6,609,827,0
L,,8797196,0.048,0.109,-0.023,3.3,0.0,-0.3,614,826,0
L,,8797255,0.038,0.105,-0.022,2.2,-1.2,-0.3,612,825,0
L,,8797316,0.036,0.108,-0.023,1.2,-0.3,-0.1,612,827,0
L,,8797408,0.044,0.106,-0.025,-0.1,0.4,0.0,616,829,0
L,,8797465,0.035,0.108,-0.034,-0.6,0.2,0.0,616,827,0
L,,8797526,0.051,0.107,-0.023,-1.5,-1.5,0.4,621,829,0
L,,8797585,0.045,0.109,-0.017,-2.1,0.4,0.4,622,831,0
L,,8797646,0.045,0.111,-0.023,-2.6,0.0,0.4,623,832,0
L,,8797706,0.050,0.111,-0.021,-3.9,-1.0,0.7,622,831,0
L,,8797766,0.048,0.114,-0.020,-4.2,-2.8,0.8,626,834,0
L,,8797826,0.043,0.115,-0.019,-4.6,-4.0,0.8,627,833,0
L,,8797916,0.035,0.116,-0.033,-4.5,-1.4,0.8,623,834,0
L,,8797976,0.047,0.117,-0.022,-4.2,-1.5,0.7,628,833,0
L,,8798066,0.041,0.117,-0.024,-2.6,-3.4,-0.2,634,836,0
L,,8798158,0.028,0.115,-0.023,-1.1,-2.4,-1.3,639,834,0
L,,8798216,0.033,0.116,-0.011,-0.7,-2.8,-2.4,646,837,0
L,,8798276,0.063,0.155,0.022,1.6,1.7,-3.3,649,865,0
L,,8798335,0.062,0.154,-0.028,-4.9,0.0,-2.2,752,900,0
L,,8798396,0.021,0.140,0.010,-4.4,-0.5,-3.0,766,908,0
L,,8798456,0.033,0.120,0.006,-3.6,-1.1,-1.5,769,908,0
L,,8798516,0.025,0.123,0.012,-0.7,-3.5,-2.5,771,909,0
L,,8798576,0.021,0.124,0.007,-0.1,-2.8,-2.6,772,908,0
L,,8798636,0.014,0.125,0.005,-0.5,-2.7,-1.8,771,907,0
L,,8798696,0.020,0.125,0.002,-0.9,-0.8,-1.4,771,908,0
L,,8798756,0.010,0.125,0.015,0.3,2.6,-0.9,774,909,0
L,,8798846,0.012,0.126,0.008,0.1,0.4,-0.7,776,908,0
L,,8798908,0.013,0.124,0.010,0.1,-0.2,-0.7,776,911,0
L,,8798966,0.012,0.124,0.006,-0.2,-0.8,-0.3,777,912,0
L,,8799026,0.009,0.125,0.007,-0.3,-0.4,-0.2,775,912,0
L,,8799127,0.010,0.125,0.009,0.0,-0.8,-0.1,777,911,0
L,,8799176,0.010,0.124,0.008,0.1,-0.2,-2.2,777,911,0
L,,8799236,0.010,0.125,0.006,0.2,0.4,0.3,779,914,0
L,,8799295,0.010,0.124,0.011,0.0,0.1,0.5,777,910,0
L,,8799356,0.014,0.124,0.008,0.0,-0.1,0.4,778,913,0
L,,8799416,0.014,0.123,0.007,0.4,0.3,0.6,777,914,0
L,,8799476,0.011,0.124,0.009,0.4,0.1,0.9,778,913,0
L,,8799536,0.015,0.124,0.008,0.2,-0.3,1.1,778,913,0
L,,8799597,0.016,0.125,0.009,0.7,0.2,1.4,778,912,0
L,,8799656,0.015,0.125,0.008,0.8,-0.5,1.6,778,913,0
L,,8799716,0.018,0.125,0.005,1.2,0.2,1.8,778,912,0
L,,8799776,0.018,0.123,0.004,1.6,-0.2,2.4,778,914,0
L,,8799835,0.022,0.122,0.005,1.5,-0.5,2.8,776,911,0
L,,8799896,0.028,0.122,0.002,2.2,0.1,3.5,778,912,0
L,,8799956,0.033,0.124,0.000,2.9,-1.5,4.2,775,912,0
L,,8800016,0.037,0.131,-0.002,2.7,0.7,3.6,755,909,0
L,,8800076,0.066,0.133,-0.004,0.0,4.0,3.9,598,903,0
L,,8800136,0.002,0.153,-0.054,-0.8,0.8,2.5,556,839,0
L,,8800225,0.030,0.118,-0.024,5.8,1.2,1.6,581,824,0
L,,8800286,0.053,0.117,-0.036,7.9,5.4,-0.6,578,818,0
L,,8800347,0.058,0.115,-0.018,9.3,5.4,0.0,560,812,0
L,,8800406,0.043,0.110,-0.020,8.7,2.7,-0.3,560,807,0
L,,8800466,0.052,0.111,-0.012,7.4,1.2,0.1,561,811,0
L,,8800526,0.029,0.102,-0.015,5.9,2.9,-0.1,551,807,0
L,,8800585,0.048,0.103,-0.016,3.4,3.1,-0.5,525,804,0
L,,8800646,0.045,0.098,-0.025,2.7,1.4,-0.4,533,802,0
L,,8800706,0.060,0.101,-0.020,0.8,-1.3,0.0,532,804,0
L,,8800766,0.053,0.101,-0.029,-0.1,-1.8,0.0,531,803,0
L,,8800826,0.057,0.101,-0.026,-1.7,-1.8,0.5,528,807,0
L,,8800886,0.056,0.104,-0.032,-2.0,-0.2,0.8,527,806,0
L,,8800946,0.057,0.104,-0.021,-3.1,0.2,1.3,531,810,0
L,,8801006,0.051,0.105,-0.023,-3.6,0.6,1.2,533,808,0
L,,8801068,0.057,0.108,-0.018,-5.2,-1.4,1.3,543,813,0
L,,8801125,0.048,0.108,-0.025,-4.8,-2.5,0.9,550,812,0
L,,8801186,0.055,0.112,-0.015,-5.7,-4.3,1.1,550,815,0
L,,8801276,0.046,0.110,-0.027,-4.3,-5.4,-0.1,562,819,0
L,,8801336,0.036,0.114,-0.021,-4.7,-3.7,-1.0,561,817,0
L,,8801396,0.039,0.110,-0.033,-3.8,-6.9,-1.2,571,813,0
L,,8801456,0.036,0.110,-0.029,-3.4,-6.0,-2.2,581,820,0
L,,8801515,0.045,0.112,-0.013,-3.7,-6.7,-1.8,596,825,0
L,,8801576,0.035,0.115,-0.020,-3.6,-4.1,-2.8,611,829,0
L,,8801636,-0.173,0.125,-0.072,-6.4,-2.6,-3.5,616,853,0
L,,8801696,0.082,0.181,-0.009,-2.0,0.8,-4.6,750,895,0
L,,8801757,0.001,0.133,0.011,-4.1,-2.9,-3.6,763,904,0
L,,8801816,0.039,0.117,-0.004,-3.0,-0.3,-2.8,771,907,0
L,,8801875,0.013,0.126,0.016,-2.9,-1.9,-1.5,769,907,0
L,,8801936,0.024,0.128,0.005,0.0,-2.4,-2.7,771,908,0
L,,8801996,0.016,0.126,0.003,0.5,-3.4,-2.1,770,908,0
L,,8802056,0.016,0.122,0.004,0.0,-3.1,-1.9,768,906,0
L,,8802146,0.012,0.122,0.005,-0.6,-0.9,-1.0,768,907,0
L,,8802206,0.008,0.126,0.004,-0.9,-1.1,-0.6,770,908,0
L,,8802307,0.008,0.123,0.007,-0.4,-1.1,-0.4,769,907,0
L,,8802386,0.009,0.125,0.005,-0.2,0.7,-0.1,771,910,0
L,,8802446,0.010,0.125,0.006,-1.0,0.0,0.0,771,910,0
L,,8802506,0.009,0.126,0.007,-1.2,0.2,0.2,772,908,0
L,,8802568,0.007,0.125,0.012,-0.3,-0.2,0.0,769,908,0
L,,8802626,0.006,0.126,0.009,-0.1,0.0,0.0,768,907,0
L,,8802686,0.008,0.125,0.011,0.6,0.8,0.3,768,905,0
L,,8802746,0.009,0.126,0.009,0.3,-0.1,0.5,769,905,0
L,,8802806,0.009,0.125,0.007,0.4,0.1,0.3,768,907,0
L,,8802866,0.011,0.124,0.009,1.9,1.0,0.1,769,907,0
L,,8802926,0.008,0.124,0.006,2.2,1.0,0.0,769,908,0
L,,8802986,0.010,0.127,0.005,2.8,1.1,0.0,772,907,0
L,,8803046,0.009,0.128,0.002,3.9,-0.1,-0.1,774,908,0
L,,8803106,0.009,0.130,0.004,5.5,0.0,-0.7,773,912,0
L,,8803166,0.006,0.126,-0.007,6.6,0.6,-0.9,758,907,0
L,,8803226,0.026,0.145,-0.016,8.3,1.9,-0.2,726,906,0
L,,8803288,0.026,0.147,-0.014,10.3,1.8,-2.0,704,901,0
L,,8803376,0.005,0.149,-0.002,12.1,6.6,-6.7,586,875,0
L,,8803436,0.000,0.122,-0.029,13.0,3.0,-7.6,575,852,0
L,,8803496,0.026,0.065,0.013,5.8,5.5,-2.9,611,805,0
L,,8803556,0.026,0.065,0.009,-2.6,0.1,2.5,624,813,0
L,,8803616,0.012,0.086,0.006,-12.5,3.0,6.7,633,820,0
L,,8803676,0.029,0.127,-0.013,-18.4,3.8,8.2,638,825,0
L,,8803736,0.030,0.154,-0.011,-20.1,-3.2,6.9,647,828,0
L,,8803826,0.019,0.163,-0.014,-19.5,-9.2,5.8,642,830,0
L,,8803916,-0.006,0.145,-0.031,-13.2,-5.1,5.2,618,820,0
L,,8803976,-0.008,0.136,-0.015,-10.0,1.1,3.7,605,817,0
L,,8804038,0.008,0.131,-0.037,-2.3,3.9,-1.0,608,824,0
L,,8804096,0.011,0.132,-0.038,4.8,-3.1,-5.6,624,827,0
L,,8804186,0.039,0.121,0.017,0.9,-14.8,-6.0,702,849,0
L,,8804246,0.000,0.143,0.051,3.9,-5.7,-8.7,729,868,0
L,,8804306,0.009,0.124,0.018,6.9,-1.6,-6.1,750,888,0
L,,8804366,0.018,0.125,0.012,4.3,-0.7,-4.8,758,893,0
L,,8804457,0.012,0.128,0.015,5.4,-2.8,-3.7,767,904,0
L,,8804516,0.001,0.127,0.014,4.7,-2.3,-3.9,769,903,0
L,,8804576,0.005,0.127,0.003,4.2,-1.6,-3.4,768,908,0
L,,8804635,-0.001,0.127,0.000,4.1,0.0,-3.7,761,909,0
L,,8804696,-0.006,0.122,0.001,3.2,0.5,-3.3,747,908,0
L,,8804756,-0.005,0.128,-0.007,3.0,0.1,-4.1,729,909,0
L,,8804818,-0.012,0.133,-0.002,4.5,0.9,-4.3,708,909,0
L,,8804876,-0.005,0.149,-0.004,6.9,1.8,-4.6,688,909,0
L,,8804936,0.004,0.159,-0.013,9.8,4.2,-5.6,653,910,0
L,,8804997,0.012,0.155,0.007,11.4,5.7,-6.8,535,908,0
L,,8805056,-0.017,0.180,-0.002,14.8,4.6,-12.8,167,909,0
L,,8805116,-0.003,0.145,0.008,11.4,11.3,-13.7,341,881,0
L,,8805176,-0.059,0.046,0.004,5.7,24.4,-7.6,539,775,0
L,,8805236,0.056,0.045,0.043,-8.6,17.7,0.7,536,773,0
L,,8805296,0.059,0.079,0.005,-26.9,6.9,5.7,543,777,0
L,,8805356,0.062,0.158,-0.033,-35.7,1.8,9.8,566,788,0
L,,8805416,0.042,0.190,-0.027,-30.2,4.6,12.5,586,800,0
L,,8805476,0.031,0.195,-0.044,-28.9,5.1,11.8,594,802,0
L,,8805538,0.023,0.201,-0.066,-22.6,-1.5,11.1,583,808,0
L,,8805596,-0.045,0.162,-0.118,-2.4,8.8,0.4,567,810,0
L,,8805656,0.203,0.145,0.307,5.8,1.2,1.3,670,826,0
L,,8805716,0.048,0.165,0.029,5.8,-11.6,-9.5,717,857,0
L,,8805776,0.016,0.145,0.011,8.1,-7.5,-7.7,747,883,0
L,,8805836,0.034,0.116,0.022,10.8,2.3,-4.6,755,892,0
L,,8805896,0.003,0.126,0.033,5.3,-3.1,-3.6,760,898,0
L,,8805957,0.014,0.124,0.029,6.8,1.0,-3.6,766,905,0
L,,8806016,0.003,0.126,0.020,5.4,0.0,-3.7,766,908,0
L,,8806076,0.000,0.121,0.006,4.6,1.4,-3.5,757,904,0
L,,8806166,-0.006,0.122,0.003,3.4,1.4,-3.1,726,908,0
L,,8806228,-0.004,0.127,0.012,3.5,0.1,-3.5,708,908,0
L,,8806287,-0.004,0.132,-0.002,5.1,-1.0,-4.5,671,907,0
L,,8806346,-0.010,0.154,0.002,7.5,-1.0,-6.0,635,905,0
L,,8806406,-0.001,0.164,0.000,10.7,4.4,-6.8,586,908,0
L,,8806465,0.013,0.177,0.029,13.7,6.1,-9.5,511,908,0
L,,8806526,0.006,0.231,-0.012,19.9,9.8,-18.8,198,908,0
L,,8806586,0.027,0.132,0.065,10.7,21.4,-15.0,478,826,0
L,,8806646,0.045,0.018,0.127,-1.6,29.3,-5.9,566,787,0
L,,8806707,0.072,0.057,0.022,-26.2,14.5,1.2,571,791,0
L,,8806766,0.040,0.160,-0.054,-39.8,3.1,5.3,572,806,0
L,,8806826,0.076,0.180,-0.023,-36.9,-1.4,15.6,588,796,0
L,,8806916,0.015,0.257,-0.032,-33.1,9.5,18.3,572,795,0
L,,8806978,-0.092,0.199,-0.257,-8.3,14.9,6.1,541,799,0
L,,8807037,0.200,0.129,0.464,-24.0,-10.8,-1.8,677,834,0
L,,8807096,0.048,0.175,-0.005,7.8,-16.5,-8.6,721,860,0
L,,8807156,-0.014,0.132,0.032,4.8,-5.8,-6.4,748,883,0
L,,8807216,0.025,0.117,0.035,7.4,4.5,-3.4,752,888,0
L,,8807276,-0.004,0.125,0.062,9.2,-2.6,-3.8,756,891,0
L,,8807336,0.016,0.123,0.025,8.8,0.4,-4.8,762,903,0
L,,8807396,-0.001,0.127,0.016,5.9,0.7,-4.8,759,904,0
L,,8807457,-0.004,0.123,0.038,5.6,1.7,-5.6,741,905,0
L,,8807516,0.000,0.141,-0.006,6.2,0.0,-7.3,667,909,0
L,,8807577,-0.019,0.166,0.023,8.7,2.1,-9.9,627,910,0
L,,8807638,0.010,0.202,0.048,13.5,10.6,-11.9,599,909,0
L,,8807696,0.030,0.232,0.054,21.9,23.3,-21.9,264,911,0
L,,8807756,0.049,0.196,0.130,18.5,23.7,-18.9,320,823,0
L,,8807816,0.154,0.033,0.149,-6.3,22.9,-1.0,563,795,0
L,,8807876,0.077,0.056,0.055,-30.7,18.8,8.5,563,787,0
L,,8807936,0.096,0.148,-0.014,-39.6,8.2,13.1,578,794,0
L,,8807997,0.060,0.213,-0.006,-40.6,2.3,19.8,589,804,0
L,,8808056,0.005,0.305,-0.085,-38.1,9.5,21.9,572,800,0
L,,8808116,-0.128,0.215,-0.362,-11.5,8.3,2.7,529,805,0
L,,8808176,0.483,0.139,0.709,-39.3,-34.8,-5.6,688,836,0
L,,8808236,-0.003,0.213,-0.011,7.3,-16.8,-11.9,733,870,0
L,,8808327,0.006,0.120,0.041,15.9,6.4,-4.6,752,889,0
L,,8808388,0.004,0.134,0.050,5.8,-6.3,-4.1,757,896,0
L,,8808446,0.008,0.128,0.008,9.6,1.1,-5.8,762,901,0
L,,8808506,-0.003,0.125,0.020,7.3,0.0,-5.5,759,907,0
L,,8808566,0.004,0.127,-0.002,7.0,1.3,-5.9,702,906,0
L,,8808626,-0.004,0.145,0.002,7.8,-0.7,-7.3,657,909,0
L,,8808686,0.001,0.176,0.012,12.6,2.2,-9.6,618,910,0
L,,8808747,0.045,0.219,0.055,19.3,10.4,-12.6,522,909,0
L,,8808806,0.097,0.305,-0.015,26.1,7.9,-25.0,206,911,0
L,,8808867,-0.028,0.057,0.116,3.0,27.6,-5.4,587,805,0
L,,8808926,0.037,0.025,0.086,-19.0,11.7,6.0,570,793,0
L,,8809016,0.063,0.148,-0.014,-39.8,6.5,14.2,584,798,0
L,,8809077,0.045,0.208,0.009,-41.6,-2.6,19.7,597,810,0
L,,8809138,-0.017,0.340,-0.105,-39.2,7.1,19.7,565,797,0
L,,8809196,-0.156,0.231,-0.372,-11.9,4.3,3.8,525,806,0
L,,8809256,0.006,0.158,0.305,20.2,34.1,5.8,701,844,0
L,,8809346,-0.039,0.089,0.002,8.5,-9.9,-10.8,756,893,0
L,,8809407,0.021,0.126,0.003,13.5,3.2,-6.7,760,898,0
L,,8809466,0.000,0.129,0.029,3.9,-4.5,-3.4,761,898,0
L,,8809526,0.004,0.122,0.008,6.2,3.0,-3.6,756,907,0
L,,8809585,-0.004,0.136,0.008,5.1,0.7,-3.1,736,908,0
L,,8809646,0.029,0.143,-0.007,7.3,1.4,-5.1,677,907,0
L,,8809707,0.000,0.159,0.020,11.7,-2.9,-8.5,611,910,0
L,,8809766,0.041,0.194,0.003,18.5,4.7,-10.7,563,908,0
L,,8809828,0.026,0.268,0.077,25.2,6.0,-18.3,251,913,0
L,,8809886,0.084,0.195,0.129,15.8,9.0,-17.8,324,879,0
L,,8809946,0.031,0.036,0.179,-2.1,14.8,-3.7,574,792,0
L,,8810006,0.043,0.040,0.070,-29.3,9.3,13.6,562,785,0
L,,8810066,0.045,0.143,0.006,-38.9,6.5,17.0,582,799,0
L,,8810126,0.040,0.232,0.029,-42.7,-3.2,21.7,599,812,0
L,,8810186,-0.018,0.371,-0.125,-37.7,13.3,20.9,561,801,0
L,,8810247,-0.077,0.227,-0.358,-5.2,2.1,-0.9,548,810,0
L,,8810306,0.244,0.133,0.523,-16.2,8.8,1.4,700,846,0
L,,8810367,-0.080,0.260,0.012,9.6,-22.7,-17.7,752,889,0
L,,8810426,-0.029,0.114,0.012,14.5,-4.7,-9.0,763,901,0
L,,8810516,0.002,0.125,0.017,3.4,-1.7,-3.8,762,907,0
L,,8810578,-0.008,0.124,0.024,5.0,4.0,-3.9,738,908,0
L,,8810636,0.010,0.123,0.005,5.0,-1.0,-4.2,676,911,0
L,,8810697,-0.010,0.129,-0.001,6.0,-1.4,-6.2,660,908,0
L,,8810756,-0.001,0.162,0.010,8.6,0.3,-7.7,610,910,0
L,,8810816,0.013,0.201,0.005,15.5,3.6,-10.7,608,908,0
L,,8810875,0.045,0.247,0.080,21.5,12.8,-16.2,234,914,0
L,,8810936,0.055,0.223,0.119,20.5,14.9,-18.4,254,896,0
L,,8810997,-0.088,0.055,0.081,-2.9,25.8,-9.5,590,803,0
L,,8811056,0.054,0.039,0.045,-26.9,12.7,7.0,570,787,0
L,,8811117,0.075,0.108,0.010,-39.9,5.8,10.5,578,797,0
L,,8811176,0.061,0.193,0.014,-42.6,-1.7,17.0,607,810,0
L,,8811236,0.011,0.307,-0.085,-41.7,13.0,20.9,566,785,0
L,,8811298,-0.099,0.238,-0.334,-20.5,4.7,7.0,547,805,0
L,,8811386,0.286,0.192,0.043,26.3,0.7,-9.3,729,868,0
L,,8811447,0.004,0.119,-0.009,4.2,-12.7,-9.4,751,889,0
L,,8811506,-0.006,0.123,0.036,12.8,5.1,-5.8,759,897,0
L,,8811566,0.025,0.123,0.023,5.2,-4.9,-4.7,762,901,0
L,,8811626,0.000,0.133,0.010,6.4,0.7,-4.3,764,903,0
L,,8811685,0.000,0.128,0.023,5.4,0.0,-3.8,760,907,0
L,,8811747,-0.005,0.130,0.016,5.8,2.3,-5.8,716,908,0
L,,8811806,-0.007,0.144,0.008,6.7,-0.9,-7.6,664,908,0
L,,8811867,-0.005,0.169,0.017,11.1,5.7,-9.9,585,911,0
L,,8811926,-0.003,0.226,0.053,16.7,13.2,-14.5,538,912,0
L,,8811988,0.069,0.253,-0.018,24.4,20.3,-24.2,224,909,0
L,,8812046,-0.004,0.059,0.005,10.6,41.0,-12.8,553,786,0
L,,8812106,0.108,0.020,0.101,-13.5,16.2,-1.4,546,784,0
L,,8812166,0.074,0.079,0.017,-34.4,5.9,7.5,565,791,0
L,,8812225,0.067,0.180,-0.020,-39.8,2.1,14.7,570,795,0
L,,8812287,0.037,0.208,-0.013,-35.8,6.8,17.5,587,805,0
L,,8812346,-0.004,0.269,-0.101,-32.1,17.6,15.7,564,804,0
L,,8812407,-0.068,0.188,-0.312,-2.6,7.7,0.8,567,819,0
L,,8812466,-0.071,0.187,-0.537,35.3,26.7,5.9,691,840,0
L,,8812527,-0.027,0.199,0.046,9.7,-14.1,-10.1,748,882,0
L,,8812586,-0.014,0.121,0.042,9.0,1.2,-3.3,760,891,0
L,,8812646,0.017,0.121,0.023,5.0,0.5,-1.9,759,895,0
L,,8812708,0.001,0.124,0.035,7.3,2.0,-2.0,764,898,0
L,,8812766,0.027,0.119,0.024,6.9,-0.5,-2.1,764,899,0
L,,8812827,-0.005,0.128,0.022,6.8,-2.2,-3.6,768,904,0
L,,8812886,0.004,0.125,0.019,6.6,-0.7,-4.7,763,907,0
L,,8812947,-0.012,0.127,0.004,6.0,0.7,-5.4,749,910,0
L,,8813006,-0.010,0.134,0.007,6.4,2.3,-5.4,670,911,0
L,,8813066,-0.013,0.170,0.009,9.2,2.3,-6.2,607,912,0
L,,8813126,-0.003,0.188,0.025,13.6,9.3,-10.0,551,909,0
L,,8813186,-0.003,0.215,0.057,18.4,22.8,-19.1,233,910,0
L,,8813247,0.004,0.156,0.049,15.8,20.7,-16.3,262,882,0
L,,8813306,-0.041,0.018,0.024,0.5,29.2,-11.0,562,787,0
L,,8813367,0.072,0.028,0.001,-17.6,7.3,0.5,569,792,0
L,,8813428,0.072,0.097,-0.003,-32.1,0.7,7.1,579,796,0
L,,8813487,0.049,0.176,-0.030,-34.7,2.0,13.6,581,801,0
L,,8813546,0.047,0.186,-0.030,-27.9,13.3,13.8,593,812,0
L,,8813606,0.057,0.190,-0.054,-29.2,11.8,12.7,579,807,0
L,,8813697,-0.063,0.169,-0.131,-6.8,3.1,4.0,580,817,0
L,,8813756,0.107,0.071,0.257,-1.4,-9.3,-2.1,657,829,0
L,,8813817,0.082,0.123,0.027,1.1,-9.6,-5.3,709,852,0
L,,8813876,0.014,0.131,0.036,7.2,-5.6,-9.4,735,870,0
L,,8813936,0.000,0.118,0.029,10.2,0.1,-5.2,752,888,0
L,,8813996,0.028,0.117,0.029,4.4,-1.8,-4.3,760,896,0
L,,8814056,-0.007,0.123,0.036,5.5,-0.5,-3.0,763,900,0
L,,8814118,0.021,0.124,0.016,5.2,-0.6,-1.9,768,903,0
L,,8814176,-0.001,0.125,0.023,5.0,-1.1,-2.3,769,908,0
L,,8814237,0.006,0.129,0.008,4.8,-1.0,-2.6,768,908,0
L,,8814296,0.001,0.123,0.003,3.3,-1.7,-3.2,768,912,0
L,,8814356,-0.004,0.128,0.003,3.9,-0.3,-3.8,764,909,0
L,,8814416,-0.009,0.131,0.002,4.6,0.4,-3.8,757,908,0
L,,8814476,-0.005,0.140,-0.001,7.2,1.7,-4.2,717,907,0
L,,8814537,0.004,0.163,0.001,8.6,4.4,-5.1,642,911,0
L,,8814596,0.011,0.161,0.001,12.1,6.5,-6.2,570,911,0
L,,8814657,-0.001,0.155,0.013,13.0,6.0,-9.6,441,911,0
L,,8814716,-0.059,0.136,-0.032,12.1,9.4,-11.0,436,893,0
L,,8814777,-0.012,0.043,0.091,5.0,19.6,-6.8,533,789,0
L,,8814838,0.060,0.041,0.022,-8.6,19.9,1.6,549,789,0
L,,8814896,0.051,0.096,-0.014,-16.6,11.2,6.6,583,801,0
L,,8814957,0.044,0.142,-0.038,-23.0,2.1,7.8,606,812,0
L,,8815016,0.026,0.150,-0.042,-21.3,-2.7,7.3,620,822,0
L,,8815077,0.028,0.167,-0.040,-20.6,-4.2,9.1,610,815,0
L,,8815136,-0.011,0.164,-0.031,-15.3,-5.2,8.5,565,799,0
L,,8815197,-0.004,0.137,-0.041,-12.4,-1.5,6.4,559,803,0
L,,8815256,0.002,0.131,-0.049,-4.9,-2.6,3.1,568,809,0
L,,8815346,0.032,0.135,0.086,-1.3,-5.2,-2.3,615,810,0
L,,8815436,0.054,0.136,-0.001,4.3,-4.3,-4.2,709,852,0
L,,8815497,0.030,0.118,0.017,-2.9,-5.6,-5.1,741,877,0
L,,8815558,0.003,0.129,0.030,1.4,1.7,-2.4,749,885,0
L,,8815617,0.029,0.121,0.029,-0.3,2.4,-1.2,750,885,0
L,,8815676,0.013,0.124,0.041,0.2,0.3,-0.8,756,888,0
L,,8815737,0.027,0.121,0.032,2.2,0.8,-0.3,756,891,0
L,,8815826,0.019,0.123,0.024,3.7,0.4,-0.8,759,893,0
L,,8815916,0.019,0.120,0.025,1.6,0.5,-0.9,760,893,0
L,,8815976,0.015,0.121,0.023,0.8,-0.4,-0.6,760,895,0
L,,8816037,0.018,0.123,0.015,0.5,-2.6,-0.5,761,899,0
L,,8816096,0.013,0.125,0.017,2.0,0.1,-0.1,764,901,0
