side,stage,device_ms,ax,ay,az,gx,gy,gz,toe,heel,phase,L_toe,L_heel,R_toe,R_heel
R,,3204999.0,0.059,0.202,-0.028,-10.3,-10.7,-14.9,362,911,0,,,,
R,,3205009.0,0.076,0.204,-0.018,-10.3,-10.6,-17.0,237,914,0,,,,
R,,3205019.0,0.082,0.203,-0.01,-10.2,-8.8,-18.7,202,912,0,,,,
R,,3205029.0,0.089,0.2,-0.009,-9.7,-5.3,-20.7,192,912,0,,,,
R,,3205039.0,0.088,0.201,-0.014,-8.6,-0.1,-22.8,175,911,0,,,,
R,,3205049.0,0.076,0.206,-0.032,-6.5,4.6,-24.3,151,910,0,,,,
R,,3205059.0,0.025,0.208,-0.034,-4.5,5.8,-24.9,160,906,0,,,,
R,,3205069.0,-0.029,0.225,-0.056,-5.8,5.2,-23.6,178,902,0,,,,
R,,3205079.0,-0.046,0.245,-0.079,-8.7,10.8,-24.5,175,897,0,,,,
R,,3205089.0,0.013,0.253,-0.12,-8.4,13.0,-28.2,204,891,0,,,,
R,,3205099.0,0.098,0.242,-0.138,-0.6,8.1,-36.4,195,871,0,,,,
R,,3205109.0,0.119,0.19,-0.115,3.8,2.7,-43.7,219,836,0,,,,
R,,3205119.0,0.087,0.075,-0.072,3.9,1.3,-45.0,396,739,0,,,,
R,,3205129.0,0.063,0.003,-0.063,7.1,3.2,-36.8,550,710,0,,,,
R,,3205139.0,0.042,-0.066,-0.037,8.6,0.7,-25.6,593,717,0,,,,
R,,3205149.0,-0.028,-0.078,-0.049,8.2,4.2,-10.3,602,726,0,,,,
R,,3205159.0,-0.094,-0.054,-0.047,-2.1,4.3,2.5,603,728,0,,,,
R,,3205169.0,0.01,0.015,-0.121,-6.8,6.0,12.7,577,724,0,,,,
R,,3205179.0,0.151,0.078,-0.119,-4.4,-1.1,11.4,556,716,0,,,,
R,,3205189.0,0.17,0.074,-0.1,-8.0,-8.0,6.7,545,710,0,,,,
R,,3205199.0,0.11,0.025,-0.015,-7.9,-9.6,3.7,532,705,0,,,,
R,,3205209.0,0.062,-0.019,0.026,-7.3,-2.4,7.0,544,706,0,,,,
R,,3205219.0,0.034,-0.034,0.044,-2.2,5.9,13.9,540,705,0,,,,
R,,3205229.0,0.04,-0.02,0.026,2.6,16.4,23.6,537,703,0,,,,
R,,3205239.0,0.054,0.006,-0.025,3.0,23.8,28.0,540,701,0,,,,
R,,3205249.0,0.061,0.031,-0.074,0.7,22.1,30.1,524,699,0,,,,
R,,3205259.0,0.047,0.056,-0.107,-4.0,16.1,31.1,522,701,0,,,,
R,,3205269.0,0.04,0.069,-0.107,-3.7,9.0,31.0,525,702,0,,,,
R,,3205279.0,0.025,0.078,-0.08,-2.3,3.8,32.5,535,709,0,,,,
R,,3205289.0,0.017,0.096,-0.036,0.2,3.2,35.2,538,712,0,,,,
R,,3205299.0,0.018,0.114,-0.012,2.2,7.4,38.5,547,716,0,,,,
R,,3205309.0,0.028,0.131,-0.011,2.6,13.3,38.9,551,714,0,,,,
R,,3205319.0,0.032,0.145,-0.032,2.0,18.8,37.2,556,715,0,,,,
R,,3205329.0,0.02,0.151,-0.063,1.5,22.8,37.1,566,720,0,,,,
R,,3205339.0,0.011,0.158,-0.096,1.8,21.7,39.2,567,721,0,,,,
R,,3205349.0,0.015,0.17,-0.107,1.6,18.4,41.1,571,723,0,,,,
R,,3205359.0,0.02,0.187,-0.11,-0.3,15.6,41.2,574,728,0,,,,
R,,3205369.0,0.011,0.2,-0.106,-1.1,13.8,41.4,575,727,0,,,,
R,,3205379.0,0.004,0.204,-0.1,1.0,14.3,40.5,580,731,0,,,,
R,,3205389.0,-0.007,0.205,-0.104,4.5,14.9,39.7,580,731,0,,,,
R,,3205399.0,-0.021,0.205,-0.107,7.1,14.6,39.6,579,733,0,,,,
R,,3205409.0,-0.025,0.212,-0.109,7.9,11.1,40.9,569,729,0,,,,
R,,3205419.0,-0.041,0.235,-0.093,7.6,8.7,42.4,552,726,0,,,,
R,,3205429.0,-0.059,0.261,-0.069,5.7,4.0,43.0,532,720,0,,,,
R,,3205439.0,-0.072,0.285,-0.04,3.8,1.8,41.2,518,720,0,,,,
R,,3205449.0,-0.084,0.3,-0.012,2.6,1.9,36.6,510,723,0,,,,
R,,3205459.0,-0.089,0.303,0.009,1.6,4.2,28.6,528,726,0,,,,
R,,3205469.0,-0.106,0.292,0.016,0.3,7.9,21.9,541,729,0,,,,
R,,3205479.0,-0.151,0.258,0.006,-0.6,13.1,16.5,550,733,0,,,,
R,,3205489.0,-0.188,0.205,-0.03,-0.1,18.4,12.3,545,733,0,,,,
R,,3205499.0,-0.19,0.19,-0.074,3.5,17.4,9.4,546,742,0,,,,
R,,3205509.0,-0.203,0.207,-0.103,8.2,10.5,7.8,546,744,0,,,,
R,,3205519.0,-0.209,0.236,-0.088,10.4,-3.0,4.8,546,747,0,,,,
R,,3205529.0,-0.202,0.264,-0.047,5.1,-9.6,-0.8,565,751,0,,,,
R,,3205539.0,-0.176,0.273,0.0,-0.3,-10.1,-9.6,576,758,0,,,,
R,,3205549.0,-0.146,0.246,0.04,-2.5,-3.4,-22.3,606,765,0,,,,
R,,3205559.0,0.198,0.227,0.009,-2.1,9.1,-29.2,686,795,0,,,,
R,,3205569.0,0.58,0.161,-0.061,10.1,0.3,-37.8,703,806,0,,,,
R,,3205579.0,0.056,0.065,-0.012,18.5,-10.1,-44.1,709,811,0,,,,
R,,3205589.0,-0.187,-0.104,0.114,2.9,5.8,-17.6,715,813,0,,,,
R,,3205599.0,0.009,-0.027,0.008,1.0,16.0,22.5,723,823,0,,,,
R,,3205609.0,0.126,0.211,-0.049,29.1,11.7,13.6,725,826,0,,,,
R,,3205619.0,0.115,0.354,-0.019,26.4,11.3,-1.7,733,831,0,,,,
R,,3205629.0,0.003,0.275,-0.044,16.7,7.5,-25.6,738,835,0,,,,
R,,3205639.0,-0.021,0.188,-0.06,20.4,5.0,-37.4,743,840,0,,,,
R,,3205649.0,0.012,0.134,-0.03,9.6,1.0,-36.1,749,847,0,,,,
R,,3205659.0,0.001,0.046,-0.048,-2.3,-1.6,-23.5,750,850,0,,,,
R,,3205669.0,-0.027,0.009,-0.051,0.7,5.7,-13.9,754,853,0,,,,
R,,3205679.0,0.026,0.074,-0.117,8.0,12.3,-4.9,761,861,0,,,,
R,,3205689.0,0.002,0.135,-0.134,15.5,1.6,0.6,765,866,0,,,,
R,,3205699.0,-0.022,0.179,-0.111,5.7,-7.5,-0.3,772,873,0,,,,
R,,3205709.0,-0.008,0.193,-0.076,-6.2,-15.3,-9.3,776,876,0,,,,
R,,3205719.0,0.009,0.162,-0.038,-14.4,-13.7,-15.6,776,881,0,,,,
R,,3205729.0,0.03,0.115,-0.026,-14.1,-10.6,-18.1,782,880,0,,,,
R,,3205739.0,0.038,0.076,-0.019,-8.7,-7.7,-15.1,782,883,0,,,,
R,,3205749.0,0.04,0.064,-0.019,-4.4,-4.8,-7.9,784,885,0,,,,
R,,3205759.0,0.035,0.084,-0.024,-0.9,-3.6,-2.8,785,886,0,,,,
R,,3205769.0,0.036,0.128,-0.027,0.3,-2.8,-1.8,785,890,0,,,,
R,,3205779.0,0.032,0.152,-0.029,0.0,-2.1,-5.3,790,890,0,,,,
R,,3205789.0,0.023,0.15,-0.027,-0.4,-2.0,-9.8,790,891,0,,,,
R,,3205799.0,0.019,0.121,-0.032,-0.7,0.1,-12.8,793,891,0,,,,
R,,3205809.0,0.014,0.1,-0.043,-0.7,1.5,-11.7,791,896,0,,,,
R,,3205819.0,0.008,0.089,-0.057,-1.7,0.9,-8.4,791,895,0,,,,
R,,3205829.0,0.01,0.092,-0.072,-2.3,-0.2,-4.9,793,895,0,,,,
R,,3205839.0,0.013,0.106,-0.073,-2.6,-3.2,-3.0,793,895,0,,,,
R,,3205849.0,0.006,0.123,-0.063,-3.4,-5.6,-3.5,795,897,0,,,,
R,,3205859.0,0.016,0.127,-0.048,-4.0,-8.5,-5.0,794,896,0,,,,
R,,3205869.0,0.022,0.125,-0.022,-3.3,-9.0,-6.2,796,899,0,,,,
R,,3205879.0,0.017,0.116,-0.003,-2.3,-6.2,-6.6,796,900,0,,,,
R,,3205889.0,0.019,0.113,-0.005,-0.2,-2.7,-6.0,795,899,0,,,,
R,,3205899.0,0.018,0.114,-0.012,0.7,0.1,-5.2,796,900,0,,,,
R,,3205909.0,0.005,0.116,-0.033,0.4,2.2,-4.7,795,901,0,,,,
R,,3205919.0,0.003,0.118,-0.051,0.2,1.4,-4.5,795,901,0,,,,
R,,3205929.0,0.009,0.12,-0.057,0.0,-0.2,-5.2,797,900,0,,,,
R,,3205939.0,0.012,0.117,-0.058,-0.5,-1.7,-6.1,796,902,0,,,,
R,,3205949.0,0.019,0.112,-0.05,-0.7,-2.5,-6.9,798,904,0,,,,
R,,3205959.0,0.016,0.109,-0.039,-0.6,-1.6,-6.9,797,903,0,,,,
R,,3205969.0,0.01,0.107,-0.034,-0.2,-0.2,-5.8,796,902,0,,,,
R,,3205979.0,0.0,0.109,-0.033,0.4,0.9,-4.6,796,904,0,,,,
R,,3205989.0,-0.004,0.119,-0.037,0.9,0.7,-3.6,799,905,0,,,,
R,,3205999.0,-0.001,0.131,-0.041,0.4,0.1,-3.8,795,905,0,,,,
R,,3206009.0,-0.002,0.134,-0.043,-0.2,-0.9,-5.2,795,906,0,,,,
R,,3206019.0,-0.007,0.13,-0.042,-0.6,-1.9,-6.0,794,905,0,,,,
R,,3206029.0,-0.008,0.124,-0.039,-0.7,-3.0,-5.9,792,906,0,,,,
R,,3206039.0,-0.006,0.123,-0.037,-0.5,-3.8,-5.4,793,907,0,,,,
R,,3206049.0,-0.003,0.123,-0.039,-0.7,-3.4,-4.9,789,906,0,,,,
R,,3206059.0,-0.001,0.124,-0.045,-1.0,-2.9,-4.4,785,908,0,,,,
R,,3206069.0,0.0,0.124,-0.053,-1.7,-3.0,-4.4,776,905,0,,,,
R,,3206079.0,0.004,0.124,-0.06,-2.1,-4.3,-5.0,766,906,0,,,,
R,,3206089.0,0.005,0.123,-0.06,-1.7,-6.5,-5.6,748,907,0,,,,
R,,3206099.0,0.007,0.126,-0.049,-1.2,-8.6,-5.5,725,906,0,,,,
R,,3206109.0,0.01,0.133,-0.032,-0.8,-9.5,-5.6,697,907,0,,,,
R,,3206119.0,0.011,0.14,-0.019,-0.7,-8.4,-6.0,672,907,0,,,,
R,,3206129.0,0.015,0.152,-0.012,-1.0,-6.4,-6.8,655,907,0,,,,
R,,3206139.0,0.006,0.156,-0.017,-1.6,-2.9,-8.8,650,907,0,,,,
R,,3206149.0,0.0,0.152,-0.029,-2.3,-1.6,-9.9,643,908,0,,,,
R,,3206159.0,-0.003,0.148,-0.042,-3.2,-2.0,-10.6,631,907,0,,,,
R,,3206169.0,-0.006,0.149,-0.056,-4.1,-3.6,-11.0,614,910,0,,,,
R,,3206179.0,-0.001,0.15,-0.062,-4.7,-5.3,-11.1,594,909,0,,,,
R,,3206189.0,-0.001,0.155,-0.063,-4.9,-7.6,-10.5,572,911,0,,,,
R,,3206199.0,0.004,0.173,-0.057,-5.5,-9.8,-9.5,560,910,0,,,,
R,,3206209.0,0.012,0.182,-0.047,-6.9,-11.6,-10.7,544,910,0,,,,
R,,3206219.0,0.02,0.185,-0.034,-7.6,-12.6,-12.3,506,908,0,,,,
R,,3206229.0,0.03,0.192,-0.029,-7.6,-12.5,-13.4,455,909,0,,,,
R,,3206239.0,0.043,0.197,-0.028,-8.1,-11.8,-14.2,407,912,0,,,,
R,,3206249.0,0.055,0.198,-0.027,-9.0,-11.9,-15.0,336,910,0,,,,
R,,3206259.0,0.075,0.202,-0.026,-9.6,-12.3,-15.6,289,912,0,,,,
R,,3206269.0,0.094,0.209,-0.027,-8.9,-10.9,-17.4,283,913,0,,,,
R,,3206279.0,0.101,0.216,-0.025,-7.5,-8.6,-20.2,254,912,0,,,,
R,,3206289.0,0.08,0.216,-0.022,-6.1,-4.8,-23.7,216,910,0,,,,
R,,3206299.0,0.064,0.211,-0.029,-3.9,-0.1,-26.3,207,908,0,,,,
R,,3206309.0,0.015,0.212,-0.035,-1.6,2.5,-27.5,202,904,0,,,,
R,,3206319.0,-0.021,0.228,-0.063,-2.8,5.1,-26.8,224,902,0,,,,
R,,3206329.0,-0.033,0.238,-0.089,-4.9,10.5,-27.0,218,896,0,,,,
R,,3206339.0,0.042,0.244,-0.136,-2.1,5.8,-28.7,216,879,0,,,,
R,,3206381.0,0.07,-0.03,-0.03,-1.6,-2.1,-31.0,597,727,0,,,,
R,,3206441.0,0.116,0.046,-0.014,-7.9,-16.9,8.1,519,709,0,,,,
R,,3206501.0,0.063,0.044,-0.087,0.2,14.6,34.8,524,703,0,,,,
R,,3206561.0,0.038,0.137,-0.016,3.2,19.0,41.0,565,717,0,,,,
R,,3206622.0,-0.002,0.218,-0.111,0.0,12.0,39.7,582,731,0,,,,
R,,3206683.0,-0.037,0.288,-0.046,6.0,4.3,38.0,565,738,0,,,,
R,,3206742.0,-0.189,0.188,-0.096,4.0,14.2,13.0,567,750,0,,,,
R,,3206801.0,0.148,0.206,0.061,8.7,1.0,-36.7,707,808,0,,,,
R,,3206862.0,0.049,0.245,-0.04,2.1,-1.6,-17.2,743,841,0,,,,
R,,3206921.0,-0.004,0.094,-0.176,11.8,11.4,-5.8,769,873,0,,,,
R,,3206981.0,0.05,0.062,0.003,-10.1,-9.8,-11.1,790,891,0,,,,
R,,3207041.0,0.011,0.101,-0.09,-1.8,3.6,-12.6,792,897,0,,,,
R,,3207101.0,0.02,0.131,-0.012,-3.8,-6.1,-4.9,795,902,0,,,,
R,,3207162.0,0.008,0.111,-0.053,-0.9,-1.8,-5.1,799,901,0,,,,
R,,3207221.0,0.004,0.112,-0.048,-0.8,0.6,-5.3,799,901,0,,,,
R,,3207282.0,-0.003,0.118,-0.035,0.0,-0.2,-6.8,796,904,0,,,,
R,,3207341.0,-0.002,0.126,-0.055,-2.4,-6.6,-5.6,778,907,0,,,,
R,,3207403.0,0.008,0.159,-0.032,-3.5,-7.3,-5.9,657,908,0,,,,
R,,3207461.0,0.0,0.171,-0.055,-5.7,-7.7,-9.9,598,908,0,,,,
R,,3207521.0,0.086,0.211,-0.025,-9.5,-11.7,-17.1,308,911,0,,,,
R,,3207582.0,-0.03,0.233,-0.065,-4.3,2.0,-25.5,232,904,0,,,,
R,,3207641.0,0.062,-0.044,-0.007,2.2,0.2,-33.3,589,726,0,,,,
R,,3207702.0,0.158,0.032,-0.111,-5.9,-18.5,13.3,533,713,0,,,,
R,,3207791.0,0.024,0.074,-0.095,-3.0,-4.4,39.3,540,712,0,,,,
R,,3207881.0,0.008,0.221,-0.1,0.4,14.7,41.8,575,729,0,,,,
R,,3207942.0,-0.045,0.28,-0.055,9.8,6.9,41.0,547,728,0,,,,
R,,3208001.0,-0.241,0.195,-0.114,-2.1,23.2,10.1,553,741,0,,,,
R,,3208091.0,-0.074,-0.049,0.062,0.3,15.8,6.8,723,822,0,,,,
R,,3208153.0,0.004,0.078,-0.045,-2.0,-5.8,-23.4,750,848,0,,,,
R,,3208211.0,0.012,0.131,-0.063,-16.6,-13.1,-14.0,779,878,0,,,,
R,,3208271.0,0.038,0.157,0.002,-1.7,-4.1,-5.3,789,889,0,,,,
R,,3208332.0,0.019,0.109,-0.09,-4.8,-6.2,-4.1,789,894,0,,,,
R,,3208391.0,0.032,0.121,-0.006,0.5,3.5,-7.8,789,898,0,,,,
R,,3208452.0,-0.004,0.107,-0.042,-1.7,0.0,-6.6,788,904,0,,,,
R,,3208511.0,0.003,0.125,-0.022,-1.2,0.8,-8.8,776,906,0,,,,
R,,3208572.0,-0.003,0.129,-0.048,-1.4,-5.0,-5.4,703,906,0,,,,
R,,3208631.0,0.001,0.142,-0.031,-3.5,-4.0,-7.3,651,910,0,,,,
R,,3208692.0,0.002,0.159,-0.043,-5.6,-3.8,-10.2,618,907,0,,,,
R,,3208751.0,0.045,0.2,-0.024,-9.6,-9.3,-12.9,515,905,0,,,,
R,,3208811.0,0.065,0.195,-0.034,-4.1,2.3,-25.8,186,905,0,,,,
R,,3208873.0,0.116,0.128,-0.054,-2.4,-3.3,-46.6,395,808,0,,,,
R,,3208931.0,0.013,-0.025,-0.166,-8.7,12.3,4.8,581,719,0,,,,
R,,3208992.0,0.029,0.012,0.04,2.1,23.1,21.8,511,683,0,,,,
R,,3209051.0,0.014,0.118,-0.022,0.7,-5.8,39.1,541,703,0,,,,
R,,3209112.0,0.012,0.168,-0.121,-2.0,23.5,38.2,578,726,0,,,,
R,,3209171.0,0.001,0.203,-0.102,10.9,14.1,35.5,586,735,0,,,,
R,,3209232.0,-0.094,0.262,-0.026,0.4,14.7,20.0,563,742,0,,,,
R,,3209291.0,-0.197,0.257,-0.074,6.7,-13.2,4.0,561,747,0,,,,
R,,3209351.0,-0.051,0.072,0.152,10.8,-2.8,-30.6,715,814,0,,,,
R,,3209412.0,-0.029,0.136,-0.14,29.6,12.1,-35.0,745,843,0,,,,
R,,3209471.0,0.007,0.155,-0.091,-4.6,-11.5,-6.6,776,876,0,,,,
R,,3209532.0,0.038,0.133,0.004,-1.1,-5.2,-3.3,793,893,0,,,,
R,,3209593.0,0.007,0.107,-0.079,-0.3,0.2,-4.2,795,899,0,,,,
R,,3209652.0,0.034,0.12,0.003,-0.1,-2.3,-7.3,796,902,0,,,,
R,,3209711.0,-0.006,0.118,-0.058,-0.6,-2.1,-8.4,796,910,0,,,,
R,,3209772.0,0.002,0.123,-0.029,-0.5,-0.1,-6.9,764,907,0,,,,
R,,3209832.0,-0.012,0.119,-0.039,-0.3,-3.8,-6.2,690,908,0,,,,
R,,3209891.0,-0.002,0.139,-0.032,-2.3,-2.6,-7.9,659,909,0,,,,
R,,3209952.0,-0.006,0.153,-0.025,-3.8,-3.9,-9.9,634,907,0,,,,
R,,3210011.0,0.038,0.21,-0.03,-9.4,-13.0,-11.4,514,906,0,,,,
R,,3210072.0,0.076,0.191,-0.034,-7.5,0.6,-23.4,185,909,0,,,,
R,,3210131.0,0.141,0.186,-0.077,-2.5,-2.4,-42.3,286,842,0,,,,
R,,3210221.0,0.132,0.045,-0.067,-7.0,-13.4,17.6,545,711,0,,,,
R,,3210283.0,0.05,0.013,-0.162,-8.1,32.0,28.0,501,677,0,,,,
R,,3210341.0,0.028,0.169,0.012,0.0,27.4,35.7,564,716,0,,,,
R,,3210402.0,0.002,0.181,-0.214,-3.5,10.8,40.4,603,732,0,,,,
R,,3210461.0,-0.107,0.24,-0.099,14.9,2.4,45.8,596,736,0,,,,
R,,3210522.0,-0.161,0.176,-0.041,8.3,24.2,11.4,581,722,0,,,,
R,,3210582.0,-0.009,0.292,0.093,-1.1,-2.0,-18.2,656,768,0,,,,
R,,3210641.0,0.096,0.197,-0.075,20.1,29.6,-6.7,722,823,0,,,,
R,,3210702.0,0.044,0.066,-0.059,2.1,9.1,-18.2,754,854,0,,,,
R,,3210761.0,0.012,0.111,-0.029,-10.2,-12.7,-11.1,782,887,0,,,,
R,,3210822.0,0.021,0.128,-0.021,4.1,5.6,-9.3,797,899,0,,,,
R,,3210881.0,0.021,0.117,-0.037,-3.9,-9.5,-3.6,797,904,0,,,,
R,,3210942.0,0.012,0.124,-0.044,-1.0,1.4,-6.3,790,906,0,,,,
R,,3211003.0,0.003,0.116,-0.036,-0.9,-1.1,-5.8,759,906,0,,,,
R,,3211062.0,-0.005,0.122,-0.029,-0.3,0.0,-6.0,698,907,0,,,,
R,,3211122.0,-0.002,0.127,-0.023,-2.1,-4.8,-3.6,675,908,0,,,,
R,,3211181.0,0.002,0.137,-0.026,-3.3,-3.7,-7.2,633,908,0,,,,
R,,3211241.0,0.005,0.175,-0.044,-7.0,-7.5,-9.5,579,909,0,,,,
R,,3211301.0,0.078,0.208,0.006,-10.6,-8.8,-15.2,253,913,0,,,,
R,,3211362.0,0.002,0.208,-0.046,-7.9,4.0,-23.0,188,907,0,,,,
R,,3211421.0,0.103,0.071,-0.081,5.7,7.4,-41.0,401,776,0,,,,
R,,3211482.0,0.051,-0.038,-0.107,-11.1,10.8,0.5,576,711,0,,,,
R,,3211541.0,0.0,0.037,-0.027,-1.4,33.3,15.9,504,684,0,,,,
R,,3211601.0,0.022,0.104,-0.024,-1.7,-1.3,40.9,538,696,0,,,,
R,,3211662.0,0.014,0.141,-0.17,-6.4,27.9,37.8,575,713,0,,,,
R,,3211723.0,-0.015,0.192,-0.126,14.7,11.5,37.2,577,719,0,,,,
R,,3211782.0,-0.094,0.304,0.027,-2.8,5.3,20.7,550,718,0,,,,
R,,3211841.0,-0.181,0.293,-0.088,9.2,-21.8,0.8,559,741,0,,,,
R,,3211902.0,-0.013,-0.025,0.04,4.2,23.2,3.1,717,817,0,,,,
R,,3211961.0,0.026,0.096,-0.023,-7.2,-4.3,-24.8,750,850,0,,,,
R,,3212022.0,0.017,0.133,-0.08,-15.4,-15.6,-9.4,777,879,0,,,,
R,,3212082.0,0.028,0.144,0.002,1.5,2.6,-4.9,790,891,0,,,,
R,,3212141.0,0.032,0.108,-0.07,-4.4,-7.9,-4.1,789,893,0,,,,
R,,3212202.0,0.016,0.123,-0.031,-1.8,-2.3,-6.4,787,899,0,,,,
R,,3212261.0,0.012,0.115,-0.05,-2.9,-1.6,-6.7,740,903,0,,,,
R,,3212322.0,-0.002,0.115,-0.028,-0.5,-0.5,-6.0,627,904,0,,,,
R,,3212383.0,0.009,0.141,-0.001,-2.6,-7.1,-6.9,624,909,0,,,,
R,,3212442.0,0.008,0.154,-0.054,-4.3,-1.7,-11.3,544,912,0,,,,
R,,3212501.0,0.031,0.196,-0.031,-9.4,-10.3,-13.0,377,910,0,,,,
R,,3212562.0,0.103,0.216,-0.01,-9.0,-4.6,-25.7,191,912,0,,,,
R,,3212622.0,0.11,0.25,-0.15,2.1,9.1,-36.8,212,869,0,,,,
R,,3212681.0,-0.083,-0.068,-0.067,-11.4,15.1,7.8,577,723,0,,,,
R,,3212742.0,0.016,-0.04,0.025,-1.9,12.0,11.8,497,689,0,,,,
R,,3212801.0,0.016,0.045,-0.053,-4.8,-0.4,30.9,532,707,0,,,,
R,,3212862.0,-0.007,0.163,-0.11,3.9,19.5,38.4,565,722,0,,,,
R,,3212921.0,-0.013,0.196,-0.107,8.5,14.4,36.4,586,734,0,,,,
R,,3212982.0,-0.041,0.248,-0.027,2.4,-7.3,37.2,534,716,0,,,,
R,,3213041.0,-0.148,0.185,-0.075,5.7,13.4,14.9,543,724,0,,,,
R,,3213103.0,0.099,0.247,0.076,-2.1,7.9,-23.8,666,780,0,,,,
R,,3213162.0,0.126,0.276,-0.036,29.3,8.7,-0.8,723,826,0,,,,
R,,3213221.0,0.006,0.039,-0.117,8.4,17.5,-14.7,759,859,0,,,,
R,,3213282.0,0.018,0.08,-0.031,-11.2,-8.7,-11.7,783,885,0,,,,
R,,3213341.0,0.028,0.128,-0.007,3.6,1.7,-11.9,793,896,0,,,,
R,,3213402.0,0.028,0.12,-0.051,-5.7,-14.7,-4.6,797,902,0,,,,
R,,3213461.0,0.011,0.114,-0.061,-1.3,3.4,-7.9,798,903,0,,,,
R,,3213522.0,0.005,0.118,-0.03,-0.8,-2.1,-4.8,793,906,0,,,,
R,,3213582.0,0.0,0.12,-0.043,-0.7,-2.7,-5.4,794,909,0,,,,
R,,3213642.0,0.001,0.131,-0.051,-0.8,-7.0,-4.2,741,907,0,,,,
R,,3213702.0,0.005,0.144,-0.029,-2.0,-5.2,-8.1,640,906,0,,,,
R,,3213763.0,-0.006,0.161,-0.062,-6.0,-8.9,-10.9,577,911,0,,,,
R,,3213821.0,0.073,0.202,-0.028,-9.8,-11.8,-14.9,299,911,0,,,,
R,,3213881.0,0.002,0.213,-0.067,-1.7,0.6,-25.3,211,905,0,,,,
R,,3213942.0,0.058,0.038,-0.055,0.7,-5.3,-33.8,513,696,0,,,,
R,,3214001.0,0.148,0.086,-0.076,-4.9,-8.1,10.8,519,691,0,,,,
R,,3214062.0,0.055,0.0,-0.062,2.7,15.5,30.3,507,685,0,,,,
R,,3214152.0,0.017,0.156,-0.029,2.7,20.9,37.3,562,721,0,,,,
R,,3214211.0,0.0,0.184,-0.084,0.6,6.8,38.3,582,731,0,,,,
R,,3214272.0,-0.047,0.27,-0.032,4.5,-6.8,41.7,554,725,0,,,,
R,,3214332.0,-0.197,0.222,-0.036,2.5,6.9,13.6,551,736,0,,,,
R,,3214392.0,0.27,0.122,-0.047,22.4,5.5,-49.0,710,811,0,,,,
R,,3214452.0,-0.003,0.239,0.002,8.0,-2.4,-29.3,744,845,0,,,,
R,,3214513.0,-0.025,0.149,-0.12,6.7,-1.3,0.6,773,872,0,,,,
R,,3214572.0,0.031,0.076,-0.042,-8.6,-11.0,-0.8,788,888,0,,,,
R,,3214631.0,0.017,0.093,-0.068,-2.6,5.9,-8.7,792,894,0,,,,
R,,3214692.0,0.025,0.117,-0.014,-6.2,-8.9,-5.3,795,897,0,,,,
R,,3214751.0,0.006,0.117,-0.059,-2.1,-1.8,-6.2,798,903,0,,,,
R,,3214812.0,0.008,0.118,-0.046,-2.5,-3.4,-4.7,799,903,0,,,,
R,,3214872.0,0.0,0.12,-0.04,-0.7,-2.4,-5.6,796,910,0,,,,
R,,3214932.0,-0.003,0.125,-0.049,-2.0,-6.2,-6.6,737,907,0,,,,
R,,3214992.0,0.0,0.159,-0.024,-3.5,-5.2,-9.2,649,904,0,,,,
R,,3215051.0,0.011,0.182,-0.053,-8.8,-12.5,-10.8,571,909,0,,,,
R,,3215112.0,0.087,0.203,-0.025,-9.2,-7.7,-19.8,242,913,0,,,,
R,,3215171.0,-0.029,0.239,-0.083,-11.0,4.8,-27.3,190,894,0,,,,
R,,3215233.0,-0.026,-0.08,-0.052,8.2,3.1,-13.3,594,716,0,,,,
R,,3215291.0,0.084,0.004,0.028,-10.3,-4.5,5.3,528,699,0,,,,
R,,3215352.0,0.039,0.076,-0.11,-2.9,6.3,34.5,525,698,0,,,,
R,,3215412.0,0.027,0.159,-0.024,3.6,22.6,40.2,573,728,0,,,,
R,,3215472.0,0.002,0.187,-0.108,-1.4,11.2,38.6,596,741,0,,,,
R,,3215532.0,-0.051,0.278,-0.051,3.1,3.5,41.1,549,728,0,,,,
R,,3215591.0,-0.174,0.21,-0.076,4.5,10.0,16.8,555,740,0,,,,
R,,3215652.0,0.247,0.239,0.019,6.5,2.8,-37.5,705,805,0,,,,
R,,3215711.0,0.016,0.301,-0.038,7.4,-2.1,-15.6,740,839,0,,,,
R,,3215772.0,0.034,0.084,-0.107,12.0,13.1,-3.2,756,854,0,,,,
R,,3215832.0,0.029,0.06,-0.031,-10.4,-10.3,-8.1,778,881,0,,,,
R,,3215893.0,0.029,0.111,-0.007,1.8,7.5,-14.5,791,893,0,,,,
R,,3215952.0,0.003,0.125,-0.049,-6.2,-8.0,-5.3,800,905,0,,,,
R,,3216011.0,0.01,0.111,-0.035,-1.4,3.9,-9.1,794,906,0,,,,
R,,3216072.0,0.0,0.114,-0.04,-2.5,-2.0,-6.3,783,906,0,,,,
R,,3216131.0,-0.011,0.119,-0.037,-1.6,-3.3,-4.0,750,907,0,,,,
R,,3216192.0,0.008,0.127,-0.027,-1.8,-6.0,-4.9,695,907,0,,,,
R,,3216251.0,0.001,0.146,-0.046,-3.9,-0.9,-9.5,636,908,0,,,,
R,,3216312.0,0.0,0.171,-0.032,-6.7,-6.0,-11.9,627,905,0,,,,
R,,3216372.0,0.089,0.218,0.0,-10.7,-10.4,-16.2,347,909,0,,,,
R,,3216432.0,-0.054,0.193,-0.064,-3.5,2.6,-23.4,177,906,0,,,,
R,,3216492.0,0.069,-0.009,-0.001,4.6,6.7,-39.5,566,737,0,,,,
R,,3216551.0,0.167,0.022,-0.163,-3.6,-10.4,17.6,535,692,0,,,,
R,,3216613.0,0.024,-0.007,-0.099,-4.6,36.8,18.4,501,671,0,,,,
R,,3216671.0,0.019,0.115,0.022,0.5,6.0,39.1,534,687,0,,,,
R,,3216732.0,0.009,0.176,-0.143,-1.1,19.2,37.5,567,709,0,,,,
R,,3216791.0,-0.024,0.193,-0.134,11.2,21.2,35.6,568,718,0,,,,
R,,3216852.0,-0.074,0.265,-0.01,0.1,7.2,25.7,514,707,0,,,,
R,,3216912.0,-0.194,0.267,-0.021,7.8,-22.4,6.9,544,741,0,,,,
R,,3216972.0,-0.134,-0.006,0.145,13.9,8.6,-37.0,712,810,0,,,,
R,,3217032.0,-0.006,0.143,-0.061,22.4,0.1,-35.8,746,845,0,,,,
R,,3217091.0,-0.004,0.18,-0.103,-6.7,-10.0,-7.3,778,877,0,,,,
R,,3217152.0,0.038,0.123,0.003,0.5,-4.8,1.4,791,891,0,,,,
R,,3217211.0,0.008,0.077,-0.098,-1.1,4.5,-5.5,795,898,0,,,,
R,,3217302.0,0.01,0.125,-0.044,-1.6,4.3,-8.7,796,905,0,,,,
R,,3217364.0,0.007,0.114,-0.031,-1.3,-2.7,-5.7,773,907,0,,,,
R,,3217421.0,-0.001,0.119,-0.03,-0.2,-0.1,-7.9,705,906,0,,,,
R,,3217482.0,-0.003,0.131,-0.02,-2.7,-6.1,-6.5,663,910,0,,,,
R,,3217572.0,-0.009,0.157,-0.033,-5.1,-8.4,-8.8,624,908,0,,,,
R,,3217631.0,0.024,0.202,-0.035,-9.7,-11.3,-10.3,534,904,0,,,,
R,,3217692.0,0.082,0.192,-0.016,-9.2,-3.4,-21.0,184,909,0,,,,
R,,3217751.0,0.087,0.257,-0.107,-6.3,6.5,-29.2,221,884,0,,,,
R,,3217812.0,-0.065,-0.028,-0.066,-14.0,18.5,-12.7,602,720,0,,,,
R,,3217872.0,0.058,0.056,0.033,-9.5,3.2,13.5,538,697,0,,,,
R,,3217932.0,0.029,0.015,-0.193,-6.1,5.6,31.9,507,680,0,,,,
R,,3217992.0,0.034,0.153,-0.055,-1.6,32.7,32.8,566,715,0,,,,
R,,3218053.0,0.005,0.19,-0.139,0.1,13.6,39.5,584,725,0,,,,
R,,3218112.0,-0.095,0.3,-0.069,4.1,4.4,47.3,520,699,0,,,,
R,,3218171.0,-0.2,0.163,-0.105,4.8,17.5,12.0,534,732,0,,,,
R,,3218231.0,0.273,0.25,0.067,-0.7,-9.7,-32.1,693,798,0,,,,
R,,3218322.0,0.006,0.138,-0.051,-0.5,-8.5,-32.4,750,849,0,,,,
R,,3218381.0,-0.005,0.182,-0.061,-13.6,-11.4,-9.8,781,882,0,,,,
R,,3218442.0,0.044,0.15,0.006,1.1,-4.5,0.1,791,893,0,,,,
R,,3218501.0,0.013,0.094,-0.101,-4.1,-4.2,-4.1,794,897,0,,,,
R,,3218562.0,0.016,0.118,-0.005,1.0,4.6,-7.9,795,902,0,,,,
R,,3218652.0,0.0,0.118,-0.028,-1.5,-0.2,-6.8,785,905,0,,,,
R,,3218711.0,-0.008,0.116,-0.038,-0.9,-2.1,-7.0,715,908,0,,,,
R,,3218772.0,0.002,0.145,-0.012,-2.7,-3.3,-7.9,652,907,0,,,,
R,,3218833.0,-0.003,0.149,-0.05,-6.0,-6.0,-10.0,593,907,0,,,,
R,,3218892.0,0.047,0.208,-0.011,-9.4,-10.1,-13.5,461,903,0,,,,
R,,3218952.0,0.089,0.2,-0.03,-7.4,1.8,-25.5,185,908,0,,,,
R,,3219012.0,0.17,0.173,-0.084,2.8,6.2,-46.4,269,829,0,,,,
R,,3219072.0,0.025,-0.026,-0.171,-14.6,18.7,4.8,589,720,0,,,,
R,,3219131.0,0.026,-0.005,-0.004,2.0,30.5,21.9,539,690,0,,,,
R,,3219192.0,0.019,0.091,-0.043,-1.7,-7.1,40.0,555,704,0,,,,
R,,3219282.0,0.004,0.195,-0.156,1.8,9.5,41.0,607,737,0,,,,
R,,3219372.0,-0.084,0.275,-0.006,-2.0,11.5,18.4,539,727,0,,,,
R,,3219432.0,-0.174,0.284,-0.051,10.8,-16.1,6.3,551,742,0,,,,
R,,3219492.0,-0.059,0.058,0.122,14.1,4.6,-35.7,711,809,0,,,,
R,,3219552.0,0.009,0.152,-0.046,15.6,0.6,-32.8,740,838,0,,,,
R,,3219614.0,-0.006,0.174,-0.109,2.4,-2.5,-4.3,770,867,0,,,,
R,,3219671.0,0.028,0.1,-0.008,-2.9,-4.0,-0.4,785,886,0,,,,
R,,3219732.0,0.024,0.092,-0.073,-2.8,2.7,-6.8,792,893,0,,,,
R,,3219791.0,0.039,0.117,-0.012,-2.4,-3.0,-9.6,799,900,0,,,,
R,,3219852.0,-0.001,0.129,-0.044,-1.2,2.2,-10.7,800,903,0,,,,
R,,3219912.0,0.003,0.127,-0.029,-0.4,-1.6,-4.6,793,905,0,,,,
R,,3219972.0,-0.001,0.121,-0.036,-0.8,-2.6,-5.1,761,908,0,,,,
R,,3220032.0,0.009,0.141,-0.023,-3.3,-6.6,-7.0,671,912,0,,,,
R,,3220092.0,-0.004,0.158,-0.048,-6.5,-3.3,-9.9,629,909,0,,,,
R,,3220152.0,0.043,0.195,-0.015,-9.7,-9.4,-13.2,516,905,0,,,,
R,,3220211.0,0.071,0.191,-0.062,-6.1,4.0,-23.8,207,906,0,,,,
R,,3220273.0,0.132,0.149,-0.104,4.5,-3.0,-43.1,228,837,0,,,,
R,,3220332.0,-0.046,-0.019,-0.1,-1.3,2.0,6.4,588,713,0,,,,
R,,3220421.0,0.057,0.034,-0.107,-3.7,22.3,32.6,544,708,0,,,,
R,,3220482.0,0.015,0.162,-0.017,8.2,13.5,41.1,569,720,0,,,,
R,,3220541.0,-0.003,0.197,-0.104,2.7,16.0,39.0,597,736,0,,,,
R,,3220602.0,-0.054,0.277,-0.046,5.7,-8.4,43.4,545,722,0,,,,
R,,3220662.0,-0.188,0.198,-0.058,1.1,14.7,10.5,528,724,0,,,,
R,,3220722.0,-0.075,0.248,0.108,1.8,10.1,-32.1,648,769,0,,,,
R,,3220782.0,0.171,0.371,-0.085,37.5,0.0,9.4,731,828,0,,,,
R,,3220842.0,0.007,0.017,-0.13,15.3,15.1,-9.3,769,869,0,,,,
R,,3220902.0,0.031,0.064,-0.024,-9.5,-8.7,-17.0,788,891,0,,,,
R,,3220961.0,0.026,0.139,-0.029,0.0,-1.9,-10.7,795,895,0,,,,
R,,3221023.0,0.032,0.133,-0.049,-3.3,-9.5,-4.2,796,899,0,,,,
R,,3221082.0,0.019,0.122,-0.055,-1.1,-0.2,-6.5,798,904,0,,,,
R,,3221142.0,0.002,0.108,-0.047,-1.6,-3.4,-6.1,785,906,0,,,,
R,,3221202.0,-0.005,0.116,-0.045,-1.0,-2.9,-6.9,725,906,0,,,,
R,,3221262.0,-0.002,0.136,-0.029,-1.0,-7.0,-6.1,641,907,0,,,,
R,,3221322.0,-0.005,0.148,-0.063,-2.9,-5.9,-8.2,594,912,0,,,,
R,,3221382.0,0.016,0.182,-0.037,-7.2,-11.2,-12.5,466,912,0,,,,
R,,3221472.0,-0.008,0.204,-0.049,-0.7,-1.5,-26.2,193,906,0,,,,
R,,3221532.0,0.076,0.042,-0.047,1.0,-4.4,-39.1,491,708,0,,,,
R,,3221592.0,0.183,0.076,-0.101,-0.6,-16.6,16.8,525,696,0,,,,
R,,3221652.0,0.072,0.005,-0.058,8.7,15.8,31.6,505,684,0,,,,
R,,3221713.0,0.036,0.141,0.037,6.3,6.8,35.6,557,716,0,,,,
R,,3221772.0,0.015,0.213,-0.102,2.3,15.4,41.5,577,727,0,,,,
R,,3221832.0,-0.06,0.268,-0.056,8.5,0.8,44.8,527,716,0,,,,
R,,3221892.0,-0.191,0.233,0.018,-0.4,11.9,14.8,546,740,0,,,,
R,,3221952.0,0.12,0.261,-0.018,-2.0,-6.7,-26.8,686,796,0,,,,
R,,3222012.0,0.091,0.367,-0.01,8.2,-3.0,4.1,743,840,0,,,,
R,,3222072.0,-0.019,0.066,-0.085,4.7,-0.8,-0.2,777,877,0,,,,
R,,3222132.0,0.024,0.063,-0.047,-11.8,-9.6,-4.0,788,888,0,,,,
R,,3222192.0,0.019,0.116,-0.053,-2.8,2.6,-7.7,794,895,0,,,,
R,,3222251.0,0.03,0.128,-0.012,-3.4,-8.6,-5.6,793,898,0,,,,
R,,3222312.0,0.015,0.116,-0.052,-3.2,-3.8,-7.1,790,900,0,,,,
R,,3222402.0,-0.004,0.125,-0.035,0.0,-1.6,-7.7,731,905,0,,,,
R,,3222463.0,0.006,0.138,-0.026,-1.4,-4.8,-7.2,662,911,0,,,,
R,,3222552.0,-0.004,0.164,-0.039,-3.3,-4.5,-10.4,587,912,0,,,,
R,,3222612.0,0.047,0.205,-0.038,-9.6,-15.4,-11.5,425,907,0,,,,
R,,3222672.0,0.069,0.207,-0.032,-5.8,-0.4,-23.9,201,910,0,,,,
R,,3222732.0,0.15,0.166,-0.087,-0.9,-6.0,-44.4,266,840,0,,,,
R,,3222791.0,-0.06,-0.066,-0.119,-11.6,15.6,1.9,586,719,0,,,,
R,,3222852.0,0.008,0.005,0.07,3.7,11.4,17.1,524,683,0,,,,
R,,3222912.0,0.024,0.085,-0.062,2.5,-12.5,39.9,530,692,0,,,,
R,,3222972.0,0.012,0.167,-0.093,0.1,29.4,37.2,565,716,0,,,,
R,,3223032.0,0.005,0.201,-0.078,10.2,8.8,37.5,583,730,0,,,,
R,,3223092.0,-0.061,0.293,0.015,0.9,8.8,26.4,549,722,0,,,,
R,,3223152.0,-0.19,0.259,-0.067,6.8,-7.6,7.1,550,734,0,,,,
R,,3223213.0,0.134,0.092,-0.041,18.4,-4.9,-39.2,701,801,0,,,,
R,,3223272.0,-0.028,0.188,-0.052,18.8,1.9,-34.8,742,840,0,,,,
R,,3223332.0,0.011,0.17,-0.114,2.0,-9.6,-3.6,772,868,0,,,,
R,,3223392.0,0.036,0.109,-0.037,-2.0,-2.2,-1.0,789,887,0,,,,
R,,3223452.0,0.02,0.1,-0.042,-0.8,1.9,-4.9,796,898,0,,,,
R,,3223512.0,0.029,0.103,-0.017,-1.8,-0.3,-9.8,798,904,0,,,,
R,,3223602.0,0.005,0.111,-0.031,-0.5,0.6,-7.4,783,906,0,,,,
R,,3223662.0,0.005,0.121,-0.03,-0.5,-1.1,-8.8,707,907,0,,,,
R,,3223722.0,-0.012,0.125,-0.031,-2.6,-2.2,-7.2,681,909,0,,,,
R,,3223812.0,-0.007,0.143,-0.038,-3.9,-5.1,-8.8,656,907,0,,,,
R,,3223872.0,-0.001,0.17,-0.024,-7.4,-7.4,-10.5,618,903,0,,,,
R,,3223933.0,0.075,0.188,-0.024,-9.8,-6.5,-17.0,179,914,0,,,,
R,,3223992.0,-0.04,0.218,-0.016,-9.4,-2.9,-19.8,180,904,0,,,,
R,,3224052.0,0.028,0.054,-0.027,1.9,16.0,-23.1,575,724,0,,,,
R,,3224112.0,0.147,0.053,-0.111,-7.1,-4.5,21.3,533,692,0,,,,
R,,3224172.0,0.012,-0.013,-0.135,-9.4,34.0,19.1,495,666,0,,,,
R,,3224232.0,0.035,0.105,0.02,-5.3,6.6,34.6,520,684,0,,,,
R,,3224291.0,-0.002,0.174,-0.175,-3.4,12.0,40.0,537,690,0,,,,
R,,3224352.0,-0.007,0.216,-0.102,15.3,16.9,39.4,559,707,0,,,,
R,,3224412.0,-0.063,0.268,0.038,3.5,4.4,24.6,510,701,0,,,,
R,,3224472.0,-0.186,0.274,-0.059,6.4,-16.0,4.6,508,716,0,,,,
R,,3224532.0,-0.049,0.04,0.015,16.5,8.6,-35.0,707,807,0,,,,
R,,3224622.0,-0.003,0.047,-0.057,9.5,18.8,-13.3,761,861,0,,,,
R,,3224683.0,0.037,0.075,-0.025,-7.8,-10.0,-11.3,784,884,0,,,,
R,,3224742.0,0.036,0.113,-0.023,0.3,-0.1,-11.7,791,892,0,,,,
R,,3224802.0,0.03,0.131,-0.049,-4.8,-8.5,-4.8,797,898,0,,,,
R,,3224862.0,0.024,0.119,-0.035,0.0,1.6,-6.8,799,902,0,,,,
R,,3224922.0,0.0,0.126,-0.033,-0.7,-0.5,-5.0,798,907,0,,,,
R,,3224982.0,0.002,0.116,-0.034,-1.4,-2.1,-5.4,793,911,0,,,,
R,,3225042.0,0.001,0.125,-0.033,-1.8,-4.2,-6.1,762,908,0,,,,
R,,3225102.0,0.009,0.142,-0.024,-2.7,-5.2,-7.3,655,906,0,,,,
R,,3225192.0,0.019,0.187,-0.02,-8.6,-10.4,-10.1,537,910,0,,,,
R,,3225252.0,0.081,0.218,-0.02,-9.8,-7.3,-17.4,233,913,0,,,,
R,,3225312.0,-0.021,0.235,-0.071,-11.8,15.3,-28.0,211,900,0,,,,
R,,3225372.0,0.078,-0.012,-0.031,1.7,9.0,-26.7,557,688,0,,,,
R,,3225433.0,0.123,0.022,-0.035,-9.9,1.0,3.7,535,700,0,,,,
R,,3225492.0,0.029,0.031,-0.129,-5.3,15.9,26.6,533,698,0,,,,
R,,3225552.0,0.025,0.121,-0.007,0.7,15.3,39.1,562,716,0,,,,
R,,3225612.0,0.01,0.187,-0.124,-3.6,11.4,41.7,593,732,0,,,,
R,,3225702.0,-0.045,0.327,0.012,-2.5,-0.7,36.4,529,712,0,,,,
R,,3225762.0,-0.231,0.2,-0.158,11.4,10.4,9.7,545,729,0,,,,
R,,3225822.0,0.153,0.095,0.043,19.1,9.7,-44.6,705,806,0,,,,
R,,3225882.0,-0.038,0.191,-0.065,16.4,-4.9,-29.5,741,837,0,,,,
R,,3225942.0,0.0,0.152,-0.108,0.9,-4.3,-4.3,769,869,0,,,,
R,,3226002.0,0.044,0.116,-0.011,-0.6,-1.6,-1.3,784,885,0,,,,
R,,3226062.0,0.037,0.104,-0.049,0.0,1.6,-6.3,796,898,0,,,,
R,,3226124.0,0.012,0.127,-0.016,-1.2,-0.9,-6.1,803,907,0,,,,
R,,3226182.0,0.011,0.113,-0.044,-1.7,2.4,-9.7,799,908,0,,,,
R,,3226242.0,0.005,0.125,-0.022,-1.6,-2.8,-6.9,785,906,0,,,,
R,,3226302.0,-0.003,0.123,-0.046,-1.3,-1.8,-5.4,737,908,0,,,,
R,,3226362.0,0.006,0.135,-0.022,-3.0,-4.6,-5.3,679,907,0,,,,
R,,3226422.0,-0.001,0.146,-0.028,-4.3,-0.1,-9.7,648,906,0,,,,
R,,3226482.0,0.015,0.192,-0.023,-9.9,-8.0,-9.8,620,903,0,,,,
R,,3226542.0,0.109,0.205,-0.012,-10.2,-3.1,-19.0,198,912,0,,,,
R,,3226602.0,-0.019,0.243,-0.082,-13.4,17.5,-27.0,212,900,0,,,,
R,,3226662.0,0.008,-0.009,-0.044,-2.4,19.1,-17.7,577,695,0,,,,
R,,3226722.0,0.09,0.032,-0.018,-11.5,0.1,8.3,544,701,0,,,,
R,,3226782.0,0.028,0.02,-0.165,-10.9,15.7,26.8,533,698,0,,,,
R,,3226843.0,0.03,0.135,-0.047,-1.9,21.9,37.6,573,714,0,,,,
R,,3226902.0,0.019,0.191,-0.101,-1.8,12.9,39.5,596,725,0,,,,
R,,3226962.0,-0.067,0.224,-0.098,10.1,6.0,43.5,573,719,0,,,,
R,,3227022.0,-0.181,0.223,-0.054,4.1,25.4,17.8,543,715,0,,,,
R,,3227083.0,-0.015,0.341,0.082,-3.5,-28.5,-20.5,684,788,0,,,,
R,,3227142.0,0.067,0.244,-0.077,19.3,14.1,-6.0,740,840,0,,,,
R,,3227202.0,-0.015,0.047,-0.088,7.4,5.1,-8.1,767,868,0,,,,
R,,3227262.0,0.029,0.096,-0.009,-8.4,-9.3,-9.1,788,889,0,,,,
R,,3227322.0,0.023,0.126,-0.045,2.5,4.6,-9.9,795,898,0,,,,
R,,3227382.0,0.024,0.127,-0.007,-2.5,-6.8,-7.1,798,903,0,,,,
R,,3227442.0,0.006,0.11,-0.056,-2.8,-1.4,-9.7,786,905,0,,,,
R,,3227502.0,0.001,0.124,-0.043,-1.6,-0.8,-7.7,702,906,0,,,,
R,,3227564.0,-0.014,0.12,-0.034,-2.3,1.4,-7.1,666,908,0,,,,
R,,3227623.0,0.004,0.146,-0.007,-2.7,-3.2,-7.0,624,907,0,,,,
R,,3227682.0,-0.004,0.156,-0.032,-5.3,-5.8,-10.0,600,908,0,,,,
R,,3227742.0,0.048,0.213,-0.029,-11.1,-11.6,-13.3,443,906,0,,,,
R,,3227802.0,0.073,0.192,-0.045,-6.1,0.0,-25.3,173,909,0,,,,
R,,3227862.0,0.156,0.133,-0.06,3.6,2.9,-49.8,367,799,0,,,,
R,,3227922.0,0.061,-0.005,-0.132,-7.4,13.3,0.6,579,717,0,,,,
R,,3227982.0,0.019,0.004,-0.005,0.9,27.9,19.1,513,690,0,,,,
R,,3228042.0,0.023,0.106,-0.007,4.4,-5.6,41.3,542,700,0,,,,
R,,3228102.0,0.0,0.148,-0.144,-3.2,25.3,37.8,591,720,0,,,,
R,,3228163.0,-0.021,0.189,-0.134,13.7,7.5,40.2,593,723,0,,,,
R,,3228224.0,-0.098,0.299,0.029,-1.1,-6.8,28.2,530,703,0,,,,
R,,3228282.0,-0.185,0.31,0.013,5.1,-27.5,3.7,549,733,0,,,,
R,,3228342.0,-0.265,-0.179,0.03,11.4,31.4,-12.9,722,820,0,,,,
R,,3228402.0,0.028,0.11,0.011,-12.2,-0.5,-44.2,755,852,0,,,,
R,,3228462.0,0.006,0.178,-0.093,-14.6,-13.1,-10.6,783,883,0,,,,
R,,3228522.0,0.041,0.16,-0.009,1.5,-5.3,2.0,794,897,0,,,,
R,,3228583.0,0.026,0.091,-0.083,-1.7,-5.9,-2.8,798,900,0,,,,
R,,3228642.0,0.017,0.109,-0.04,-1.8,-2.1,-6.4,795,903,0,,,,
R,,3228702.0,0.005,0.116,-0.043,-1.5,-1.4,-6.7,777,907,0,,,,
R,,3228762.0,0.003,0.116,-0.038,-1.3,-4.0,-5.1,752,906,0,,,,
R,,3228822.0,-0.009,0.118,-0.057,-0.9,-0.6,-5.1,740,905,0,,,,
R,,3228882.0,0.002,0.129,-0.028,0.2,-3.1,-7.2,670,907,0,,,,
R,,3228944.0,-0.002,0.154,-0.04,-2.5,-5.1,-11.4,607,911,0,,,,
R,,3229002.0,0.01,0.186,-0.052,-8.6,-12.5,-12.2,489,911,0,,,,
R,,3229062.0,0.066,0.188,-0.027,-8.5,-7.9,-21.1,200,914,0,,,,
R,,3229123.0,0.051,0.25,-0.12,-2.6,1.0,-27.2,222,891,0,,,,
R,,3229182.0,-0.044,-0.061,-0.031,3.7,0.7,-6.8,594,713,0,,,,
R,,3229242.0,0.031,-0.021,0.043,-5.1,1.5,10.2,517,676,0,,,,
R,,3229302.0,0.037,0.092,-0.059,4.7,-1.9,36.9,510,673,0,,,,
R,,3229362.0,0.02,0.16,-0.029,-0.9,21.4,37.0,558,701,0,,,,
R,,3229422.0,-0.007,0.185,-0.096,-0.6,5.4,38.7,575,716,0,,,,
R,,3229482.0,-0.076,0.292,0.017,8.9,-7.9,41.7,574,728,0,,,,
R,,3229572.0,-0.173,0.302,0.025,-1.1,-7.2,-13.6,588,728,0,,,,
R,,3229633.0,0.084,0.215,-0.072,25.9,-7.6,20.9,724,824,0,,,,
R,,3229692.0,-0.001,0.001,-0.096,9.3,15.8,-24.3,763,861,0,,,,
R,,3229752.0,0.023,0.084,-0.058,-12.7,-9.8,-17.4,785,886,0,,,,
R,,3229812.0,0.022,0.142,-0.018,-1.6,-3.8,-9.0,794,898,0,,,,
R,,3229873.0,0.017,0.118,-0.08,-4.1,-6.8,-4.3,799,903,0,,,,
R,,3229932.0,0.018,0.118,-0.038,-2.1,-0.7,-5.3,800,907,0,,,,
R,,3229992.0,0.011,0.113,-0.042,-1.2,-3.5,-5.1,793,907,0,,,,
R,,3230052.0,0.003,0.119,-0.04,-0.3,-3.0,-6.4,778,908,0,,,,
R,,3230112.0,-0.001,0.126,-0.038,-0.7,-3.7,-6.3,740,907,0,,,,
R,,3230172.0,-0.012,0.142,-0.04,-2.0,-4.7,-7.0,652,909,0,,,,
R,,3230232.0,-0.01,0.156,-0.052,-4.9,-7.2,-11.5,609,911,0,,,,
R,,3230292.0,0.049,0.206,-0.035,-9.3,-12.9,-14.2,436,909,0,,,,
R,,3230354.0,0.043,0.208,-0.037,-2.9,-1.1,-26.0,208,910,0,,,,
R,,3230442.0,-0.054,-0.1,-0.046,8.6,3.4,-9.2,603,721,0,,,,
R,,3230502.0,0.049,-0.02,0.046,-9.3,-8.4,5.3,534,682,0,,,,
R,,3230562.0,0.041,0.078,-0.083,-0.7,3.5,33.2,542,697,0,,,,
R,,3230623.0,0.024,0.169,-0.026,5.6,21.6,41.3,564,710,0,,,,
R,,3230682.0,0.008,0.194,-0.074,3.0,5.4,38.0,576,726,0,,,,
R,,3230743.0,-0.038,0.282,-0.015,5.6,0.5,38.0,544,714,0,,,,
R,,3230802.0,-0.203,0.195,-0.072,3.6,23.7,9.7,536,723,0,,,,
R,,3230862.0,0.274,0.177,-0.045,17.1,2.6,-42.9,704,805,0,,,,
R,,3230922.0,0.011,0.237,-0.027,7.2,-2.6,-20.3,744,840,0,,,,
R,,3230982.0,-0.023,0.12,-0.122,5.9,0.9,-1.1,769,870,0,,,,
R,,3231042.0,0.047,0.099,-0.017,-8.5,-8.4,-3.4,792,891,0,,,,
R,,3231104.0,0.007,0.108,-0.051,-0.1,3.2,-7.1,798,901,0,,,,
R,,3231163.0,0.02,0.115,-0.028,-4.4,-6.9,-5.3,799,903,0,,,,
R,,3231222.0,0.018,0.125,-0.031,-1.2,-1.1,-7.0,798,906,0,,,,
R,,3231282.0,0.0,0.123,-0.044,-1.8,-2.9,-4.7,785,904,0,,,,
R,,3231342.0,0.001,0.118,-0.021,-1.7,-1.5,-6.2,756,906,0,,,,
R,,3231402.0,0.005,0.14,-0.035,-1.6,-3.0,-8.5,661,910,0,,,,
R,,3231462.0,-0.006,0.165,-0.042,-4.8,-3.8,-10.6,609,909,0,,,,
R,,3231522.0,0.066,0.221,-0.002,-10.5,-13.3,-15.1,439,910,0,,,,
R,,3231583.0,0.072,0.205,-0.042,-8.6,5.4,-24.8,181,909,0,,,,
R,,3231642.0,0.152,0.159,-0.086,0.6,7.4,-44.6,362,815,0,,,,
R,,3231703.0,-0.015,-0.06,-0.176,-8.0,15.1,1.5,568,704,0,,,,
R,,3231764.0,0.007,0.007,0.012,0.8,25.0,13.8,516,684,0,,,,
R,,3231822.0,0.029,0.078,-0.041,-3.1,-9.6,39.0,532,683,0,,,,
R,,3231882.0,0.007,0.158,-0.127,-3.3,23.7,40.2,558,704,0,,,,
R,,3231942.0,0.005,0.202,-0.113,10.3,19.9,37.5,575,715,0,,,,
R,,3232002.0,-0.067,0.3,-0.04,-2.7,7.0,32.0,497,688,0,,,,
R,,3232062.0,-0.207,0.212,-0.129,11.3,4.6,7.0,534,729,0,,,,
R,,3232123.0,0.392,0.18,-0.008,13.7,-17.4,-37.4,705,806,0,,,,
R,,3232182.0,-0.003,0.17,-0.091,21.3,28.5,-35.8,745,841,0,,,,
R,,3232243.0,-0.015,0.167,-0.106,5.5,-7.7,2.9,771,872,0,,,,
R,,3232302.0,0.057,0.083,0.008,-0.8,-0.5,-7.4,793,895,0,,,,
R,,3232392.0,0.015,0.108,-0.067,-2.8,-7.2,-3.1,800,905,0,,,,
R,,3232453.0,0.007,0.114,-0.023,-0.3,2.5,-7.6,797,905,0,,,,
R,,3232514.0,0.006,0.125,-0.024,-1.1,-4.0,-5.8,782,908,0,,,,
R,,3232572.0,0.001,0.124,-0.034,-0.4,-2.2,-5.7,720,907,0,,,,
R,,3232632.0,-0.004,0.137,-0.023,-1.8,-2.5,-5.2,661,907,0,,,,
R,,3232692.0,0.006,0.139,-0.012,-4.0,-5.7,-7.9,613,907,0,,,,
R,,3232752.0,0.001,0.166,-0.051,-7.5,-5.4,-10.6,561,907,0,,,,
R,,3232812.0,0.075,0.207,-0.019,-10.6,-7.0,-14.9,262,913,0,,,,
R,,3232873.0,-0.018,0.213,-0.029,-4.7,0.2,-22.9,163,906,0,,,,
R,,3232932.0,0.055,0.035,-0.048,6.3,2.5,-41.1,509,714,0,,,,
R,,3232993.0,0.146,0.043,-0.112,-8.8,4.9,9.0,552,698,0,,,,
R,,3233052.0,0.013,0.003,-0.081,-0.5,30.8,21.3,518,680,0,,,,
R,,3233112.0,0.013,0.11,0.006,3.1,3.1,39.5,541,695,0,,,,
R,,3233172.0,0.001,0.15,-0.145,-5.5,20.5,38.5,577,713,0,,,,
R,,3233234.0,-0.014,0.198,-0.116,14.7,13.1,38.2,576,721,0,,,,
R,,3233292.0,-0.073,0.29,0.0,-1.3,20.5,16.9,526,706,0,,,,
R,,3233352.0,-0.207,0.298,-0.081,11.0,-23.1,7.3,541,733,0,,,,
R,,3233413.0,-0.049,-0.025,0.094,3.6,21.4,-2.1,721,823,0,,,,
R,,3233472.0,0.024,0.085,-0.071,-3.0,-1.6,-27.5,754,853,0,,,,
R,,3233533.0,-0.006,0.142,-0.063,-13.9,-10.8,-10.5,788,888,0,,,,
R,,3233592.0,0.053,0.153,0.04,5.3,0.3,-5.8,798,900,0,,,,
R,,3233652.0,0.01,0.094,-0.096,-1.6,-5.2,-7.9,798,904,0,,,,
R,,3233712.0,0.015,0.123,-0.022,-1.2,3.8,-9.2,794,907,0,,,,
R,,3233772.0,0.004,0.117,-0.041,-0.7,-1.3,-6.8,755,908,0,,,,
R,,3233833.0,0.005,0.128,-0.019,-1.3,-3.0,-6.1,670,908,0,,,,
R,,3233894.0,-0.006,0.121,-0.035,-3.0,-4.3,-6.1,635,910,0,,,,
R,,3233953.0,0.001,0.137,-0.026,-3.6,-3.0,-7.4,604,907,0,,,,
R,,3234012.0,-0.003,0.157,-0.03,-5.5,-4.5,-10.4,560,908,0,,,,
R,,3234073.0,0.05,0.21,-0.019,-10.9,-11.7,-13.0,336,910,0,,,,
R,,3234132.0,0.073,0.194,-0.04,-8.0,3.9,-23.3,147,909,0,,,,
R,,3234192.0,0.12,0.171,-0.063,0.8,7.1,-42.7,243,847,0,,,,
R,,3234252.0,-0.137,-0.067,-0.094,-12.1,13.7,-6.3,594,715,0,,,,
R,,3234312.0,0.009,0.041,0.044,-3.0,16.1,11.3,520,682,0,,,,
R,,3234373.0,0.048,0.059,-0.085,-5.3,-8.5,34.3,518,685,0,,,,
R,,3234432.0,0.014,0.134,-0.111,-4.2,29.3,34.3,566,706,0,,,,
R,,3234493.0,0.02,0.195,-0.078,5.7,14.1,37.0,582,721,0,,,,
R,,3234552.0,-0.074,0.265,-0.077,2.0,7.5,40.0,512,693,0,,,,
R,,3234614.0,-0.226,0.199,-0.116,4.1,19.2,13.1,501,699,0,,,,
R,,3234672.0,0.362,0.201,0.015,-2.1,3.4,-32.2,680,783,0,,,,
R,,3234732.0,0.097,0.354,-0.031,28.4,21.5,-13.8,739,837,0,,,,
R,,3234792.0,-0.025,0.095,-0.12,7.7,-3.4,-1.6,772,871,0,,,,
R,,3234852.0,0.038,0.09,-0.026,-5.1,-4.0,-7.7,789,888,0,,,,
R,,3234913.0,0.016,0.113,-0.028,3.1,5.6,-9.5,795,896,0,,,,
R,,3235002.0,0.017,0.12,-0.008,0.0,3.0,-7.0,798,905,0,,,,
R,,3235062.0,0.006,0.12,-0.041,-1.0,0.1,-8.6,793,906,0,,,,
R,,3235153.0,-0.003,0.12,-0.027,-0.1,-3.3,-5.7,708,907,0,,,,
R,,3235212.0,-0.001,0.144,-0.025,-2.1,-3.4,-7.5,637,909,0,,,,
R,,3235272.0,0.0,0.15,-0.038,-5.0,-4.2,-10.3,580,909,0,,,,
R,,3235333.0,0.032,0.192,-0.028,-9.0,-9.7,-13.2,451,908,0,,,,
R,,3235394.0,0.078,0.198,-0.049,-6.4,2.6,-23.4,161,909,0,,,,
R,,3235453.0,0.129,0.215,-0.121,5.6,-0.6,-42.2,196,864,0,,,,
R,,3235512.0,-0.151,-0.055,-0.092,-7.9,4.1,-2.5,590,713,0,,,,
R,,3235573.0,0.03,-0.005,0.069,-3.1,10.8,12.8,535,692,0,,,,
R,,3235632.0,0.023,0.058,-0.079,-1.1,0.5,34.4,543,702,0,,,,
R,,3235692.0,0.022,0.171,-0.079,3.0,24.4,37.9,579,718,0,,,,
R,,3235752.0,-0.003,0.203,-0.122,3.2,13.7,40.5,580,725,0,,,,
R,,3235812.0,-0.074,0.308,0.009,2.4,-1.0,34.4,516,707,0,,,,
R,,3235903.0,-0.166,0.25,0.064,-3.4,-4.5,-27.1,583,750,0,,,,
R,,3235962.0,0.113,0.297,-0.048,29.8,-6.6,22.9,732,830,0,,,,
R,,3236022.0,0.015,-0.022,-0.116,7.3,21.3,-16.0,765,863,0,,,,
R,,3236083.0,0.016,0.059,-0.037,-15.2,-12.5,-18.0,788,888,0,,,,
R,,3236142.0,0.03,0.163,0.012,3.5,2.0,-12.6,796,899,0,,,,
R,,3236203.0,0.025,0.119,-0.058,-2.4,-13.8,-3.0,796,900,0,,,,
R,,3236262.0,0.002,0.108,-0.072,-1.6,1.9,-6.1,784,902,0,,,,
R,,3236323.0,0.004,0.108,-0.035,0.3,-1.6,-5.7,741,904,0,,,,
R,,3236382.0,-0.007,0.116,-0.043,-0.7,-4.1,-5.6,724,906,0,,,,
R,,3236443.0,-0.004,0.136,-0.03,-0.2,-1.7,-7.0,667,904,0,,,,
R,,3236543.0,0.001,0.167,-0.055,-5.3,-8.5,-11.8,555,911,0,,,,
R,,3236562.0,0.009,0.181,-0.045,-7.3,-11.5,-11.5,492,911,0,,,,
R,,3236622.0,0.09,0.205,-0.039,-10.4,-10.6,-18.7,282,912,0,,,,
R,,3236712.0,0.119,0.155,-0.071,-2.5,-5.7,-46.7,252,784,0,,,,
R,,3236772.0,0.11,0.063,-0.135,4.2,-0.1,16.3,524,674,0,,,,
R,,3236833.0,0.043,-0.049,0.007,8.5,18.0,24.8,490,664,0,,,,
R,,3236892.0,0.029,0.092,0.026,7.2,-1.0,39.2,540,694,0,,,,
R,,3236953.0,0.01,0.205,-0.079,3.5,16.1,42.3,557,711,0,,,,
R,,3237012.0,-0.029,0.221,-0.105,11.1,11.5,43.2,581,728,0,,,,
R,,3237073.0,-0.086,0.307,0.05,-0.6,5.1,22.9,523,715,0,,,,
R,,3237132.0,-0.188,0.31,-0.045,8.8,-22.2,6.9,539,737,0,,,,
R,,3237222.0,0.023,0.298,-0.064,4.8,3.5,-14.3,739,836,0,,,,
R,,3237283.0,-0.013,0.096,-0.12,11.9,6.7,-0.4,772,873,0,,,,
R,,3237342.0,0.026,0.066,-0.017,-12.4,-9.2,-6.2,791,893,0,,,,
R,,3237444.0,0.023,0.108,-0.085,-6.1,-11.2,-2.7,798,899,0,,,,
R,,3237462.0,0.038,0.125,-0.02,-7.0,-13.2,-4.3,799,899,0,,,,
R,,3237524.0,-0.001,0.111,-0.071,-2.5,-1.0,-5.2,802,903,0,,,,
R,,3237583.0,0.01,0.12,-0.042,-2.4,-3.6,-3.8,797,901,0,,,,
R,,3237642.0,0.007,0.117,-0.037,-0.9,-3.6,-6.1,793,903,0,,,,
R,,3237703.0,0.0,0.125,-0.051,-0.3,-2.7,-7.6,750,904,0,,,,
R,,3237762.0,0.003,0.165,-0.001,-2.9,-9.8,-8.4,635,908,0,,,,
R,,3237823.0,0.01,0.191,-0.077,-7.7,-8.3,-11.3,556,910,0,,,,
R,,3237882.0,0.111,0.214,-0.01,-9.7,-10.3,-20.9,247,914,0,,,,
R,,3237943.0,-0.003,0.272,-0.098,-9.7,8.4,-28.9,189,893,0,,,,
R,,3238002.0,-0.075,-0.127,-0.027,4.9,7.5,-13.5,598,718,0,,,,
R,,3238062.0,0.045,-0.021,0.038,-7.4,-2.4,9.2,532,695,0,,,,
R,,3238123.0,0.03,0.076,-0.103,-0.9,-5.1,42.2,523,692,0,,,,
R,,3238182.0,0.027,0.172,-0.032,1.8,16.0,42.3,559,711,0,,,,
R,,3238274.0,-0.041,0.247,-0.062,9.8,6.7,44.1,546,722,0,,,,
R,,3238333.0,-0.184,0.232,-0.034,-0.1,19.2,17.0,536,726,0,,,,
R,,3238392.0,-0.159,0.269,0.042,-0.2,-8.4,-20.5,566,744,0,,,,
R,,3238453.0,0.0,-0.053,0.058,-10.5,16.9,33.3,722,819,0,,,,
R,,3238512.0,0.002,0.02,-0.07,-5.7,-10.6,-22.9,750,849,0,,,,
R,,3238573.0,-0.017,0.182,-0.03,-19.0,-15.8,-18.4,788,889,0,,,,
R,,3238632.0,0.067,0.157,0.017,10.0,5.1,-4.5,797,902,0,,,,
R,,3238693.0,0.012,0.103,-0.081,-4.5,-8.4,-4.5,793,905,0,,,,
R,,3238752.0,0.013,0.116,-0.042,0.2,8.5,-10.1,784,907,0,,,,
R,,3238812.0,0.009,0.12,-0.026,-1.8,-3.4,-6.7,763,906,0,,,,
R,,3238873.0,-0.002,0.125,-0.033,-1.4,-2.6,-5.5,734,908,0,,,,
R,,3238932.0,-0.01,0.125,-0.02,-1.4,-3.0,-4.4,710,907,0,,,,
R,,3238994.0,0.0,0.131,-0.03,-1.2,-2.9,-7.3,674,909,0,,,,
R,,3239052.0,-0.002,0.16,-0.031,-6.5,-7.2,-8.9,664,905,0,,,,
R,,3239113.0,0.026,0.198,-0.014,-10.8,-3.7,-11.7,590,899,0,,,,
R,,3239172.0,0.083,0.183,-0.04,-9.8,-2.1,-19.8,150,911,0,,,,
R,,3239233.0,0.111,0.277,-0.127,-5.4,5.4,-31.2,152,891,0,,,,
R,,3239293.0,-0.096,-0.078,-0.13,-13.0,16.5,-17.0,590,706,0,,,,
R,,3239352.0,0.044,0.032,0.054,-11.9,9.0,9.4,504,667,0,,,,
R,,3239443.0,0.012,0.11,0.006,-1.4,6.7,39.8,525,683,0,,,,
R,,3239502.0,-0.009,0.199,-0.153,-1.5,20.2,40.6,552,701,0,,,,
R,,3239563.0,-0.028,0.197,-0.144,12.1,15.8,37.1,553,707,0,,,,
R,,3239623.0,-0.091,0.255,0.013,-0.8,8.1,20.5,489,695,0,,,,
R,,3239684.0,-0.164,0.26,-0.048,7.4,-27.9,5.1,513,723,0,,,,
R,,3239742.0,0.384,0.179,-0.01,21.3,-8.6,-34.7,704,806,0,,,,
R,,3239802.0,-0.023,0.173,-0.1,24.1,20.6,-35.7,738,836,0,,,,
R,,3239863.0,0.034,0.149,-0.131,10.0,-4.3,-3.6,772,870,0,,,,
R,,3239922.0,0.025,0.097,0.004,-1.9,-6.1,-0.7,790,890,0,,,,
R,,3239983.0,0.02,0.096,-0.073,1.8,8.1,-10.1,794,897,0,,,,
R,,3240042.0,0.046,0.136,0.018,-3.9,-9.2,-7.5,803,904,0,,,,
R,,3240102.0,-0.001,0.121,-0.067,-2.1,-1.0,-6.1,795,908,0,,,,
R,,3240163.0,0.018,0.12,-0.028,-1.0,-0.7,-5.9,785,908,0,,,,
R,,3240222.0,-0.003,0.125,-0.037,-1.1,-1.5,-7.1,719,908,0,,,,
R,,3240283.0,0.007,0.138,-0.016,-2.0,-1.9,-9.2,639,911,0,,,,
R,,3240373.0,0.0,0.166,-0.026,-7.7,-8.0,-11.7,617,903,0,,,,
R,,3240434.0,0.081,0.212,-0.03,-11.0,-9.4,-15.7,275,912,0,,,,
R,,3240493.0,-0.05,0.207,-0.044,-1.7,0.4,-21.7,174,904,0,,,,
R,,3240583.0,-0.13,-0.119,-0.104,-8.8,15.7,-11.7,601,720,0,,,,
R,,3240642.0,0.021,0.056,0.077,-7.8,9.7,13.3,513,671,0,,,,
R,,3240703.0,0.023,0.047,-0.143,-0.7,-0.7,39.3,527,693,0,,,,
R,,3240762.0,0.021,0.147,-0.098,-0.7,27.2,33.8,561,706,0,,,,
R,,3240823.0,-0.01,0.201,-0.119,3.9,16.5,35.7,568,718,0,,,,
R,,3240882.0,-0.053,0.323,0.023,-0.5,2.0,36.3,498,700,0,,,,
R,,3240943.0,-0.226,0.209,-0.168,7.6,13.5,9.7,508,714,0,,,,
R,,3241002.0,0.425,0.16,-0.009,14.0,-9.8,-39.9,697,799,0,,,,
R,,3241063.0,-0.022,0.213,-0.074,23.1,8.1,-30.8,740,835,0,,,,
R,,3241123.0,0.0,0.165,-0.121,8.3,-5.4,1.2,774,874,0,,,,
R,,3241184.0,0.037,0.096,-0.022,0.5,-1.4,1.1,787,888,0,,,,
R,,3241243.0,0.021,0.104,-0.034,0.2,0.4,-4.5,792,890,0,,,,
R,,3241302.0,0.04,0.123,-0.014,-1.4,-5.2,-9.4,792,899,0,,,,
R,,3241392.0,0.0,0.124,-0.032,-1.9,-2.2,-10.0,791,906,0,,,,
R,,3241453.0,-0.003,0.131,-0.031,-0.3,-2.0,-6.1,740,907,0,,,,
R,,3241512.0,0.005,0.136,-0.009,-3.2,-4.8,-5.8,658,907,0,,,,
R,,3241573.0,0.0,0.149,-0.038,-3.9,-1.8,-10.0,599,909,0,,,,
R,,3241632.0,0.012,0.189,-0.026,-8.5,-10.4,-10.4,528,907,0,,,,
R,,3241693.0,0.111,0.216,-0.026,-12.0,-4.2,-21.9,176,914,0,,,,
R,,3241752.0,0.011,0.267,-0.116,-10.9,20.4,-26.0,208,889,0,,,,
R,,3241813.0,-0.032,-0.069,-0.008,-1.4,12.7,-10.9,593,711,0,,,,
R,,3241875.0,0.03,0.019,0.036,-15.8,1.7,10.0,526,689,0,,,,
R,,3241932.0,0.043,0.031,-0.171,-5.0,9.9,31.6,525,691,0,,,,
R,,3241993.0,0.033,0.167,-0.029,1.9,21.4,39.4,573,709,0,,,,
R,,3242052.0,0.016,0.204,-0.117,-1.1,16.0,40.7,593,723,0,,,,
R,,3242113.0,-0.041,0.285,-0.05,2.5,3.1,44.0,533,706,0,,,,
R,,3242172.0,-0.201,0.186,-0.123,3.0,22.0,17.1,531,716,0,,,,
R,,3242233.0,-0.119,0.23,0.098,0.3,-2.4,-27.7,590,750,0,,,,
R,,3242292.0,0.122,0.163,-0.009,15.6,14.9,16.8,723,821,0,,,,
R,,3242353.0,-0.007,0.005,-0.081,-3.3,-11.7,-9.1,750,848,0,,,,
R,,3242443.0,0.027,0.091,-0.006,-3.9,-8.2,-4.2,788,889,0,,,,
R,,3242502.0,0.023,0.092,-0.068,-0.5,6.5,-10.9,789,894,0,,,,
R,,3242563.0,0.032,0.121,-0.01,-3.7,-9.7,-7.3,783,895,0,,,,
R,,3242625.0,0.0,0.12,-0.055,-1.0,0.4,-6.8,764,902,0,,,,
R,,3242682.0,0.016,0.125,-0.031,-1.4,-3.7,-5.2,707,903,0,,,,
R,,3242743.0,-0.004,0.103,-0.026,0.0,0.9,-7.6,646,905,0,,,,
R,,3242802.0,0.003,0.142,-0.035,-1.0,-1.6,-9.6,620,908,0,,,,
R,,3242863.0,0.004,0.152,-0.036,-3.9,-1.0,-12.0,541,911,0,,,,
R,,3242922.0,0.018,0.195,-0.016,-9.4,-13.4,-10.8,418,912,0,,,,
R,,3242983.0,0.11,0.211,-0.012,-11.3,-5.9,-21.9,200,915,0,,,,
R,,3243042.0,0.087,0.274,-0.112,-10.3,15.1,-29.2,236,889,0,,,,
R,,3243103.0,-0.092,-0.063,-0.035,-8.0,16.8,-10.8,589,708,0,,,,
R,,3243163.0,0.019,0.007,0.021,-11.8,8.6,4.9,497,674,0,,,,
R,,3243222.0,0.033,0.037,-0.118,-8.3,-3.5,34.5,490,672,0,,,,
R,,3243283.0,0.032,0.159,-0.04,-0.3,16.0,41.5,542,694,0,,,,
R,,3243344.0,0.016,0.202,-0.081,2.6,10.1,39.3,562,709,0,,,,
R,,3243403.0,-0.044,0.273,-0.034,4.7,4.0,39.8,523,706,0,,,,
R,,3243493.0,-0.199,0.27,-0.056,6.4,-18.6,5.4,508,715,0,,,,
R,,3243552.0,0.031,0.06,-0.015,19.0,-14.4,-40.2,701,799,0,,,,
R,,3243613.0,-0.008,0.153,-0.071,23.2,7.0,-42.0,737,837,0,,,,
R,,3243672.0,-0.022,0.198,-0.109,-0.1,-13.4,-0.5,778,877,0,,,,
R,,3243733.0,0.047,0.087,-0.01,1.1,-3.1,-0.3,790,890,0,,,,
R,,3243792.0,0.003,0.086,-0.104,-1.1,5.6,-7.3,794,895,0,,,,
R,,3243853.0,0.042,0.138,0.032,-2.3,-6.7,-9.2,800,900,0,,,,
R,,3243913.0,-0.003,0.117,-0.076,-1.2,-4.0,-6.7,797,905,0,,,,
R,,3243973.0,0.013,0.119,-0.031,0.2,-2.0,-6.9,770,904,0,,,,
R,,3244035.0,-0.016,0.125,-0.043,0.7,-3.2,-6.3,673,908,0,,,,
R,,3244092.0,0.005,0.143,-0.03,-1.0,-4.2,-8.4,614,910,0,,,,
R,,3244152.0,0.0,0.161,-0.045,-3.9,-8.3,-12.0,571,910,0,,,,
R,,3244212.0,0.023,0.195,-0.082,-7.9,-9.9,-13.0,341,911,0,,,,
R,,3244273.0,0.047,0.185,-0.071,5.5,-13.3,-29.0,188,903,0,,,,
R,,3244333.0,0.043,0.135,-0.082,-4.0,-19.6,-34.3,463,676,0,,,,
R,,3244393.0,0.116,0.06,0.044,-9.8,15.8,3.3,545,703,0,,,,
R,,3244453.0,0.049,0.033,-0.031,4.5,-5.6,27.0,545,709,0,,,,
R,,3244542.0,0.01,0.151,-0.038,-2.4,17.7,38.6,572,727,0,,,,
R,,3244603.0,0.019,0.186,-0.121,2.8,5.1,40.3,568,731,0,,,,
R,,3244663.0,-0.059,0.281,-0.049,6.3,-5.4,46.6,537,723,0,,,,
R,,3244723.0,-0.195,0.208,-0.043,4.5,20.5,14.2,529,714,0,,,,
R,,3244785.0,0.234,0.246,0.05,-8.3,-0.1,-30.3,662,776,0,,,,
R,,3244842.0,0.161,0.402,-0.025,25.2,8.1,5.2,729,827,0,,,,
R,,3244903.0,0.032,0.036,-0.152,13.4,11.8,-6.5,766,864,0,,,,
R,,3244962.0,0.029,0.068,-0.014,-11.3,-6.6,-16.2,787,889,0,,,,
R,,3245023.0,0.025,0.118,-0.027,3.1,6.4,-15.7,796,899,0,,,,
R,,3245083.0,0.019,0.136,-0.02,-3.6,-9.7,-7.2,796,905,0,,,,
R,,3245143.0,-0.005,0.114,-0.071,-1.6,1.6,-6.1,785,906,0,,,,
R,,3245233.0,-0.003,0.124,-0.032,0.0,-4.2,-4.5,708,906,0,,,,
R,,3245292.0,-0.003,0.123,-0.042,-1.8,-5.6,-4.6,660,908,0,,,,
R,,3245353.0,0.0,0.133,-0.041,-3.0,-0.8,-9.2,617,908,0,,,,
R,,3245413.0,-0.005,0.165,-0.04,-5.0,-5.3,-11.1,590,907,0,,,,
R,,3245474.0,0.05,0.222,-0.04,-10.1,-13.5,-12.4,359,909,0,,,,
R,,3245533.0,0.035,0.179,-0.02,-3.4,-4.6,-22.0,139,907,0,,,,
R,,3245623.0,-0.047,-0.07,-0.043,1.5,6.8,-12.8,599,718,0,,,,
R,,3245683.0,0.03,-0.024,0.012,-4.2,2.2,4.6,530,681,0,,,,
R,,3245743.0,0.024,0.069,-0.037,-2.0,1.5,28.7,544,694,0,,,,
R,,3245802.0,0.013,0.152,-0.073,1.2,23.9,35.1,575,713,0,,,,
R,,3245863.0,0.003,0.184,-0.097,2.8,10.9,34.3,586,722,0,,,,
R,,3245922.0,-0.056,0.202,-0.092,4.1,9.7,35.6,571,720,0,,,,
R,,3245983.0,-0.09,0.241,0.006,2.5,7.7,22.6,503,694,0,,,,
R,,3246042.0,-0.184,0.226,-0.007,6.1,0.6,-1.3,505,717,0,,,,
R,,3246103.0,-0.15,-0.041,0.06,5.4,15.9,-16.3,712,813,0,,,,
R,,3246163.0,0.021,0.132,-0.019,-1.1,-4.8,-25.3,749,845,0,,,,
R,,3246224.0,0.013,0.127,-0.036,-11.9,-7.9,-13.9,780,880,0,,,,
R,,3246283.0,0.036,0.142,-0.006,-2.5,-5.9,-5.4,792,891,0,,,,
R,,3246342.0,0.019,0.116,-0.085,-3.9,-3.2,-3.7,795,894,0,,,,
R,,3246403.0,0.03,0.12,-0.017,0.0,4.6,-8.5,798,902,0,,,,
R,,3246462.0,0.008,0.125,-0.028,-1.3,-0.1,-9.0,797,904,0,,,,
R,,3246523.0,0.002,0.123,-0.04,-1.7,-1.2,-8.4,771,905,0,,,,
R,,3246583.0,0.004,0.139,-0.023,-0.2,-0.9,-8.3,670,909,0,,,,
R,,3246672.0,-0.015,0.153,-0.037,-3.7,-1.6,-10.7,618,905,0,,,,
R,,3246732.0,0.043,0.21,-0.016,-10.0,-13.4,-12.1,555,904,0,,,,
R,,3246792.0,0.069,0.181,-0.033,-8.0,1.0,-24.3,160,907,0,,,,
R,,3246853.0,0.133,0.236,-0.097,-3.4,3.0,-40.1,248,847,0,,,,
R,,3246913.0,-0.032,-0.042,-0.166,-5.4,13.0,9.1,586,714,0,,,,
R,,3246974.0,0.033,-0.017,0.008,-1.5,25.3,17.6,532,676,0,,,,
R,,3247033.0,0.012,0.089,-0.033,-2.4,-0.9,34.9,549,697,0,,,,
R,,3247092.0,0.001,0.142,-0.134,-0.8,23.4,35.3,592,720,0,,,,
R,,3247153.0,0.002,0.19,-0.112,8.0,19.3,38.6,590,722,0,,,,
R,,3247212.0,-0.066,0.299,-0.03,-3.0,4.0,34.2,526,698,0,,,,
R,,3247273.0,-0.227,0.241,-0.109,8.9,-0.4,10.6,513,718,0,,,,
R,,3247363.0,0.099,0.131,0.001,13.9,26.3,9.2,728,824,0,,,,
R,,3247422.0,-0.029,0.036,-0.069,-5.6,-3.0,-16.5,757,856,0,,,,
R,,3247483.0,0.018,0.112,-0.015,-15.9,-8.3,-15.0,784,885,0,,,,
R,,3247542.0,0.045,0.143,0.033,2.4,2.0,-12.2,797,898,0,,,,
R,,3247603.0,0.018,0.12,-0.051,-3.7,-10.7,-5.3,795,904,0,,,,
R,,3247695.0,0.001,0.121,-0.045,-0.7,-3.0,-7.4,774,906,0,,,,
R,,3247752.0,-0.006,0.128,-0.048,-0.1,1.5,-5.6,713,907,0,,,,
R,,3247813.0,0.0,0.122,-0.013,-1.8,-0.9,-6.5,674,907,0,,,,
R,,3247873.0,-0.002,0.147,-0.033,-3.5,-0.8,-8.6,634,906,0,,,,
R,,3247933.0,0.0,0.158,-0.012,-5.9,-3.9,-11.0,618,904,0,,,,
R,,3247993.0,0.044,0.202,-0.026,-11.5,-10.2,-12.7,462,904,0,,,,
R,,3248053.0,0.074,0.194,-0.032,-9.3,-0.7,-22.6,163,908,0,,,,
R,,3248113.0,0.142,0.222,-0.069,0.0,10.0,-44.6,232,851,0,,,,
R,,3248172.0,-0.072,-0.055,-0.15,-6.2,11.9,-1.1,574,705,0,,,,
R,,3248233.0,0.005,0.003,0.002,-2.1,30.1,10.0,516,674,0,,,,
R,,3248292.0,0.015,0.081,-0.023,-7.4,-8.2,37.7,521,689,0,,,,
R,,3248353.0,0.003,0.15,-0.122,-2.3,21.6,38.0,562,700,0,,,,
R,,3248415.0,-0.008,0.2,-0.113,8.9,19.0,37.8,582,715,0,,,,
R,,3248473.0,-0.075,0.274,-0.063,-1.3,1.2,41.2,506,686,0,,,,
R,,3248533.0,-0.219,0.209,-0.109,4.2,13.3,10.2,492,703,0,,,,
R,,3248593.0,0.523,0.2,0.005,8.1,-1.6,-30.7,695,800,0,,,,
R,,3248653.0,0.062,0.355,-0.023,26.8,28.7,-21.7,731,829,0,,,,
R,,3248743.0,-0.036,0.186,-0.014,-10.7,-12.6,-10.2,786,886,0,,,,
R,,3248803.0,0.064,0.149,0.022,3.7,-8.0,-1.4,795,897,0,,,,
R,,3248863.0,-0.001,0.089,-0.119,-5.1,-4.8,-4.3,794,900,0,,,,
R,,3248922.0,0.021,0.122,0.017,0.7,3.3,-8.3,780,901,0,,,,
R,,3248983.0,0.016,0.112,-0.043,-0.6,-3.6,-8.2,733,904,0,,,,
R,,3249042.0,-0.015,0.137,-0.027,-0.9,-1.9,-6.0,673,906,0,,,,
R,,3249133.0,-0.008,0.137,-0.05,-3.6,-4.4,-8.1,612,909,0,,,,
R,,3249195.0,-0.005,0.159,-0.029,-3.9,-1.1,-9.2,538,909,0,,,,
R,,3249252.0,0.035,0.197,-0.023,-9.3,-9.8,-11.5,388,912,0,,,,
R,,3249312.0,0.083,0.199,-0.026,-9.3,-2.7,-23.3,162,911,0,,,,
R,,3249373.0,0.137,0.234,-0.11,4.3,4.7,-42.0,208,868,0,,,,
R,,3249433.0,-0.137,-0.063,-0.08,-12.8,13.4,-8.9,595,715,0,,,,
R,,3249493.0,0.03,0.033,0.053,-7.1,11.1,11.4,504,677,0,,,,
R,,3249553.0,0.03,0.06,-0.117,-5.3,-4.7,35.8,506,682,0,,,,
R,,3249613.0,0.028,0.136,-0.105,-3.2,34.9,31.9,560,712,0,,,,
R,,3249672.0,-0.002,0.178,-0.14,3.4,12.8,37.3,569,714,0,,,,
R,,3249733.0,-0.077,0.279,-0.047,-5.7,-4.9,40.6,462,681,0,,,,
R,,3249792.0,-0.212,0.216,-0.04,8.1,6.2,14.5,483,712,0,,,,
R,,3249884.0,0.09,0.124,-0.095,18.3,12.7,12.4,732,831,0,,,,
R,,3249943.0,0.01,0.031,-0.089,7.6,15.0,-30.9,768,869,0,,,,
R,,3250002.0,0.017,0.128,-0.052,-12.5,-13.7,-11.9,788,887,0,,,,
R,,3250063.0,0.03,0.154,0.005,3.5,-1.0,-4.3,796,896,0,,,,
R,,3250123.0,0.038,0.099,-0.082,-5.0,-14.3,-2.9,794,898,0,,,,
R,,3250183.0,0.028,0.112,-0.051,-0.1,5.6,-10.5,794,903,0,,,,
R,,3250243.0,0.0,0.122,-0.026,-1.0,-1.4,-7.6,784,907,0,,,,
R,,3250303.0,-0.001,0.118,-0.039,-0.5,-1.9,-8.0,734,907,0,,,,
R,,3250363.0,-0.002,0.133,-0.044,-1.9,-6.0,-5.5,644,911,0,,,,
R,,3250423.0,-0.004,0.142,-0.044,-3.1,-2.4,-8.7,594,910,0,,,,
R,,3250483.0,0.0,0.172,-0.046,-6.7,-10.9,-11.1,520,908,0,,,,
R,,3250542.0,0.083,0.212,-0.039,-10.2,-9.8,-19.1,208,916,0,,,,
R,,3250604.0,-0.042,0.25,-0.062,-6.6,6.0,-24.0,204,895,0,,,,
R,,3250663.0,0.014,-0.049,-0.029,3.3,1.1,-25.2,584,693,0,,,,
R,,3250723.0,0.101,0.044,0.012,-8.6,-9.8,3.1,534,681,0,,,,
R,,3250783.0,0.042,0.062,-0.1,2.2,5.5,33.3,529,683,0,,,,
R,,3250843.0,0.034,0.146,0.035,4.2,16.1,38.5,559,709,0,,,,
R,,3250903.0,0.012,0.194,-0.09,-3.4,2.6,39.8,568,713,0,,,,
R,,3250962.0,-0.041,0.262,-0.055,5.2,0.0,44.3,534,699,0,,,,
R,,3251023.0,-0.147,0.241,0.011,2.8,-0.5,21.4,511,707,0,,,,
R,,3251083.0,-0.135,0.278,0.009,0.4,3.2,-16.4,618,743,0,,,,
R,,3251143.0,0.116,0.243,-0.089,28.4,-3.4,12.6,733,830,0,,,,
R,,3251203.0,0.02,0.01,-0.075,7.8,14.1,-17.9,761,860,0,,,,
R,,3251263.0,0.02,0.088,-0.049,-10.6,-8.9,-15.9,786,888,0,,,,
R,,3251325.0,0.038,0.144,0.009,-0.5,-3.9,-7.9,795,895,0,,,,
R,,3251383.0,0.029,0.12,-0.084,-4.5,-8.2,-4.9,796,898,0,,,,
R,,3251443.0,0.03,0.12,-0.03,-1.1,1.2,-7.8,797,902,0,,,,
R,,3251502.0,0.006,0.108,-0.036,-1.4,0.3,-6.8,798,905,0,,,,
R,,3251563.0,0.0,0.118,-0.032,-0.9,-0.8,-8.8,793,907,0,,,,
R,,3251623.0,-0.004,0.122,-0.062,-2.1,-4.7,-6.5,774,906,0,,,,
R,,3251713.0,-0.002,0.15,-0.041,-5.3,-6.9,-10.4,628,908,0,,,,
R,,3251773.0,0.001,0.183,-0.043,-7.9,-7.8,-9.9,593,905,0,,,,
R,,3251833.0,0.09,0.198,-0.039,-11.8,-11.1,-17.8,216,914,0,,,,
R,,3251892.0,-0.061,0.233,-0.051,-4.8,0.4,-21.6,204,903,0,,,,
R,,3251953.0,0.01,0.029,-0.021,4.1,4.1,-18.0,585,707,0,,,,
R,,3252014.0,0.128,0.101,-0.016,-3.9,-12.8,22.7,502,673,0,,,,
R,,3252073.0,0.04,-0.018,-0.13,-3.8,22.9,31.6,504,665,0,,,,
R,,3252133.0,0.021,0.152,0.03,7.5,13.9,35.4,548,698,0,,,,
R,,3252193.0,0.008,0.213,-0.101,-0.8,14.4,41.2,576,719,0,,,,
R,,3252252.0,-0.051,0.243,-0.074,7.6,4.9,43.6,530,702,0,,,,
R,,3252313.0,-0.168,0.226,-0.022,1.9,17.0,17.7,514,707,0,,,,
R,,3252373.0,-0.154,0.266,0.055,-3.4,-8.4,-17.1,534,736,0,,,,
R,,3252463.0,-0.033,0.207,-0.05,18.3,0.5,-35.9,743,841,0,,,,
R,,3252523.0,0.0,0.154,-0.133,4.1,-5.4,-0.7,772,876,0,,,,
R,,3252583.0,0.036,0.093,-0.009,-6.5,-8.9,-2.0,791,893,0,,,,
R,,3252643.0,0.008,0.096,-0.079,-0.7,7.6,-8.4,796,898,0,,,,
R,,3252703.0,0.038,0.127,0.017,-3.1,-7.7,-6.2,799,905,0,,,,
R,,3252764.0,0.014,0.111,-0.056,-1.8,-1.3,-8.7,794,908,0,,,,
R,,3252823.0,0.0,0.127,-0.04,-1.1,0.5,-7.1,786,906,0,,,,
R,,3252883.0,-0.003,0.117,-0.034,0.2,0.1,-7.1,743,909,0,,,,
R,,3252943.0,-0.003,0.131,-0.033,-1.2,-2.0,-8.8,657,910,0,,,,
R,,3253003.0,-0.013,0.159,-0.041,-6.6,-3.7,-8.5,632,908,0,,,,
R,,3253063.0,0.011,0.186,-0.016,-8.7,-8.9,-9.8,584,904,0,,,,
R,,3253123.0,0.089,0.195,-0.033,-10.2,-7.8,-17.9,195,915,0,,,,
R,,3253182.0,-0.022,0.257,-0.063,-12.9,5.5,-22.3,206,898,0,,,,
R,,3253243.0,0.004,0.037,-0.061,2.9,10.3,-12.7,584,693,0,,,,
R,,3253303.0,0.108,0.084,0.01,-5.1,-10.2,15.5,528,684,0,,,,
R,,3253363.0,0.043,0.01,-0.134,-2.0,17.1,30.3,519,674,0,,,,
R,,3253424.0,0.034,0.142,-0.012,3.7,24.3,36.8,552,702,0,,,,
R,,3253483.0,0.022,0.2,-0.109,-2.1,18.4,38.7,586,722,0,,,,
R,,3253542.0,-0.078,0.263,-0.094,2.0,1.3,48.1,520,698,0,,,,
R,,3253603.0,-0.213,0.226,-0.033,3.7,14.6,19.7,500,703,0,,,,
R,,3253663.0,0.157,0.266,0.029,-1.9,-1.2,-31.9,678,786,0,,,,
R,,3253723.0,0.093,0.358,0.005,18.1,6.5,-3.2,733,829,0,,,,
R,,3253783.0,0.043,0.062,-0.121,10.4,7.1,-4.6,764,863,0,,,,
R,,3253873.0,0.037,0.142,0.004,-4.1,-11.2,-0.1,790,891,0,,,,
R,,3253933.0,0.028,0.104,-0.098,-2.0,2.0,-4.7,793,897,0,,,,
R,,3253993.0,0.026,0.12,-0.001,-1.1,-3.2,-7.1,788,898,0,,,,
R,,3254053.0,0.012,0.105,-0.052,-1.2,0.8,-9.3,763,904,0,,,,
R,,3254113.0,-0.002,0.127,-0.033,-1.4,-4.0,-7.0,712,906,0,,,,
R,,3254174.0,-0.008,0.121,-0.051,-0.5,3.2,-6.1,694,909,0,,,,
R,,3254263.0,-0.012,0.147,-0.045,-2.6,-1.9,-7.7,622,907,0,,,,
R,,3254323.0,-0.001,0.167,-0.043,-6.6,-6.2,-10.8,583,909,0,,,,
R,,3254383.0,0.091,0.216,-0.012,-11.0,-10.9,-18.6,237,913,0,,,,
R,,3254443.0,-0.044,0.233,-0.026,-9.7,0.0,-21.4,183,907,0,,,,
R,,3254503.0,0.08,-0.033,-0.031,2.9,11.4,-38.4,578,730,0,,,,
R,,3254563.0,0.174,0.023,-0.134,-6.6,-0.8,22.6,537,696,0,,,,
R,,3254623.0,0.019,-0.019,-0.13,-1.1,27.5,22.7,498,658,0,,,,
R,,3254683.0,0.037,0.16,0.05,1.1,1.0,42.8,541,695,0,,,,
R,,3254743.0,0.006,0.177,-0.199,-0.1,17.7,42.5,561,709,0,,,,
R,,3254803.0,-0.039,0.213,-0.07,18.6,12.0,39.3,563,718,0,,,,
R,,3254863.0,-0.123,0.232,0.012,5.8,20.8,14.4,536,709,0,,,,
R,,3254924.0,-0.141,0.278,0.044,-2.8,-13.2,-14.6,567,741,0,,,,
R,,3254983.0,-0.008,0.018,-0.032,-2.2,32.5,7.3,724,821,0,,,,
R,,3255043.0,0.01,0.065,0.0,-8.1,-0.7,-20.3,747,848,0,,,,
R,,3255103.0,0.014,0.136,-0.034,-14.7,-11.1,-15.9,784,885,0,,,,
R,,3255163.0,0.03,0.167,-0.003,3.9,2.2,-4.6,796,901,0,,,,
R,,3255223.0,0.022,0.107,-0.068,-1.0,-2.5,-2.8,795,901,0,,,,
R,,3255283.0,0.017,0.113,-0.004,0.4,3.9,-7.5,795,904,0,,,,
R,,3255343.0,0.008,0.125,-0.025,-1.9,-3.9,-6.8,785,904,0,,,,
R,,3255403.0,0.001,0.129,-0.039,-1.2,-3.3,-4.3,755,906,0,,,,
R,,3255463.0,0.003,0.134,-0.029,-1.5,-2.9,-5.2,674,906,0,,,,
R,,3255523.0,0.006,0.145,-0.007,-4.6,-2.8,-9.4,657,909,0,,,,
R,,3255584.0,0.005,0.169,-0.022,-8.5,-5.5,-10.9,629,902,0,,,,
R,,3255643.0,0.073,0.203,-0.006,-11.5,-7.6,-14.8,313,902,0,,,,
R,,3255703.0,0.032,0.229,-0.034,-11.6,1.8,-21.7,153,905,0,,,,
R,,3255762.0,0.068,0.045,-0.065,7.2,15.7,-36.0,504,712,0,,,,
R,,3255853.0,0.04,0.027,0.024,-7.7,15.9,5.8,510,677,0,,,,
R,,3255913.0,0.029,0.057,-0.095,-9.4,0.4,33.0,527,686,0,,,,
R,,3255973.0,0.017,0.143,-0.103,-0.8,20.5,39.5,567,704,0,,,,
R,,3256033.0,0.016,0.198,-0.091,3.9,14.8,40.0,576,707,0,,,,
R,,3256093.0,-0.057,0.281,-0.044,0.3,8.7,37.5,496,684,0,,,,
R,,3256153.0,-0.209,0.221,-0.078,3.7,12.4,14.0,500,710,0,,,,
R,,3256213.0,0.315,0.2,-0.013,3.9,5.8,-31.8,680,788,0,,,,
R,,3256273.0,0.136,0.386,0.041,30.8,29.6,-15.8,736,834,0,,,,
R,,3256334.0,-0.037,0.115,-0.158,5.0,-13.0,6.3,778,879,0,,,,
R,,3256393.0,0.045,0.065,0.003,-9.0,-4.3,-8.3,791,893,0,,,,
R,,3256453.0,0.017,0.115,-0.071,0.8,8.2,-12.1,793,899,0,,,,
R,,3256513.0,0.045,0.138,0.016,-1.6,-9.4,-9.1,792,902,0,,,,
R,,3256573.0,-0.01,0.12,-0.068,-1.0,0.4,-6.7,753,904,0,,,,
R,,3256633.0,0.01,0.127,-0.011,0.5,-3.3,-5.3,678,907,0,,,,
R,,3256693.0,-0.015,0.111,-0.043,-1.1,0.9,-8.4,636,908,0,,,,
R,,3256753.0,0.002,0.139,-0.035,-2.3,-6.5,-7.9,572,908,0,,,,
R,,3256813.0,-0.01,0.148,-0.043,-4.1,-2.4,-9.3,490,913,0,,,,
R,,3256874.0,0.032,0.195,-0.017,-8.6,-10.4,-13.8,281,914,0,,,,
R,,3256933.0,0.082,0.203,0.002,-8.7,-4.7,-23.4,136,912,0,,,,
R,,3256993.0,0.142,0.237,-0.106,-1.1,5.9,-39.3,204,851,0,,,,
R,,3257054.0,-0.077,-0.095,-0.111,-12.8,17.5,1.6,574,701,0,,,,
R,,3257113.0,0.015,-0.032,0.012,-2.4,14.3,9.2,506,669,0,,,,
R,,3257173.0,0.036,0.083,-0.044,-1.9,-12.3,36.3,524,677,0,,,,
R,,3257233.0,0.021,0.161,-0.087,-1.2,29.0,39.4,565,702,0,,,,
R,,3257293.0,0.01,0.192,-0.101,7.5,10.0,37.7,570,713,0,,,,
R,,3257353.0,-0.048,0.306,-0.023,-3.8,6.8,32.9,502,700,0,,,,
R,,3257414.0,-0.236,0.213,-0.171,6.7,-3.0,18.4,493,713,0,,,,
R,,3257473.0,0.374,0.168,0.017,22.0,3.1,-42.4,703,802,0,,,,
R,,3257533.0,-0.025,0.203,-0.057,12.4,2.1,-31.7,740,839,0,,,,
R,,3257592.0,0.011,0.148,-0.126,10.6,1.6,-3.6,767,867,0,,,,
R,,3257653.0,0.017,0.085,0.0,-5.0,-7.2,-1.8,785,886,0,,,,
R,,3257714.0,0.046,0.089,-0.068,2.0,7.4,-10.3,792,893,0,,,,
R,,3257773.0,0.037,0.126,-0.008,-4.8,-9.1,-8.5,794,899,0,,,,
R,,3257833.0,-0.01,0.109,-0.054,0.3,4.8,-8.1,792,903,0,,,,
R,,3257893.0,0.002,0.116,-0.032,-1.8,-3.7,-7.1,776,908,0,,,,
R,,3257953.0,-0.002,0.128,-0.046,-1.4,-2.2,-7.0,675,905,0,,,,
R,,3258013.0,-0.005,0.129,-0.03,-1.5,0.3,-9.7,619,908,0,,,,
R,,3258073.0,-0.002,0.154,-0.019,-3.9,-7.6,-9.3,587,907,0,,,,
R,,3258164.0,0.042,0.198,-0.047,-8.8,-9.5,-15.2,252,910,0,,,,
R,,3258223.0,0.012,0.21,-0.047,-1.3,-5.1,-25.1,161,900,0,,,,
R,,3258283.0,0.074,0.096,-0.04,5.9,-4.5,-38.5,492,697,0,,,,
R,,3258343.0,0.166,0.088,-0.07,-2.5,-2.5,12.3,547,693,0,,,,
R,,3258402.0,0.053,0.0,-0.053,1.2,21.5,30.5,521,681,0,,,,
R,,3258464.0,0.024,0.135,0.047,5.8,12.2,34.7,559,700,0,,,,
R,,3258523.0,-0.013,0.191,-0.105,1.1,13.4,38.8,579,714,0,,,,
R,,3258583.0,-0.039,0.206,-0.02,8.5,0.2,40.6,590,725,0,,,,
R,,3258643.0,-0.059,0.239,0.021,0.3,-9.4,27.4,548,711,0,,,,
R,,3258704.0,-0.178,0.242,0.001,-1.9,-12.0,5.9,544,723,0,,,,
R,,3258763.0,-0.12,-0.058,-0.146,33.0,-1.1,-28.1,715,811,0,,,,
R,,3258823.0,0.018,0.184,0.105,-6.9,7.5,-40.2,750,845,0,,,,
R,,3258882.0,-0.007,0.163,-0.112,-6.1,-12.4,-4.7,772,871,0,,,,
R,,3258943.0,0.024,0.11,-0.053,-4.9,-11.3,6.5,787,889,0,,,,
R,,3259003.0,0.03,0.08,-0.09,-4.7,7.5,-7.4,794,897,0,,,,
R,,3259063.0,0.027,0.112,0.004,-3.4,-2.6,-8.9,797,904,0,,,,
R,,3259124.0,0.004,0.122,-0.045,-2.1,-5.6,-9.1,792,905,0,,,,
R,,3259185.0,-0.005,0.12,-0.066,-0.7,-2.8,-5.9,755,907,0,,,,
R,,3259243.0,-0.008,0.124,-0.022,-2.1,-1.7,-5.6,687,906,0,,,,
R,,3259303.0,0.006,0.131,-0.03,-1.0,-4.9,-8.7,640,907,0,,,,
R,,3259363.0,-0.011,0.136,-0.057,-5.1,-6.9,-10.2,593,909,0,,,,
R,,3259423.0,0.008,0.185,-0.05,-8.7,-10.6,-11.1,476,907,0,,,,
R,,3259483.0,0.061,0.195,-0.015,-5.6,-8.8,-21.0,185,910,0,,,,
R,,3259543.0,0.076,0.235,-0.115,-4.3,-1.2,-29.4,211,870,0,,,,
R,,3259603.0,-0.018,-0.018,-0.044,-6.4,4.7,-3.1,606,724,0,,,,
R,,3259664.0,0.012,-0.043,-0.005,-0.3,18.6,5.3,522,676,0,,,,
R,,3259723.0,0.029,0.081,-0.024,-0.2,-6.1,29.1,530,685,0,,,,
R,,3259783.0,0.006,0.145,-0.055,-5.3,17.1,36.8,574,708,0,,,,
R,,3259845.0,0.024,0.183,-0.082,0.9,8.1,36.4,586,719,0,,,,
R,,3259903.0,-0.05,0.259,-0.027,2.6,13.0,38.5,549,706,0,,,,
R,,3259963.0,-0.129,0.192,-0.041,2.4,24.6,13.3,523,703,0,,,,
R,,3260023.0,-0.123,0.286,-0.02,0.7,-8.4,-13.2,673,782,0,,,,
R,,3260083.0,0.096,0.141,-0.089,23.1,22.4,-3.5,738,837,0,,,,
R,,3260143.0,-0.062,0.086,-0.084,0.2,1.7,-14.5,770,872,0,,,,
R,,3260245.0,0.013,0.122,-0.029,2.1,-7.3,-4.7,792,894,0,,,,
R,,3260263.0,0.027,0.13,0.0,1.9,-4.2,-6.5,791,897,0,,,,
R,,3260323.0,0.01,0.104,-0.05,2.5,3.8,-6.7,793,903,0,,,,
R,,3260383.0,-0.001,0.122,-0.033,1.0,0.0,-6.5,791,906,0,,,,
R,,3260443.0,-0.014,0.104,-0.048,-0.3,3.2,-1.7,791,906,0,,,,
R,,3260503.0,0.029,0.136,-0.009,0.3,-1.6,-4.2,798,905,0,,,,
R,,3260565.0,-0.003,0.129,-0.045,-0.8,-5.0,-3.4,800,909,0,,,,
R,,3260624.0,0.022,0.13,-0.044,-2.0,-7.7,-6.6,792,905,0,,,,
R,,3260683.0,-0.014,0.146,-0.033,1.0,-4.1,-8.8,677,909,0,,,,
R,,3260744.0,-0.004,0.144,-0.034,-3.7,-8.3,-9.9,621,907,0,,,,
R,,3260803.0,0.01,0.171,-0.022,-5.5,-3.5,-15.1,484,904,0,,,,
R,,3260863.0,0.04,0.179,0.007,-9.2,-10.4,-14.0,216,912,0,,,,
R,,3260923.0,-0.035,0.213,-0.023,-8.1,7.7,-18.8,209,904,0,,,,
R,,3260983.0,0.02,0.073,-0.06,-26.2,18.8,-35.8,559,660,0,,,,
R,,3261043.0,0.187,0.179,-0.002,10.5,-25.9,37.4,471,648,0,,,,
R,,3261103.0,0.047,-0.057,-0.215,-8.2,26.6,29.1,478,644,0,,,,
R,,3261164.0,0.016,0.145,0.05,0.0,11.7,32.4,536,691,0,,,,
R,,3261225.0,0.025,0.243,-0.085,2.2,2.6,43.1,570,712,0,,,,
R,,3261313.0,-0.08,0.282,0.021,1.9,5.8,23.7,523,692,0,,,,
R,,3261374.0,-0.201,0.261,-0.116,3.2,-5.6,4.5,517,710,0,,,,
R,,3261433.0,0.305,0.148,-0.036,19.6,-27.3,-30.7,694,796,0,,,,
R,,3261494.0,-0.048,0.16,-0.118,32.9,9.1,-31.8,741,839,0,,,,
R,,3261553.0,0.006,0.161,-0.045,5.3,-10.6,-8.0,772,871,0,,,,
R,,3261613.0,0.052,0.106,-0.042,1.1,-2.6,-7.4,785,888,0,,,,
R,,3261673.0,-0.007,0.093,-0.044,1.6,6.8,-6.6,796,900,0,,,,
R,,3261733.0,0.015,0.109,-0.011,-0.9,-1.9,-11.2,794,903,0,,,,
R,,3261793.0,-0.005,0.128,-0.044,-0.1,-2.5,-6.4,749,908,0,,,,
R,,3261853.0,0.002,0.132,-0.026,-0.1,-2.6,-3.5,676,906,0,,,,
R,,3261914.0,-0.012,0.118,-0.035,-1.6,-6.8,-3.7,660,905,0,,,,
R,,3261975.0,0.0,0.123,-0.034,-2.6,-3.8,-8.2,621,908,0,,,,
R,,3262034.0,-0.009,0.166,-0.04,-3.7,-3.2,-11.2,610,905,0,,,,
R,,3262093.0,0.037,0.214,-0.014,-9.0,-12.2,-12.1,444,908,0,,,,
R,,3262153.0,0.054,0.193,-0.033,-4.8,-6.4,-20.0,130,909,0,,,,
R,,3262213.0,0.149,0.153,-0.039,-1.0,3.0,-43.6,410,819,0,,,,
R,,3262273.0,0.002,-0.072,-0.185,-5.0,9.5,8.8,549,692,0,,,,
R,,3262363.0,0.046,0.02,-0.176,-4.9,24.2,35.1,472,653,0,,,,
R,,3262423.0,0.05,0.166,0.014,-5.7,36.3,29.2,529,687,0,,,,
R,,3262483.0,-0.011,0.183,-0.234,-4.6,15.7,37.8,562,706,0,,,,
R,,3262543.0,-0.099,0.249,-0.114,7.4,12.4,42.6,506,686,0,,,,
R,,3262603.0,-0.195,0.192,-0.051,5.2,13.4,16.9,501,717,0,,,,
R,,3262664.0,0.172,0.277,0.074,-0.3,0.0,-29.2,678,787,0,,,,
R,,3262725.0,0.096,0.291,-0.011,30.1,31.4,-16.3,736,835,0,,,,
R,,3262784.0,-0.043,0.104,-0.129,1.5,-5.2,-4.0,771,873,0,,,,
R,,3262843.0,0.048,0.079,0.001,-4.1,3.3,-11.1,794,900,0,,,,
R,,3262933.0,0.019,0.09,-0.074,-0.9,-3.9,-5.0,790,904,0,,,,
R,,3262994.0,0.008,0.117,-0.016,-0.8,3.1,-9.5,760,905,0,,,,
R,,3263053.0,0.003,0.127,-0.038,-0.7,-1.7,-7.5,700,910,0,,,,
R,,3263143.0,-0.008,0.122,-0.031,-2.0,0.6,-7.3,685,905,0,,,,
R,,3263204.0,0.006,0.144,-0.004,-4.5,-5.8,-8.0,667,902,0,,,,
R,,3263263.0,-0.008,0.153,-0.05,-5.8,-1.8,-9.1,679,901,0,,,,
R,,3263324.0,0.03,0.196,-0.019,-9.8,-8.7,-10.3,519,902,0,,,,
R,,3263414.0,-0.044,0.266,-0.039,-11.2,6.1,-19.8,175,904,0,,,,
R,,3263475.0,0.02,0.006,-0.019,0.0,18.9,-21.6,550,665,0,,,,
R,,3263534.0,0.109,0.07,-0.024,-6.8,-7.2,12.4,499,658,0,,,,
R,,3263593.0,0.035,0.009,-0.131,-8.0,20.7,29.7,481,654,0,,,,
R,,3263653.0,0.035,0.146,-0.027,1.7,23.8,40.6,532,682,0,,,,
R,,3263713.0,0.0,0.189,-0.147,-4.3,14.2,39.8,564,702,0,,,,
R,,3263773.0,-0.087,0.235,-0.094,9.3,1.8,46.2,512,688,0,,,,
R,,3263833.0,-0.158,0.22,-0.007,2.5,7.1,19.3,499,692,0,,,,
R,,3263923.0,0.225,0.115,0.015,25.7,-14.0,-52.9,700,804,0,,,,
R,,3263983.0,-0.07,0.231,-0.049,19.8,8.1,-31.9,746,843,0,,,,
R,,3264043.0,0.001,0.147,-0.086,-2.5,-12.3,2.5,777,879,0,,,,
R,,3264103.0,0.051,0.102,-0.004,-3.2,-5.3,-0.6,787,887,0,,,,
R,,3264164.0,0.012,0.091,-0.102,-3.8,1.6,-5.9,790,891,0,,,,
R,,3264225.0,0.029,0.13,-0.001,-5.2,-6.3,-4.6,792,893,0,,,,
R,,3264313.0,0.022,0.109,-0.052,-1.6,-0.9,-8.9,792,897,0,,,,
R,,3264374.0,-0.001,0.12,-0.031,0.0,4.1,-9.8,794,903,0,,,,
R,,3264463.0,0.001,0.123,-0.024,-0.6,-5.1,-6.7,674,903,0,,,,
R,,3264523.0,-0.008,0.154,-0.04,-3.3,-5.2,-10.7,606,908,0,,,,
R,,3264583.0,0.024,0.188,-0.032,-7.5,-9.0,-11.8,472,908,0,,,,
R,,3264643.0,0.086,0.197,-0.046,-6.8,-4.9,-22.8,194,909,0,,,,
R,,3264733.0,0.086,0.048,-0.02,-0.4,-1.6,-39.7,500,686,0,,,,
R,,3264824.0,0.045,-0.046,0.071,-6.9,-2.1,11.9,515,667,0,,,,
R,,3264883.0,0.034,0.089,-0.074,-1.0,6.4,36.0,524,688,0,,,,
R,,3264943.0,0.029,0.188,-0.091,4.6,27.7,41.0,548,697,0,,,,
R,,3265003.0,-0.018,0.207,-0.135,5.2,12.5,39.6,546,708,0,,,,
R,,3265065.0,-0.093,0.279,-0.016,-1.5,-12.2,33.7,477,696,0,,,,
R,,3265123.0,-0.206,0.265,-0.049,10.4,-9.3,3.6,487,724,0,,,,
R,,3265183.0,-0.218,-0.069,0.102,23.3,10.4,-35.0,714,812,0,,,,
R,,3265244.0,0.016,0.149,-0.049,3.9,17.1,-51.7,763,862,0,,,,
R,,3265303.0,0.003,0.153,-0.083,-6.5,-8.2,-9.4,784,884,0,,,,
R,,3265364.0,0.031,0.13,-0.016,1.0,-1.0,-2.8,792,892,0,,,,
R,,3265423.0,0.032,0.093,-0.066,-5.4,-9.6,-6.3,798,903,0,,,,
R,,3265513.0,0.002,0.106,-0.062,-2.5,-5.7,-5.8,789,906,0,,,,
R,,3265574.0,0.007,0.122,-0.049,-1.9,-4.0,-5.1,754,907,0,,,,
R,,3265633.0,-0.015,0.107,-0.06,-2.2,-3.7,-4.0,661,910,0,,,,
R,,3265694.0,0.002,0.139,-0.025,-1.1,-1.5,-5.9,623,910,0,,,,
R,,3265755.0,0.003,0.161,-0.041,-3.8,-7.7,-8.6,578,909,0,,,,
R,,3265813.0,0.018,0.183,-0.044,-8.9,-11.2,-12.1,435,910,0,,,,
R,,3265874.0,0.08,0.202,-0.038,-8.0,-5.9,-20.5,187,912,0,,,,
R,,3265932.0,0.092,0.266,-0.126,-3.2,1.3,-30.1,211,888,0,,,,
R,,3265994.0,-0.052,-0.039,-0.015,2.6,6.1,-6.8,581,697,0,,,,
R,,3266053.0,0.05,0.03,0.056,-10.8,-12.4,19.3,487,658,0,,,,
R,,3266114.0,0.047,0.049,-0.129,1.8,10.0,40.9,489,663,0,,,,
R,,3266173.0,0.031,0.183,-0.005,3.8,24.2,37.4,535,692,0,,,,
R,,3266234.0,-0.007,0.214,-0.143,0.0,14.6,39.1,550,705,0,,,,
R,,3266293.0,-0.066,0.302,0.004,2.3,-4.3,38.0,487,691,0,,,,
R,,3266383.0,-0.142,0.25,0.079,-2.7,-7.0,-19.8,552,740,0,,,,
R,,3266444.0,0.063,0.121,-0.084,10.9,-4.3,25.8,719,818,0,,,,
R,,3266505.0,0.0,-0.003,-0.058,-0.4,11.5,-20.4,751,852,0,,,,
R,,3266593.0,0.033,0.076,-0.024,-4.3,-5.7,0.5,788,889,0,,,,
R,,3266654.0,0.019,0.088,-0.059,-1.6,5.4,-8.9,791,897,0,,,,
R,,3266713.0,0.025,0.124,-0.007,-5.0,-9.3,-5.4,793,900,0,,,,
R,,3266773.0,0.019,0.124,-0.052,-2.6,-2.7,-6.8,776,902,0,,,,
R,,3266833.0,0.001,0.107,-0.045,-0.1,-1.4,-6.4,711,905,0,,,,
R,,3266893.0,0.001,0.127,-0.024,-0.6,-2.0,-8.0,653,908,0,,,,
R,,3266954.0,-0.006,0.129,-0.04,-2.3,-1.3,-9.9,613,908,0,,,,
R,,3267013.0,-0.001,0.163,-0.033,-4.0,-6.8,-9.5,541,910,0,,,,
R,,3267074.0,0.029,0.199,-0.034,-9.5,-10.4,-12.2,375,911,0,,,,
R,,3267133.0,0.085,0.194,-0.003,-10.9,-9.0,-22.9,193,914,0,,,,
R,,3267194.0,0.145,0.262,-0.133,-2.5,10.3,-38.6,216,867,0,,,,
R,,3267255.0,-0.104,-0.112,-0.059,-16.2,19.1,-6.4,583,703,0,,,,
R,,3267313.0,0.029,0.036,0.043,-7.4,2.9,13.3,479,652,0,,,,
R,,3267374.0,0.046,0.087,-0.092,-2.7,-10.2,41.2,477,670,0,,,,
R,,3267433.0,0.018,0.158,-0.095,-2.1,31.4,35.3,532,696,0,,,,
R,,3267494.0,0.0,0.201,-0.098,6.4,10.3,34.5,554,709,0,,,,
R,,3267553.0,-0.068,0.295,-0.029,-6.2,7.5,31.6,490,701,0,,,,
R,,3267643.0,0.019,0.319,0.007,-1.8,-21.3,-15.9,664,772,0,,,,
R,,3267703.0,0.104,0.222,-0.012,24.1,18.5,-2.5,733,830,0,,,,
R,,3267763.0,0.006,0.044,-0.102,3.2,6.0,-15.4,763,859,0,,,,
R,,3267824.0,0.013,0.117,-0.013,-9.4,-10.3,-9.2,784,886,0,,,,
R,,3267883.0,0.048,0.136,-0.028,4.4,6.5,-8.8,792,895,0,,,,
R,,3267945.0,0.044,0.116,-0.028,-3.5,-8.0,-7.5,792,902,0,,,,
R,,3268003.0,0.002,0.125,-0.046,-0.8,4.8,-11.2,772,906,0,,,,
R,,3268063.0,0.0,0.124,-0.03,-0.6,-0.6,-6.8,672,906,0,,,,
R,,3268124.0,-0.008,0.119,-0.035,-1.4,0.4,-6.8,654,907,0,,,,
R,,3268183.0,-0.005,0.14,-0.016,-3.4,-4.2,-5.7,635,906,0,,,,
R,,3268244.0,0.0,0.147,-0.011,-3.4,-1.0,-9.6,619,905,0,,,,
R,,3268303.0,0.01,0.189,-0.035,-9.5,-10.2,-9.7,607,901,0,,,,
R,,3268364.0,0.1,0.204,-0.02,-10.0,-2.7,-21.5,150,911,0,,,,
R,,3268423.0,0.1,0.287,-0.135,-8.8,7.5,-27.5,180,881,0,,,,
R,,3268513.0,0.186,0.055,-0.138,-8.4,3.9,14.0,550,691,0,,,,
R,,3268574.0,0.059,0.014,-0.093,-6.6,31.2,26.1,487,656,0,,,,
R,,3268664.0,0.043,0.174,-0.11,-5.9,33.5,38.0,554,693,0,,,,
R,,3268725.0,-0.014,0.185,-0.174,6.1,6.4,35.8,561,708,0,,,,
R,,3268784.0,-0.048,0.297,-0.045,0.2,-2.4,40.1,499,690,0,,,,
R,,3268843.0,-0.2,0.185,-0.149,10.6,13.9,14.1,491,700,0,,,,
R,,3268904.0,-0.037,0.235,0.115,3.0,9.0,-27.8,654,767,0,,,,
R,,3268963.0,0.154,0.339,0.018,36.0,45.7,-9.5,724,823,0,,,,
R,,3269024.0,-0.033,0.034,-0.154,-1.3,-2.8,-2.6,760,861,0,,,,
R,,3269083.0,0.037,0.098,0.042,-10.4,-2.9,-17.7,787,888,0,,,,
R,,3269143.0,0.028,0.144,-0.027,4.6,7.6,-13.4,792,893,0,,,,
R,,3269204.0,0.033,0.143,-0.022,-5.1,-15.9,-2.5,796,903,0,,,,
R,,3269263.0,0.005,0.102,-0.068,-1.2,8.6,-9.4,792,906,0,,,,
R,,3269324.0,0.001,0.119,-0.001,0.2,-1.9,-8.0,709,909,0,,,,
R,,3269385.0,-0.006,0.129,-0.013,-0.7,-5.9,-6.6,645,909,0,,,,
R,,3269444.0,-0.006,0.131,-0.064,-3.8,-4.3,-6.7,602,909,0,,,,
R,,3269503.0,0.0,0.146,-0.01,-3.3,-3.9,-9.1,548,913,0,,,,
R,,3269564.0,0.019,0.19,-0.029,-7.7,-8.3,-12.2,376,908,0,,,,
R,,3269624.0,0.085,0.205,-0.026,-9.3,-6.5,-21.4,138,914,0,,,,
R,,3269713.0,0.089,0.037,-0.037,5.4,9.6,-46.9,505,737,0,,,,
R,,3269774.0,0.139,-0.018,-0.146,-2.3,4.8,18.6,523,683,0,,,,
R,,3269833.0,0.021,-0.003,-0.059,1.3,32.6,17.5,460,647,0,,,,
R,,3269893.0,0.022,0.165,0.037,-2.0,-1.9,42.4,515,680,0,,,,
R,,3269954.0,0.001,0.182,-0.21,-0.4,28.1,40.5,553,705,0,,,,
R,,3270013.0,-0.033,0.199,-0.073,15.2,13.1,36.7,550,702,0,,,,
R,,3270074.0,-0.093,0.241,-0.006,-0.5,0.2,22.1,483,688,0,,,,
R,,3270135.0,-0.184,0.284,-0.019,7.2,-16.8,-0.5,513,725,0,,,,
R,,3270194.0,-0.146,0.051,0.16,13.0,2.4,-30.1,709,805,0,,,,
R,,3270253.0,-0.042,0.141,-0.074,23.0,2.9,-33.0,748,846,0,,,,
R,,3270314.0,0.005,0.174,-0.035,-15.0,-20.8,-10.4,785,882,0,,,,
R,,3270374.0,0.032,0.148,0.013,0.8,-5.2,-2.8,793,896,0,,,,
R,,3270433.0,0.008,0.097,-0.093,-3.6,-5.6,-3.2,791,899,0,,,,
R,,3270494.0,0.017,0.118,-0.009,0.2,2.2,-6.5,781,904,0,,,,
R,,3270553.0,-0.003,0.126,-0.029,-0.5,-1.6,-5.1,751,905,0,,,,
R,,3270614.0,0.007,0.129,-0.017,-0.9,-4.8,-4.9,668,907,0,,,,
R,,3270673.0,-0.003,0.126,-0.048,-3.0,-2.5,-6.1,634,907,0,,,,
R,,3270763.0,-0.004,0.159,-0.039,-3.9,-1.4,-10.8,546,910,0,,,,
R,,3270823.0,0.031,0.196,-0.023,-9.5,-7.9,-12.8,414,910,0,,,,
R,,3270885.0,0.088,0.197,-0.024,-8.7,0.4,-25.2,146,911,0,,,,
R,,3270944.0,0.143,0.264,-0.113,-3.1,4.9,-39.1,195,870,0,,,,
R,,3271003.0,-0.155,-0.091,-0.084,-13.7,15.0,-8.7,585,706,0,,,,
R,,3271064.0,0.018,0.039,0.065,-8.1,6.3,13.8,507,668,0,,,,
R,,3271124.0,0.049,0.049,-0.122,-2.3,-6.4,37.1,493,666,0,,,,
R,,3271183.0,0.021,0.153,-0.093,-3.2,31.2,30.8,543,697,0,,,,
R,,3271244.0,0.007,0.196,-0.097,3.7,16.1,36.2,563,707,0,,,,
R,,3271303.0,-0.057,0.288,-0.059,-2.4,0.8,42.2,475,682,0,,,,
R,,3271364.0,-0.223,0.223,-0.072,7.3,9.1,12.1,500,723,0,,,,
R,,3271423.0,0.394,0.178,-0.002,21.0,-14.9,-49.5,708,808,0,,,,
R,,3271484.0,-0.038,0.228,-0.066,18.0,16.4,-35.0,747,845,0,,,,
R,,3271545.0,-0.065,0.17,-0.081,-6.0,-10.6,4.7,784,884,0,,,,
R,,3271604.0,0.074,0.09,0.03,-1.6,-7.5,-1.8,792,895,0,,,,
R,,3271664.0,-0.001,0.078,-0.155,-9.8,-4.8,-8.2,794,900,0,,,,
R,,3271723.0,0.034,0.137,0.023,-0.4,3.7,-9.5,796,904,0,,,,
R,,3271784.0,-0.008,0.109,-0.038,0.2,-3.9,-5.6,792,905,0,,,,
R,,3271843.0,0.004,0.115,-0.043,-0.3,0.1,-7.8,773,907,0,,,,
R,,3271904.0,-0.01,0.131,-0.052,-0.8,-4.0,-6.0,677,908,0,,,,
R,,3271963.0,0.01,0.148,-0.019,-2.9,-3.6,-8.7,610,907,0,,,,
R,,3272024.0,-0.003,0.163,-0.042,-5.0,-5.1,-11.7,576,907,0,,,,
R,,3272083.0,0.041,0.2,-0.031,-8.6,-11.3,-14.6,364,912,0,,,,
R,,3272144.0,0.01,0.204,-0.073,-1.0,-7.2,-23.3,169,903,0,,,,
R,,3272204.0,0.062,0.092,-0.034,-3.7,-3.1,-39.1,482,730,0,,,,
R,,3272265.0,0.164,0.087,-0.058,-6.3,-3.5,11.4,523,670,0,,,,
R,,3272324.0,0.05,0.004,-0.059,1.7,20.2,30.7,525,674,0,,,,
R,,3272383.0,0.018,0.116,0.035,8.0,8.8,35.8,551,691,0,,,,
R,,3272444.0,-0.005,0.193,-0.065,-0.7,5.4,39.7,562,699,0,,,,
R,,3272503.0,-0.034,0.209,-0.061,7.5,-5.1,41.0,551,705,0,,,,
R,,3272564.0,-0.058,0.279,0.067,2.7,-1.8,27.2,522,702,0,,,,
R,,3272624.0,-0.179,0.251,-0.033,4.1,-5.0,2.5,538,716,0,,,,
R,,3272684.0,-0.057,0.028,-0.065,4.2,-13.9,4.5,727,827,0,,,,
R,,3272744.0,0.028,0.058,-0.079,8.0,14.1,-30.1,752,852,0,,,,
R,,3272803.0,0.016,0.093,-0.073,-12.8,-8.4,-14.0,778,877,0,,,,
R,,3272864.0,0.034,0.124,-0.002,-0.5,-2.1,-10.0,795,897,0,,,,
R,,3272923.0,0.017,0.132,-0.073,-3.9,-5.2,-6.8,799,903,0,,,,
R,,3272985.0,0.017,0.117,-0.044,-2.1,-0.7,-6.6,792,905,0,,,,
R,,3273043.0,-0.001,0.114,-0.05,-0.8,-2.5,-6.4,758,907,0,,,,
R,,3273104.0,-0.006,0.113,-0.032,-0.1,-3.0,-6.2,676,908,0,,,,
R,,3273164.0,-0.005,0.128,-0.016,-0.3,-4.6,-5.1,642,908,0,,,,
R,,3273224.0,-0.008,0.125,-0.051,-4.3,-5.3,-6.6,608,909,0,,,,
R,,3273284.0,-0.004,0.157,-0.058,-4.9,-8.4,-8.2,557,905,0,,,,
R,,3273343.0,0.019,0.188,-0.047,-8.9,-9.2,-12.1,393,913,0,,,,
R,,3273403.0,0.061,0.2,-0.05,-5.0,-8.2,-21.1,161,913,0,,,,
R,,3273463.0,0.127,0.25,-0.091,0.9,-5.0,-36.2,202,867,0,,,,
R,,3273524.0,-0.136,-0.056,-0.067,-8.0,2.2,2.4,585,706,0,,,,
R,,3273583.0,0.039,-0.041,0.065,-1.5,3.5,13.1,516,669,0,,,,
R,,3273645.0,0.024,0.081,-0.035,-0.8,-1.9,34.3,526,672,0,,,,
R,,3273704.0,0.003,0.173,-0.057,4.8,17.1,41.5,541,690,0,,,,
R,,3273763.0,0.001,0.19,-0.073,8.1,7.2,39.9,557,714,0,,,,
R,,3273824.0,-0.053,0.319,0.036,4.2,-4.8,36.6,511,699,0,,,,
R,,3273883.0,-0.249,0.201,-0.138,6.0,17.8,8.2,480,710,0,,,,
R,,3273944.0,-0.023,0.04,0.026,23.9,1.4,-50.7,708,807,0,,,,
R,,3274003.0,-0.008,0.222,-0.017,6.3,-5.3,-34.3,747,845,0,,,,
R,,3274064.0,-0.014,0.185,-0.082,-4.1,-5.5,-3.5,778,881,0,,,,
R,,3274124.0,0.044,0.115,-0.008,-3.9,-8.0,1.2,793,894,0,,,,
R,,3274184.0,0.019,0.089,-0.087,-2.7,0.0,-5.6,798,899,0,,,,
R,,3274244.0,0.032,0.111,-0.008,-1.6,0.6,-10.4,799,904,0,,,,
R,,3274303.0,0.001,0.121,-0.052,-3.0,-2.5,-8.1,793,906,0,,,,
R,,3274366.0,0.002,0.123,-0.032,0.1,1.2,-6.4,781,909,0,,,,
R,,3274423.0,-0.004,0.121,-0.042,-1.6,-3.3,-6.0,749,908,0,,,,
R,,3274484.0,0.012,0.128,-0.022,-2.1,-0.6,-10.0,645,910,0,,,,
R,,3274543.0,-0.006,0.171,-0.032,-6.9,-9.2,-10.8,610,910,0,,,,
R,,3274604.0,0.033,0.213,-0.035,-10.1,-8.0,-12.3,482,906,0,,,,
R,,3274664.0,0.075,0.182,-0.028,-6.3,2.1,-25.4,162,910,0,,,,
R,,3274753.0,0.051,-0.037,0.01,-3.2,10.0,-24.1,562,686,0,,,,
R,,3274814.0,0.132,0.031,-0.096,-10.7,-7.4,12.6,535,692,0,,,,
R,,3274874.0,0.016,0.009,-0.156,-4.8,23.9,27.6,515,673,0,,,,
R,,3274934.0,0.03,0.14,0.011,-1.1,15.4,39.7,529,685,0,,,,
R,,3274994.0,-0.001,0.178,-0.173,-3.7,13.3,37.9,550,701,0,,,,
R,,3275054.0,-0.05,0.219,-0.107,14.1,16.9,37.7,537,710,0,,,,
R,,3275116.0,-0.169,0.231,0.011,3.5,15.2,18.8,493,703,0,,,,
R,,3275173.0,-0.156,0.292,0.032,0.2,-18.9,-13.0,533,742,0,,,,
R,,3275233.0,0.109,0.111,-0.021,5.3,13.6,20.4,720,819,0,,,,
R,,3275293.0,-0.008,0.003,-0.055,-0.2,8.9,-21.5,755,854,0,,,,
R,,3275354.0,0.002,0.135,-0.023,-16.0,-11.2,-15.3,788,888,0,,,,
R,,3275414.0,0.04,0.155,0.012,5.1,2.3,-6.9,794,896,0,,,,
R,,3275474.0,0.023,0.104,-0.084,-4.2,-10.4,-3.0,797,900,0,,,,
R,,3275534.0,0.024,0.113,-0.032,0.5,5.3,-7.6,800,906,0,,,,
R,,3275593.0,0.0,0.113,-0.04,-1.9,0.8,-8.0,795,906,0,,,,
R,,3275654.0,0.002,0.123,-0.027,-0.9,-0.3,-6.9,777,907,0,,,,
R,,3275713.0,-0.002,0.13,-0.035,-1.5,-5.6,-6.6,696,908,0,,,,
R,,3275775.0,-0.003,0.142,-0.027,-3.9,-1.0,-8.6,642,909,0,,,,
R,,3275833.0,-0.001,0.166,-0.03,-6.8,-5.2,-12.2,632,902,0,,,,
R,,3275894.0,0.085,0.225,-0.023,-10.8,-10.8,-15.7,409,905,0,,,,
R,,3275954.0,-0.022,0.195,-0.05,-0.4,4.3,-23.1,175,905,0,,,,
R,,3276014.0,0.105,0.015,-0.01,-0.3,7.4,-43.4,519,742,0,,,,
R,,3276074.0,0.084,-0.04,-0.194,-7.0,1.2,8.0,541,688,0,,,,
R,,3276133.0,0.023,0.03,-0.038,-1.0,32.8,14.9,504,664,0,,,,
R,,3276194.0,0.016,0.135,0.0,-0.3,0.5,42.6,532,687,0,,,,
R,,3276253.0,0.009,0.168,-0.131,-0.3,17.8,39.5,560,702,0,,,,
R,,3276314.0,-0.018,0.19,-0.117,11.2,17.5,36.6,547,700,0,,,,
R,,3276374.0,-0.066,0.264,-0.034,0.5,9.0,25.4,476,696,0,,,,
R,,3276434.0,-0.214,0.283,-0.076,10.8,-13.7,3.9,522,731,0,,,,
R,,3276496.0,-0.19,-0.064,0.185,5.1,9.6,-14.3,713,812,0,,,,
R,,3276554.0,0.0,0.141,-0.065,14.6,1.7,-35.4,747,846,0,,,,
R,,3276614.0,-0.016,0.191,-0.058,-12.7,-14.6,-5.0,782,883,0,,,,
R,,3276673.0,0.057,0.143,0.032,1.2,-10.5,2.2,792,893,0,,,,
R,,3276734.0,0.016,0.085,-0.123,-5.1,-2.7,-4.1,789,896,0,,,,
R,,3276793.0,0.039,0.124,0.005,-1.2,-0.3,-8.7,785,899,0,,,,
R,,3276854.0,0.017,0.113,-0.044,-1.3,0.7,-9.8,755,902,0,,,,
R,,3276914.0,0.001,0.146,-0.008,-0.1,-2.4,-7.5,719,904,0,,,,
R,,3276974.0,-0.007,0.12,-0.06,-1.4,0.9,-5.2,673,909,0,,,,
R,,3277034.0,0.004,0.128,-0.008,-2.2,-1.4,-8.3,630,911,0,,,,
R,,3277094.0,0.0,0.172,-0.032,-5.8,-8.2,-10.4,551,910,0,,,,
R,,3277156.0,0.067,0.224,-0.024,-10.3,-13.9,-14.7,276,913,0,,,,
R,,3277213.0,0.045,0.204,-0.006,-8.6,2.1,-23.3,176,904,0,,,,
R,,3277274.0,0.151,0.105,-0.061,0.8,6.8,-46.6,312,769,0,,,,
R,,3277333.0,-0.025,-0.025,-0.145,-12.2,17.1,-2.5,567,700,0,,,,
R,,3277394.0,0.005,0.015,0.032,0.6,20.7,19.3,504,667,0,,,,
R,,3277454.0,0.019,0.077,-0.034,-3.5,-10.7,39.5,517,687,0,,,,
R,,3277514.0,0.004,0.153,-0.138,-3.3,22.0,38.4,564,708,0,,,,
R,,3277574.0,0.01,0.198,-0.099,11.3,14.8,35.3,568,717,0,,,,
R,,3277634.0,-0.04,0.29,-0.027,-5.2,7.3,27.9,492,694,0,,,,
R,,3277694.0,-0.229,0.216,-0.169,11.6,-0.4,10.1,505,729,0,,,,
R,,3277753.0,-0.001,0.096,0.137,25.8,-11.3,-42.7,705,807,0,,,,
R,,3277814.0,-0.063,0.155,-0.112,28.3,5.4,-31.9,746,843,0,,,,
R,,3277875.0,0.016,0.167,-0.064,-3.3,-11.9,-5.9,773,872,0,,,,
R,,3277934.0,0.04,0.129,0.004,2.6,-0.7,-5.4,792,892,0,,,,
R,,3278024.0,0.025,0.128,-0.033,-3.3,-5.9,-4.8,797,901,0,,,,
R,,3278083.0,0.018,0.12,-0.029,0.3,2.3,-5.5,794,903,0,,,,
R,,3278144.0,-0.003,0.118,-0.038,-0.8,-1.4,-5.3,788,906,0,,,,
R,,3278204.0,0.0,0.119,-0.027,-0.7,-1.6,-6.1,746,908,0,,,,
R,,3278264.0,-0.004,0.133,-0.026,-1.1,-4.3,-5.4,663,908,0,,,,
R,,3278324.0,-0.001,0.138,-0.028,-3.6,-2.5,-7.9,605,911,0,,,,
R,,3278384.0,0.0,0.17,-0.04,-7.0,-7.2,-9.7,504,910,0,,,,
R,,3278444.0,0.068,0.201,-0.005,-9.7,-8.2,-14.0,254,915,0,,,,
R,,3278503.0,0.029,0.226,-0.02,-11.8,3.6,-22.2,169,905,0,,,,
R,,3278564.0,0.088,0.101,-0.08,-0.1,8.9,-38.9,278,750,0,,,,
R,,3278625.0,0.054,0.03,-0.094,-5.3,7.4,4.5,558,698,0,,,,
R,,3278684.0,0.008,-0.008,-0.035,-0.3,18.3,23.0,505,675,0,,,,
R,,3278744.0,0.022,0.087,-0.006,3.0,-1.2,36.4,536,690,0,,,,
R,,3278804.0,0.011,0.155,-0.102,0.5,12.9,39.3,565,708,0,,,,
R,,3278864.0,0.01,0.207,-0.105,12.9,16.1,38.9,575,721,0,,,,
R,,3278924.0,-0.077,0.298,-0.025,-2.6,6.2,28.8,481,696,0,,,,
R,,3278984.0,-0.238,0.274,-0.091,14.4,-5.9,4.8,485,723,0,,,,
R,,3279043.0,-0.188,-0.052,0.07,26.2,1.7,-40.4,703,804,0,,,,
R,,3279104.0,-0.022,0.184,-0.004,10.9,-0.7,-44.0,746,843,0,,,,
R,,3279164.0,0.008,0.199,-0.086,-6.0,-13.8,-1.8,773,872,0,,,,
R,,3279253.0,0.025,0.136,-0.032,-1.4,-2.5,-8.9,785,883,0,,,,
R,,3279315.0,0.033,0.127,-0.057,-4.4,-5.5,-4.5,787,885,0,,,,
R,,3279374.0,0.022,0.134,-0.022,-1.7,-3.4,-4.3,793,892,0,,,,
R,,3279464.0,0.02,0.111,-0.043,-0.2,0.5,-9.5,793,897,0,,,,
R,,3279554.0,0.001,0.129,-0.038,-2.8,-6.6,-7.4,782,904,0,,,,
R,,3279614.0,0.003,0.137,-0.04,-1.8,-3.8,-8.4,633,908,0,,,,
R,,3279674.0,0.0,0.168,-0.045,-5.7,-4.4,-11.8,537,911,0,,,,
R,,3279734.0,0.058,0.2,-0.037,-9.6,-12.8,-16.1,319,913,0,,,,
R,,3279793.0,0.022,0.191,-0.041,-3.2,1.5,-32.5,184,904,0,,,,
R,,3279884.0,-0.084,-0.077,-0.025,6.4,3.4,-2.2,572,698,0,,,,
R,,3279944.0,0.034,-0.043,0.045,-3.0,3.9,6.8,535,684,0,,,,
R,,3280034.0,0.036,0.109,0.035,3.3,8.4,34.7,547,701,0,,,,
R,,3280094.0,0.0,0.185,-0.096,-1.3,9.2,39.5,560,709,0,,,,
R,,3280156.0,-0.027,0.222,-0.069,11.1,0.8,43.7,557,719,0,,,,
R,,3280214.0,-0.079,0.283,0.054,0.7,-2.4,27.9,519,709,0,,,,
R,,3280274.0,-0.19,0.286,0.002,1.9,-13.8,-5.1,521,728,0,,,,
R,,3280333.0,-0.224,-0.197,-0.015,13.4,9.1,6.4,711,811,0,,,,
R,,3280394.0,0.043,0.064,-0.005,-8.2,13.1,-43.6,753,853,0,,,,
R,,3280454.0,0.009,0.161,-0.056,-12.7,-11.6,-15.9,780,878,0,,,,
R,,3280514.0,0.039,0.158,-0.027,-1.5,-5.5,0.0,786,885,0,,,,
R,,3280574.0,0.025,0.103,-0.081,-4.4,-6.5,-1.8,792,890,0,,,,
R,,3280634.0,0.027,0.107,-0.022,-0.9,0.0,-7.4,797,898,0,,,,
R,,3280694.0,0.005,0.104,-0.045,-3.1,-4.5,-7.3,795,904,0,,,,
R,,3280754.0,0.004,0.116,-0.045,-0.9,-1.9,-6.9,772,904,0,,,,
R,,3280814.0,0.0,0.124,-0.05,-0.4,-2.3,-4.8,743,902,0,,,,
R,,3280875.0,-0.003,0.122,-0.036,-0.2,0.1,-8.2,663,906,0,,,,
R,,3280933.0,-0.001,0.163,-0.036,-3.4,-6.7,-11.8,590,909,0,,,,
R,,3280994.0,0.033,0.194,-0.026,-8.3,-13.1,-13.7,423,909,0,,,,
R,,3281054.0,0.062,0.197,-0.042,-7.2,-4.0,-23.3,208,911,0,,,,
R,,3281114.0,0.13,0.223,-0.095,0.9,0.6,-36.5,218,866,0,,,,
R,,3281215.0,0.097,0.026,-0.007,-5.6,-16.1,11.6,495,676,0,,,,
R,,3281234.0,0.04,-0.029,0.044,-0.1,-1.6,15.7,507,683,0,,,,
R,,3281293.0,0.023,0.099,-0.042,3.2,-7.7,36.1,523,686,0,,,,
R,,3281354.0,0.02,0.169,-0.049,5.2,15.3,41.0,552,703,0,,,,
R,,3281414.0,0.019,0.2,-0.066,9.0,7.0,38.4,553,712,0,,,,
R,,3281474.0,-0.044,0.292,-0.008,0.9,2.9,32.6,493,694,0,,,,
R,,3281536.0,-0.248,0.233,-0.107,9.2,13.1,6.2,504,727,0,,,,
R,,3281594.0,0.046,0.045,-0.039,19.8,-8.1,-50.0,697,799,0,,,,
R,,3281654.0,0.005,0.219,-0.021,9.6,-5.4,-39.3,742,841,0,,,,
R,,3281714.0,-0.018,0.195,-0.122,-3.2,-6.1,-0.4,777,876,0,,,,
R,,3281774.0,0.043,0.102,-0.018,-4.2,-8.6,5.4,788,890,0,,,,
R,,3281833.0,0.014,0.087,-0.084,-1.8,5.0,-5.0,792,897,0,,,,
R,,3281894.0,0.062,0.117,0.003,-4.4,-8.2,-6.3,794,895,0,,,,
R,,3281954.0,0.019,0.116,-0.059,-0.4,1.4,-8.9,796,899,0,,,,
R,,3282014.0,0.013,0.129,-0.032,-3.2,-0.7,-8.1,796,904,0,,,,
R,,3282074.0,0.0,0.123,-0.039,-1.6,-0.5,-6.1,788,905,0,,,,
R,,3282134.0,0.003,0.128,-0.028,-1.9,-4.3,-7.4,735,906,0,,,,
R,,3282194.0,0.0,0.155,-0.015,-4.2,-4.4,-9.2,610,909,0,,,,
R,,3282286.0,0.048,0.196,-0.005,-8.6,-9.3,-13.9,392,909,0,,,,
R,,3282344.0,0.064,0.195,-0.041,-6.1,1.3,-25.0,174,909,0,,,,
R,,3282434.0,0.05,-0.046,-0.018,-2.0,5.7,-29.0,528,645,0,,,,
R,,3282494.0,0.116,0.016,-0.091,-6.6,-10.8,10.7,520,673,0,,,,
R,,3282554.0,0.036,0.019,-0.089,-2.3,21.6,26.3,491,663,0,,,,
R,,3282614.0,0.015,0.142,0.0,5.2,15.1,36.6,538,695,0,,,,
R,,3282674.0,0.003,0.188,-0.083,-2.8,13.9,36.0,560,704,0,,,,
R,,3282734.0,-0.018,0.208,-0.102,8.7,10.7,36.8,532,706,0,,,,
R,,3282794.0,-0.073,0.231,0.0,2.5,9.2,22.6,526,711,0,,,,
R,,3282854.0,-0.172,0.266,-0.017,1.0,-17.5,0.7,514,736,0,,,,
R,,3282914.0,-0.146,-0.045,0.071,5.6,21.9,-10.9,719,816,0,,,,
R,,3282974.0,0.016,0.105,-0.016,-0.7,1.8,-27.1,751,848,0,,,,
R,,3283036.0,-0.01,0.17,-0.039,-18.8,-15.1,-9.3,784,885,0,,,,
R,,3283094.0,0.055,0.151,0.032,2.4,-3.8,-2.1,792,893,0,,,,
R,,3283154.0,0.009,0.088,-0.112,-3.6,-6.8,-4.3,796,897,0,,,,
R,,3283214.0,0.023,0.104,-0.013,0.5,8.4,-9.3,796,902,0,,,,
R,,3283274.0,0.0,0.121,-0.032,-1.8,-1.5,-8.0,799,909,0,,,,
R,,3283364.0,-0.003,0.121,-0.045,-1.1,-0.5,-5.3,753,905,0,,,,
R,,3283424.0,-0.002,0.132,-0.021,-1.1,-3.0,-5.2,662,908,0,,,,
R,,3283484.0,0.002,0.136,-0.009,-2.9,-4.8,-8.4,594,911,0,,,,
R,,3283544.0,0.0,0.174,-0.05,-7.2,-6.1,-9.6,544,907,0,,,,
R,,3283604.0,0.064,0.195,-0.01,-9.9,-6.9,-14.6,223,915,0,,,,
R,,3283664.0,-0.006,0.217,-0.037,-5.3,-2.4,-21.7,175,904,0,,,,
R,,3283725.0,0.035,0.07,-0.048,1.9,1.1,-35.8,416,702,0,,,,
R,,3283784.0,0.137,0.082,-0.06,-7.7,4.8,5.8,528,688,0,,,,
R,,3283844.0,0.024,-0.005,-0.074,0.8,23.6,26.4,519,680,0,,,,
R,,3283904.0,0.021,0.09,0.007,4.7,10.0,33.6,531,693,0,,,,
R,,3283964.0,0.011,0.169,-0.088,-3.1,18.9,37.5,557,701,0,,,,
R,,3284024.0,-0.017,0.212,-0.117,8.1,8.8,39.1,531,697,0,,,,
R,,3284084.0,-0.1,0.278,-0.036,1.1,0.3,27.2,498,703,0,,,,
R,,3284144.0,-0.179,0.241,-0.06,8.5,-10.4,-0.4,516,730,0,,,,
R,,3284204.0,-0.22,-0.033,0.175,9.9,7.8,-24.5,706,808,0,,,,
R,,3284264.0,-0.017,0.152,-0.046,8.7,-8.7,-30.3,747,844,0,,,,
R,,3284323.0,0.017,0.174,-0.058,-10.5,-8.8,-9.1,774,873,0,,,,
R,,3284414.0,0.027,0.124,-0.011,0.6,1.7,-10.3,792,890,0,,,,
R,,3284476.0,0.019,0.123,-0.038,-3.5,-7.0,-5.2,793,895,0,,,,
R,,3284534.0,0.018,0.124,-0.031,-1.3,-2.2,-4.2,792,897,0,,,,
R,,3284594.0,0.014,0.114,-0.047,-2.0,-1.0,-4.5,792,898,0,,,,
R,,3284654.0,0.009,0.118,-0.031,-1.0,0.9,-7.0,790,900,0,,,,
R,,3284714.0,-0.001,0.134,-0.023,-1.8,-2.2,-7.1,774,904,0,,,,
R,,3284774.0,0.008,0.131,-0.033,-2.9,-4.2,-8.5,644,906,0,,,,
R,,3284834.0,0.002,0.166,-0.043,-8.0,-4.6,-11.8,560,909,0,,,,
R,,3284894.0,0.066,0.207,-0.013,-9.8,-5.7,-15.6,316,913,0,,,,
R,,3284954.0,0.044,0.218,-0.018,-8.3,3.6,-23.6,192,906,0,,,,
R,,3285014.0,0.119,0.101,-0.087,-1.2,7.2,-43.5,322,758,0,,,,
R,,3285074.0,0.082,0.006,-0.119,-5.5,13.9,5.9,571,709,0,,,,
R,,3285135.0,0.019,0.015,-0.07,-1.8,24.8,22.9,507,671,0,,,,
R,,3285194.0,0.008,0.119,-0.004,-1.9,-0.5,40.0,525,691,0,,,,
R,,3285254.0,0.008,0.166,-0.126,-0.5,17.2,40.5,557,706,0,,,,
R,,3285314.0,-0.015,0.192,-0.094,12.6,12.8,37.7,557,719,0,,,,
R,,3285375.0,-0.088,0.295,-0.001,-1.0,9.4,25.3,484,703,0,,,,
R,,3285464.0,0.402,0.25,0.013,4.2,-10.8,-39.6,697,799,0,,,,
R,,3285524.0,-0.005,0.268,-0.076,20.7,11.8,-17.9,742,841,0,,,,
R,,3285584.0,-0.041,0.114,-0.122,9.7,1.2,3.6,776,875,0,,,,
R,,3285644.0,0.06,0.07,0.027,-5.0,-11.3,-5.5,795,893,0,,,,
R,,3285704.0,0.013,0.103,-0.098,0.2,7.6,-10.9,794,895,0,,,,
R,,3285764.0,0.039,0.14,0.024,-2.9,-5.5,-7.4,795,900,0,,,,
R,,3285824.0,-0.003,0.112,-0.055,0.0,3.8,-7.1,790,904,0,,,,
R,,3285885.0,0.007,0.121,-0.024,-1.7,-2.5,-5.6,767,906,0,,,,
R,,3285944.0,-0.007,0.121,-0.043,-1.6,-1.4,-6.1,681,908,0,,,,
R,,3286004.0,0.011,0.144,-0.01,-3.2,-1.0,-8.5,623,908,0,,,,
R,,3286064.0,0.001,0.165,-0.023,-5.3,-4.6,-9.7,577,908,0,,,,
R,,3286125.0,0.051,0.208,-0.012,-11.3,-7.8,-14.1,455,906,0,,,,
R,,3286184.0,0.091,0.202,-0.054,-7.1,4.1,-24.9,129,910,0,,,,
R,,3286244.0,0.142,0.196,-0.097,-0.1,-0.4,-45.3,213,823,0,,,,
R,,3286304.0,0.002,-0.07,-0.135,-2.4,10.9,5.7,565,694,0,,,,
R,,3286364.0,0.022,0.014,0.027,-4.0,27.4,20.1,510,672,0,,,,
R,,3286424.0,0.0,0.104,-0.05,0.5,-2.4,40.3,512,678,0,,,,
R,,3286514.0,0.011,0.211,-0.088,0.0,20.0,38.1,571,706,0,,,,
R,,3286574.0,-0.046,0.242,-0.082,2.4,5.6,40.6,505,682,0,,,,
R,,3286635.0,-0.206,0.224,-0.099,-0.2,11.6,20.9,473,698,0,,,,
R,,3286694.0,-0.141,0.218,0.101,3.6,0.7,-27.1,547,736,0,,,,
R,,3286754.0,0.074,0.022,0.089,-12.2,28.3,20.6,718,815,0,,,,
R,,3286814.0,-0.046,0.015,-0.12,-0.4,-6.9,-15.8,751,850,0,,,,
R,,3286875.0,0.001,0.175,0.027,-18.6,-17.9,-13.6,787,888,0,,,,
R,,3286934.0,0.051,0.164,-0.003,6.6,2.4,-6.2,797,898,0,,,,
R,,3286994.0,0.0,0.088,-0.087,-2.0,-5.9,-4.3,795,902,0,,,,
R,,3287054.0,0.025,0.12,-0.013,0.5,5.4,-10.7,787,905,0,,,,
R,,3287144.0,0.003,0.117,-0.029,-0.2,-0.7,-6.4,677,912,0,,,,
R,,3287205.0,-0.009,0.115,-0.042,-0.2,4.0,-7.8,632,910,0,,,,
R,,3287264.0,-0.008,0.134,-0.004,-1.8,-5.1,-8.3,604,910,0,,,,
R,,3287326.0,-0.009,0.149,-0.041,-3.2,-5.1,-10.0,576,907,0,,,,
R,,3287384.0,0.002,0.182,-0.034,-7.2,-3.5,-10.4,502,904,0,,,,
R,,3287444.0,0.079,0.19,-0.039,-9.1,-8.2,-17.7,103,912,0,,,,
R,,3287534.0,0.089,0.145,-0.027,-0.6,-9.4,-39.0,411,804,0,,,,
R,,3287594.0,-0.035,-0.053,-0.118,1.8,-1.8,-1.4,556,685,0,,,,
R,,3287654.0,0.015,0.009,0.043,4.3,16.4,8.8,507,657,0,,,,
R,,3287714.0,0.021,0.109,-0.036,5.1,-2.4,35.6,514,678,0,,,,
R,,3287774.0,0.007,0.167,-0.085,1.3,26.1,36.9,547,694,0,,,,
R,,3287834.0,0.002,0.176,-0.08,6.2,8.4,35.2,560,704,0,,,,
R,,3287894.0,-0.034,0.271,-0.003,2.7,-3.9,35.0,503,698,0,,,,
R,,3287984.0,-0.184,0.288,0.0,-1.0,-13.9,-2.2,510,725,0,,,,
R,,3288044.0,-0.236,-0.134,0.04,17.9,-2.7,-14.7,711,810,0,,,,
R,,3288106.0,0.032,0.077,-0.032,4.3,9.2,-39.9,748,845,0,,,,
R,,3288165.0,-0.01,0.189,-0.041,-11.4,-15.6,-13.5,780,879,0,,,,
R,,3288254.0,0.019,0.116,-0.027,-1.9,0.2,-11.2,793,892,0,,,,
R,,3288314.0,0.037,0.131,-0.043,-6.3,-12.8,-4.7,794,897,0,,,,
R,,3288375.0,0.018,0.111,-0.056,1.0,4.0,-8.7,798,903,0,,,,
R,,3288434.0,0.006,0.123,-0.047,-1.7,-3.4,-7.6,795,909,0,,,,
R,,3288495.0,-0.003,0.12,-0.054,0.2,-2.2,-6.3,725,908,0,,,,
R,,3288584.0,-0.001,0.131,-0.047,-2.2,-3.1,-9.4,592,909,0,,,,
R,,3288644.0,-0.007,0.155,-0.056,-4.4,-9.5,-10.0,491,911,0,,,,
R,,3288705.0,0.043,0.193,-0.043,-7.5,-9.2,-13.6,266,914,0,,,,
R,,3288764.0,0.022,0.192,-0.067,0.3,-8.4,-26.3,176,908,0,,,,
R,,3288824.0,0.069,0.116,-0.03,1.0,-4.1,-36.2,381,712,0,,,,
R,,3288886.0,0.14,0.063,-0.059,4.1,-8.0,13.7,536,680,0,,,,
R,,3288944.0,0.048,-0.021,-0.044,6.7,16.2,23.8,486,647,0,,,,
R,,3289004.0,0.017,0.151,0.057,9.0,-2.3,34.0,517,687,0,,,,
R,,3289064.0,0.01,0.172,-0.06,2.1,3.4,42.4,552,709,0,,,,
R,,3289125.0,0.02,0.214,-0.042,12.1,-3.4,43.0,557,718,0,,,,
R,,3289184.0,-0.034,0.304,0.057,0.0,0.0,29.7,512,703,0,,,,
R,,3289245.0,-0.216,0.293,-0.052,4.2,-3.3,4.8,500,717,0,,,,
R,,3289304.0,-0.194,-0.122,-0.07,26.7,13.9,-38.6,707,805,0,,,,
R,,3289364.0,0.038,0.168,0.052,2.4,6.6,-53.1,745,841,0,,,,
R,,3289424.0,-0.01,0.201,-0.125,-3.9,-9.1,-5.0,773,873,0,,,,
R,,3289484.0,0.026,0.1,-0.046,-10.5,-10.5,2.7,792,894,0,,,,
R,,3289545.0,0.028,0.09,-0.067,0.2,10.2,-7.8,798,900,0,,,,
R,,3289634.0,0.027,0.12,-0.018,0.0,2.0,-5.5,799,904,0,,,,
R,,3289694.0,0.002,0.109,-0.034,-1.0,-2.7,-4.5,796,907,0,,,,
R,,3289754.0,-0.003,0.122,-0.043,-1.9,-2.7,-6.8,787,906,0,,,,
R,,3289814.0,0.001,0.129,-0.026,-1.8,-3.7,-6.2,743,905,0,,,,
R,,3289875.0,-0.006,0.148,-0.048,-3.2,-5.2,-6.9,630,909,0,,,,
R,,3289934.0,-0.021,0.162,-0.038,-6.2,-5.1,-9.8,586,908,0,,,,
R,,3289995.0,0.047,0.201,-0.019,-9.3,-10.5,-13.3,359,909,0,,,,
R,,3290054.0,0.055,0.19,-0.041,-5.3,-5.8,-23.2,166,907,0,,,,
R,,3290114.0,0.116,0.147,-0.055,-1.6,-0.4,-42.6,369,812,0,,,,
R,,3290174.0,0.008,0.016,-0.128,-7.7,4.0,2.3,565,701,0,,,,
R,,3290234.0,0.031,-0.025,-0.021,3.5,24.4,18.8,509,667,0,,,,
R,,3290295.0,0.028,0.082,0.017,-1.2,0.0,34.1,531,683,0,,,,
R,,3290354.0,-0.006,0.173,-0.131,-0.6,22.4,39.9,553,699,0,,,,
R,,3290415.0,0.0,0.199,-0.109,10.9,13.3,36.7,569,713,0,,,,
R,,3290474.0,-0.055,0.25,-0.03,-2.0,6.2,29.9,500,701,0,,,,
R,,3290535.0,-0.171,0.214,-0.059,6.4,9.6,14.3,498,715,0,,,,
R,,3290594.0,-0.065,0.227,0.05,5.3,15.9,-24.9,648,767,0,,,,
R,,3290684.0,-0.008,0.131,-0.06,24.6,1.1,-35.3,743,842,0,,,,
R,,3290745.0,-0.024,0.182,-0.054,-2.4,-10.9,-5.3,774,874,0,,,,
R,,3290804.0,0.052,0.113,-0.013,-2.7,-9.9,-0.6,794,894,0,,,,
R,,3290865.0,0.012,0.086,-0.106,-2.0,5.2,-8.2,795,900,0,,,,
R,,3290924.0,0.015,0.133,0.026,0.0,0.2,-7.0,799,905,0,,,,
R,,3290984.0,0.01,0.111,-0.051,-2.8,-4.4,-7.7,787,908,0,,,,
R,,3291076.0,0.0,0.117,-0.018,0.2,-1.3,-6.1,702,909,0,,,,
R,,3291134.0,-0.005,0.13,-0.03,-1.9,-2.1,-6.9,648,910,0,,,,
R,,3291194.0,0.005,0.137,-0.033,-3.6,0.0,-9.0,592,910,0,,,,
R,,3291254.0,-0.004,0.163,-0.039,-7.7,-6.4,-10.9,577,908,0,,,,
R,,3291344.0,0.104,0.192,0.003,-11.8,-4.5,-21.8,140,915,0,,,,
R,,3291404.0,-0.064,0.222,-0.058,-10.5,8.8,-24.1,181,901,0,,,,
R,,3291464.0,0.066,0.056,-0.002,-6.0,22.2,-19.3,551,681,0,,,,
R,,3291524.0,0.103,0.007,-0.129,-7.9,-7.7,20.9,516,674,0,,,,
R,,3291584.0,0.012,-0.028,-0.16,-5.3,27.7,18.5,477,649,0,,,,
R,,3291644.0,0.014,0.151,0.031,2.1,12.0,36.2,543,689,0,,,,
R,,3291734.0,0.021,0.202,-0.088,6.1,14.8,35.9,553,702,0,,,,
R,,3291795.0,-0.047,0.282,-0.052,-4.5,1.5,35.7,476,671,0,,,,
R,,3291854.0,-0.202,0.198,-0.134,8.1,3.6,12.7,476,712,0,,,,
R,,3291915.0,0.448,0.173,0.002,9.9,1.1,-33.7,684,790,0,,,,
R,,3291974.0,0.047,0.307,-0.05,16.1,-2.9,-22.0,732,834,0,,,,
R,,3292035.0,-0.015,0.133,-0.122,18.5,7.1,-0.2,765,866,0,,,,
R,,3292094.0,0.049,0.07,-0.025,-1.4,-5.9,-2.3,786,883,0,,,,
R,,3292155.0,0.013,0.097,-0.027,-0.3,-0.3,-9.3,791,892,0,,,,
R,,3292214.0,0.041,0.117,-0.037,-1.7,-5.3,-8.7,797,897,0,,,,
R,,3292274.0,0.003,0.125,-0.039,-0.9,2.5,-6.2,790,906,0,,,,
R,,3292333.0,0.003,0.12,-0.037,-1.0,-0.9,-6.7,726,908,0,,,,
R,,3292394.0,-0.006,0.115,-0.021,-1.2,-1.2,-6.4,638,910,0,,,,
R,,3292455.0,-0.004,0.135,-0.035,-2.4,-5.8,-4.4,606,911,0,,,,
R,,3292516.0,-0.006,0.132,-0.029,-2.6,-0.6,-7.2,561,913,0,,,,
R,,3292575.0,0.004,0.163,-0.028,-6.5,-10.9,-10.0,477,911,0,,,,
R,,3292634.0,0.052,0.208,-0.048,-10.4,-8.3,-13.3,213,920,0,,,,
R,,3292694.0,0.053,0.197,-0.001,-6.2,3.5,-25.1,164,907,0,,,,
R,,3292785.0,0.032,0.032,-0.023,1.2,9.1,-12.5,545,659,0,,,,
R,,3292844.0,0.11,0.025,-0.073,-2.4,-9.7,20.3,509,679,0,,,,
R,,3292905.0,0.019,-0.017,-0.127,-2.9,23.0,25.2,472,652,0,,,,
R,,3292964.0,0.021,0.157,0.044,6.1,10.7,39.2,527,694,0,,,,
R,,3293054.0,-0.004,0.195,-0.101,5.4,10.8,35.4,570,717,0,,,,
R,,3293115.0,-0.062,0.295,-0.003,-1.0,4.0,31.4,499,697,0,,,,
R,,3293174.0,-0.171,0.199,-0.08,10.3,11.2,14.3,502,710,0,,,,
R,,3293266.0,-0.001,0.048,-0.117,14.3,5.1,10.7,719,819,0,,,,
R,,3293325.0,0.037,0.06,0.013,1.7,-0.5,-18.6,748,846,0,,,,
R,,3293384.0,0.012,0.136,-0.043,-12.6,-15.7,-11.2,779,879,0,,,,
R,,3293445.0,0.041,0.151,-0.019,-0.6,-1.3,-5.1,787,888,0,,,,
R,,3293504.0,0.023,0.116,-0.061,-2.0,-3.1,-3.0,787,888,0,,,,
R,,3293564.0,0.033,0.116,-0.041,0.0,-0.1,-5.6,789,895,0,,,,
R,,3293624.0,0.018,0.127,-0.027,-1.4,0.0,-5.9,791,901,0,,,,
R,,3293684.0,0.021,0.116,-0.033,-1.6,1.0,-7.7,762,903,0,,,,
R,,3293745.0,0.0,0.135,-0.033,-3.0,-2.9,-5.1,718,905,0,,,,
R,,3293834.0,-0.008,0.121,-0.035,-0.8,1.0,-7.5,645,910,0,,,,
R,,3293894.0,-0.003,0.133,-0.037,-2.8,-0.4,-7.7,593,912,0,,,,
R,,3293955.0,-0.008,0.151,-0.027,-5.8,-3.5,-9.6,525,909,0,,,,
R,,3294016.0,0.031,0.189,-0.022,-9.3,-11.5,-10.5,340,912,0,,,,
R,,3294075.0,0.056,0.175,0.004,-8.5,2.1,-18.8,152,914,0,,,,
R,,3294134.0,0.011,0.223,-0.053,-8.5,8.6,-24.4,194,894,0,,,,
R,,3294195.0,0.0,0.102,-0.023,-3.5,16.6,-9.7,560,689,0,,,,
R,,3294254.0,0.097,0.001,-0.091,-7.4,-2.0,22.5,524,688,0,,,,
R,,3294314.0,0.003,-0.011,-0.12,-7.8,22.1,14.3,462,638,0,,,,
R,,3294375.0,0.01,0.126,0.021,-3.8,11.3,32.0,523,684,0,,,,
R,,3294434.0,-0.03,0.184,-0.163,-0.9,9.1,37.7,551,699,0,,,,
R,,3294495.0,-0.028,0.206,-0.053,13.3,21.5,30.6,573,722,0,,,,
R,,3294554.0,-0.008,0.185,-0.029,3.5,10.2,20.2,525,699,0,,,,
R,,3294615.0,-0.079,0.171,-0.089,4.2,1.5,15.5,498,697,0,,,,
R,,3294674.0,-0.087,0.191,0.02,4.5,-0.1,1.7,518,727,0,,,,
R,,3294766.0,0.036,0.046,0.035,8.2,21.9,7.4,712,807,0,,,,
R,,3294825.0,0.024,0.068,-0.064,4.0,-8.2,-17.2,736,835,0,,,,
R,,3294884.0,0.017,0.094,-0.112,-1.3,7.7,-16.0,773,872,0,,,,
R,,3294945.0,-0.005,0.101,0.029,2.6,5.0,-10.9,797,902,0,,,,
R,,3295004.0,0.016,0.092,-0.07,-1.3,-1.6,-7.8,795,904,0,,,,
R,,3295064.0,0.018,0.117,-0.036,0.2,3.8,-8.6,790,902,0,,,,
R,,3295125.0,0.023,0.123,-0.037,-2.0,-3.7,-5.9,791,903,0,,,,
R,,3295184.0,0.0,0.123,-0.05,0.0,0.0,-3.3,789,901,0,,,,
R,,3295245.0,0.004,0.114,-0.036,0.1,-0.4,-2.9,787,903,0,,,,
R,,3295304.0,-0.005,0.122,-0.033,0.0,-0.9,-3.5,787,906,0,,,,
R,,3295365.0,0.01,0.116,-0.028,-1.5,-5.8,-3.7,777,908,0,,,,
R,,3295426.0,-0.017,0.125,-0.058,-1.8,-1.7,-3.5,732,909,0,,,,
R,,3295485.0,-0.008,0.124,-0.021,0.0,-1.4,-4.2,694,909,0,,,,
R,,3295544.0,0.001,0.139,-0.028,-6.1,-4.7,-5.2,673,909,0,,,,
R,,3295604.0,-0.021,0.144,-0.045,-6.4,-3.9,-5.7,665,903,0,,,,
R,,3295665.0,0.015,0.182,-0.019,-8.5,-9.7,-5.1,471,901,0,,,,
R,,3295724.0,0.017,0.13,-0.036,-3.3,-3.3,-16.2,140,895,0,,,,
R,,3295785.0,-0.004,0.159,-0.03,3.6,0.2,-18.8,129,874,0,,,,
R,,3295844.0,-0.029,0.061,-0.037,-3.8,-10.6,-12.4,556,714,0,,,,
R,,3295946.0,-0.059,0.037,-0.061,-4.1,4.2,4.3,575,717,0,,,,
R,,3295995.0,-0.065,0.062,0.003,2.4,-1.1,13.5,587,726,0,,,,
R,,3296054.0,-0.055,0.069,0.036,1.5,-0.4,15.0,607,738,0,,,,
R,,3296115.0,-0.047,0.071,-0.005,4.0,5.0,16.3,615,747,0,,,,
R,,3296176.0,-0.061,0.143,-0.006,1.8,9.9,18.8,629,755,0,,,,
R,,3296235.0,-0.052,0.172,-0.04,1.9,3.9,15.2,633,760,0,,,,
R,,3296294.0,0.002,0.208,-0.007,3.4,6.3,0.9,625,757,0,,,,
R,,3296354.0,-0.009,0.133,-0.028,-17.2,1.4,4.6,729,852,0,,,,
R,,3296415.0,0.033,0.108,0.011,-4.5,-6.5,0.4,762,874,0,,,,
R,,3296474.0,0.008,0.125,-0.056,0.8,-0.5,-2.2,768,879,0,,,,
R,,3296535.0,0.012,0.13,-0.038,1.9,1.7,-1.5,774,885,0,,,,
R,,3296594.0,0.002,0.12,-0.025,1.8,1.4,-0.2,778,885,0,,,,
R,,3296655.0,0.013,0.119,-0.025,0.5,-0.9,-0.4,779,886,0,,,,
R,,3296714.0,0.011,0.119,-0.033,0.4,-0.4,-1.9,777,889,0,,,,
R,,3296775.0,0.002,0.116,-0.042,1.0,1.8,-2.9,769,881,0,,,,
R,,3296834.0,0.002,0.117,-0.032,0.9,0.2,-1.8,770,884,0,,,,
R,,3296896.0,-0.009,0.115,-0.034,0.9,-1.1,0.0,776,888,0,,,,
R,,3296955.0,0.012,0.126,-0.042,-1.0,-5.1,3.1,783,892,0,,,,
R,,3297014.0,0.009,0.114,-0.022,2.4,0.7,0.4,792,896,0,,,,
R,,3297075.0,-0.002,0.113,-0.047,3.0,1.4,-0.4,795,898,0,,,,
R,,3297134.0,0.01,0.119,-0.033,-1.2,-5.8,1.4,799,902,0,,,,
R,,3297195.0,0.003,0.116,-0.057,-1.4,-2.7,0.1,799,904,0,,,,
R,,3297254.0,0.015,0.127,-0.025,0.0,-1.0,0.2,803,906,0,,,,
R,,3297315.0,0.005,0.114,-0.042,-2.3,-5.3,1.4,793,904,0,,,,
R,,3297375.0,0.008,0.12,-0.051,-0.5,0.1,0.1,794,902,0,,,,
R,,3297434.0,0.005,0.121,-0.039,-0.1,1.9,-1.3,791,904,0,,,,
R,,3297495.0,0.004,0.112,-0.021,-1.0,-0.1,-1.6,786,905,0,,,,
R,,3297556.0,0.009,0.128,-0.037,0.7,2.5,-2.0,796,905,0,,,,
R,,3297615.0,-0.001,0.113,-0.04,-3.3,-3.1,0.0,792,907,0,,,,
R,,3297674.0,0.003,0.117,-0.053,-1.1,0.7,-0.2,782,903,0,,,,
R,,3297735.0,0.0,0.112,-0.031,-0.2,2.9,-1.3,777,905,0,,,,
R,,3297794.0,0.006,0.122,-0.017,-1.0,-0.3,-0.3,781,906,0,,,,
R,,3297855.0,0.001,0.124,-0.035,-0.7,-0.7,0.1,781,905,0,,,,
R,,3297915.0,0.006,0.122,-0.03,-1.4,-1.8,0.2,779,905,0,,,,
R,,3297974.0,0.002,0.123,-0.031,-0.3,0.5,-0.2,781,905,0,,,,
R,,3298034.0,0.005,0.123,-0.032,-0.6,-0.5,0.5,784,905,0,,,,
R,,3298094.0,0.0,0.118,-0.027,-0.1,0.2,-0.4,782,905,0,,,,
R,,3298155.0,0.003,0.123,-0.028,-1.4,-1.9,0.2,781,905,0,,,,
R,,3298214.0,0.003,0.122,-0.03,-0.7,0.0,0.0,782,906,0,,,,
R,,3298276.0,0.001,0.122,-0.026,-1.2,-0.9,0.4,782,905,0,,,,
R,,3298334.0,0.003,0.125,-0.023,-0.9,0.0,0.1,784,905,0,,,,
R,,3298394.0,0.004,0.124,-0.019,-1.7,-2.3,-0.3,778,906,0,,,,
R,,3298455.0,0.004,0.126,-0.022,-1.4,-1.1,-1.6,769,904,0,,,,
R,,3298514.0,0.006,0.132,-0.024,-0.7,0.0,-3.1,740,900,0,,,,
R,,3298575.0,0.023,0.186,-0.038,-1.0,0.9,-5.4,670,884,0,,,,
R,,3298634.0,0.023,0.142,-0.071,0.4,-1.3,-11.4,626,814,0,,,,
R,,3298695.0,0.04,0.05,-0.008,2.1,-8.7,-8.1,627,761,0,,,,
R,,3298754.0,0.058,0.056,-0.023,5.0,-7.5,9.8,627,762,0,,,,
R,,3298844.0,0.009,0.151,0.001,2.5,-1.7,18.6,586,746,0,,,,
R,,3298905.0,-0.03,0.132,-0.034,7.5,14.0,8.6,538,719,0,,,,
R,,3298964.0,-0.043,0.124,0.007,5.2,3.5,6.1,533,726,0,,,,
R,,3299026.0,-0.036,0.135,-0.007,-0.6,6.9,0.2,527,719,0,,,,
R,,3299084.0,0.02,0.121,-0.241,39.8,10.3,-10.9,760,867,0,,,,
R,,3299145.0,0.035,0.045,0.009,1.8,2.7,-24.1,780,881,0,,,,
R,,3299205.0,0.01,0.179,0.01,11.8,1.0,-3.0,788,884,0,,,,
R,,3299264.0,0.025,0.095,-0.057,-1.4,-13.7,3.3,793,894,0,,,,
R,,3299324.0,0.024,0.093,-0.035,1.9,4.7,-7.6,796,900,0,,,,
R,,3299384.0,0.005,0.116,-0.048,-0.7,-1.2,-3.7,797,902,0,,,,
R,,3299445.0,0.015,0.119,-0.027,2.3,2.6,-4.1,799,903,0,,,,
R,,3299535.0,0.006,0.115,-0.042,1.1,1.2,-2.3,799,902,0,,,,
R,,3299594.0,0.009,0.112,-0.036,1.7,1.1,-1.9,798,907,0,,,,
R,,3299696.0,0.001,0.118,-0.052,1.1,0.4,-0.3,800,906,0,,,,
R,,3299716.0,0.002,0.116,-0.049,-0.7,-2.4,-0.2,801,906,0,,,,
R,,3299775.0,0.006,0.117,-0.051,-0.3,0.5,-0.7,802,907,0,,,,
R,,3299834.0,0.007,0.116,-0.04,1.9,1.9,-0.4,803,906,0,,,,
R,,3299895.0,0.015,0.116,-0.033,0.7,-1.9,-1.2,801,905,0,,,,
R,,3299955.0,0.006,0.118,-0.054,-0.9,-3.1,-0.5,800,906,0,,,,
R,,3300014.0,0.0,0.116,-0.059,-0.7,-0.6,0.0,804,906,0,,,,
R,,3300075.0,0.008,0.119,-0.034,-0.1,0.1,0.4,804,906,0,,,,
R,,3300134.0,0.008,0.116,-0.031,-1.8,-2.4,0.0,805,905,0,,,,
R,,3300195.0,0.007,0.116,-0.04,-1.4,-1.9,-0.2,806,908,0,,,,
R,,3300254.0,-0.001,0.12,-0.04,-0.4,-0.3,-0.6,806,907,0,,,,
R,,3300315.0,0.009,0.12,-0.035,-1.2,-1.4,-1.0,806,905,0,,,,
R,,3300375.0,0.0,0.12,-0.04,-1.8,-0.9,-1.2,805,906,0,,,,
R,,3300436.0,0.002,0.121,-0.031,-2.2,-0.3,-2.3,810,909,0,,,,
R,,3300495.0,0.0,0.125,-0.035,-3.6,-2.9,-1.8,805,904,0,,,,
R,,3300554.0,0.001,0.128,-0.03,-4.4,-3.5,-2.4,804,905,0,,,,
R,,3300614.0,0.0,0.13,-0.04,-5.6,-3.3,-4.0,783,906,0,,,,
R,,3300674.0,0.005,0.181,-0.007,-7.5,-12.3,-4.3,590,905,0,,,,
R,,3300735.0,0.018,0.125,0.007,-4.1,2.4,-9.3,329,900,0,,,,
R,,3300794.0,-0.062,0.129,-0.027,-6.9,3.5,-5.7,444,819,0,,,,
R,,3300855.0,-0.063,0.093,-0.069,2.4,-15.9,1.8,513,691,0,,,,
R,,3300915.0,-0.025,0.092,0.017,3.7,-8.6,-2.6,491,677,0,,,,
R,,3300974.0,-0.028,0.103,0.042,-4.1,-4.0,-4.9,500,679,0,,,,
R,,3301035.0,-0.052,0.1,-0.007,-1.5,-3.0,-3.6,499,685,0,,,,
R,,3301126.0,-0.031,0.106,0.023,-1.4,-8.4,0.0,492,689,0,,,,
R,,3301185.0,-0.034,0.109,0.022,0.3,-2.9,-0.1,492,689,0,,,,
R,,3301245.0,-0.034,0.114,0.028,-0.4,1.1,-0.1,499,699,0,,,,
R,,3301304.0,-0.038,0.114,0.017,0.0,0.3,-0.4,502,700,0,,,,
R,,3301365.0,-0.038,0.115,0.008,0.7,2.1,-0.3,513,706,0,,,,
R,,3301424.0,-0.026,0.116,0.005,1.4,2.2,-0.2,518,707,0,,,,
R,,3301485.0,-0.018,0.106,-0.004,1.8,0.6,1.4,522,711,0,,,,
R,,3301544.0,-0.006,0.113,0.005,2.6,-0.2,4.0,524,710,0,,,,
R,,3301605.0,0.002,0.117,-0.002,2.8,-2.5,6.4,531,712,0,,,,
R,,3301695.0,0.013,0.124,0.007,4.9,-2.5,9.2,538,717,0,,,,
R,,3301754.0,0.015,0.133,0.011,7.5,-0.5,11.3,538,719,0,,,,
R,,3301815.0,0.012,0.141,0.012,6.4,3.1,11.6,521,719,0,,,,
R,,3301876.0,-0.002,0.14,0.01,5.6,6.1,9.7,486,711,0,,,,
R,,3301935.0,-0.017,0.131,-0.013,2.6,7.3,8.3,484,709,0,,,,
R,,3301995.0,-0.027,0.122,-0.02,2.2,4.1,5.8,479,715,0,,,,
R,,3302054.0,-0.024,0.125,-0.019,0.9,-3.8,3.0,502,719,0,,,,
R,,3302115.0,0.056,0.101,-0.114,18.8,-1.9,-4.4,721,826,0,,,,
R,,3302174.0,0.027,0.087,-0.021,-1.7,5.9,-19.1,772,873,0,,,,
R,,3302235.0,0.02,0.172,-0.007,4.4,1.5,-5.8,781,882,0,,,,
R,,3302294.0,0.028,0.148,-0.014,0.4,-7.0,4.2,786,889,0,,,,
R,,3302355.0,0.026,0.104,-0.061,1.3,-2.6,0.1,791,894,0,,,,
R,,3302415.0,0.013,0.103,-0.05,0.7,-0.6,-2.2,800,902,0,,,,
R,,3302475.0,0.017,0.111,-0.033,1.4,0.3,-3.1,797,901,0,,,,
R,,3302535.0,0.014,0.116,-0.032,0.0,-1.9,-1.3,796,902,0,,,,
R,,3302596.0,0.013,0.114,-0.046,0.9,-0.5,-1.8,800,903,0,,,,
R,,3302655.0,0.013,0.119,-0.036,0.3,-0.7,-1.0,800,903,0,,,,
R,,3302714.0,0.014,0.124,-0.035,0.1,-1.3,-0.2,798,900,0,,,,
R,,3302775.0,0.007,0.118,-0.042,-0.6,-1.9,0.3,787,895,0,,,,
R,,3302834.0,0.014,0.114,-0.042,-0.9,-2.7,1.1,777,891,0,,,,
R,,3302895.0,0.012,0.114,-0.046,-0.7,-1.4,1.0,778,889,0,,,,
R,,3302955.0,0.012,0.114,-0.034,0.5,-0.6,0.3,781,889,0,,,,
R,,3303015.0,0.012,0.116,-0.04,-1.0,-1.2,0.3,785,893,0,,,,
R,,3303075.0,0.014,0.118,-0.041,0.1,-0.2,-0.3,788,889,0,,,,
R,,3303134.0,0.017,0.12,-0.035,0.3,1.0,-0.4,790,893,0,,,,
R,,3303195.0,0.017,0.117,-0.04,-0.4,-0.8,-1.5,792,895,0,,,,
R,,3303256.0,0.004,0.117,-0.042,-0.3,-0.1,-0.7,795,898,0,,,,
R,,3303315.0,0.014,0.117,-0.039,-0.6,-0.2,-0.4,797,900,0,,,,
R,,3303375.0,0.011,0.115,-0.029,-1.3,-1.6,0.0,800,902,0,,,,
R,,3303435.0,0.012,0.118,-0.045,-2.0,-2.1,-0.1,799,900,0,,,,
R,,3303495.0,0.011,0.12,-0.04,-1.0,-0.8,-0.5,802,905,0,,,,
R,,3303554.0,0.012,0.12,-0.031,-0.8,0.2,-0.9,799,902,0,,,,
R,,3303615.0,0.007,0.121,-0.027,-1.5,-0.1,-1.2,800,903,0,,,,
R,,3303674.0,0.004,0.121,-0.03,-1.1,1.3,-1.3,802,903,0,,,,
R,,3303735.0,0.008,0.123,-0.024,-3.0,-1.2,-0.3,801,906,0,,,,
R,,3303794.0,0.005,0.12,-0.038,-3.8,-0.4,-0.1,799,906,0,,,,
R,,3303855.0,0.007,0.126,-0.025,-4.8,0.5,-0.9,803,907,0,,,,
R,,3303915.0,0.011,0.13,-0.013,-5.1,1.6,-1.9,801,905,0,,,,
R,,3303976.0,0.011,0.136,-0.027,-5.7,-5.2,-1.5,760,901,0,,,,
R,,3304035.0,-0.018,0.156,0.057,-4.3,0.3,-1.0,563,882,0,,,,
R,,3304094.0,-0.046,0.122,-0.014,-5.2,-4.5,4.7,561,752,0,,,,
R,,3304155.0,-0.025,0.123,0.032,-6.2,-10.1,3.6,578,742,0,,,,
R,,3304214.0,0.0,0.128,0.037,-6.5,-24.3,1.7,572,740,0,,,,
R,,3304275.0,0.014,0.135,0.037,-5.8,-3.2,-1.1,567,737,0,,,,
R,,3304334.0,0.004,0.118,0.03,-3.9,3.2,-3.7,574,734,0,,,,
R,,3304395.0,-0.002,0.116,0.002,-5.8,0.4,-2.7,577,734,0,,,,
R,,3304455.0,-0.002,0.112,-0.014,-3.1,-2.1,-2.6,574,732,0,,,,
R,,3304544.0,0.0,0.11,0.014,-1.5,-4.4,-0.9,575,732,0,,,,
R,,3304634.0,0.002,0.113,0.025,-0.7,-1.9,-0.2,576,736,0,,,,
R,,3304695.0,0.0,0.113,0.012,1.0,0.4,0.0,581,738,0,,,,
R,,3304756.0,-0.002,0.114,0.023,1.1,2.0,0.2,580,737,0,,,,
R,,3304815.0,0.008,0.12,0.037,0.4,-0.9,0.8,579,738,0,,,,
R,,3304875.0,0.011,0.122,0.019,1.4,-0.6,0.6,584,740,0,,,,
R,,3304935.0,0.01,0.12,0.021,1.8,-1.4,2.2,582,737,0,,,,
R,,3304995.0,0.012,0.12,0.028,2.9,-0.1,2.5,586,743,0,,,,
R,,3305055.0,0.01,0.124,0.031,2.4,0.9,2.4,580,740,0,,,,
R,,3305115.0,0.008,0.122,0.017,2.4,3.2,1.1,585,742,0,,,,
R,,3305174.0,0.003,0.123,0.018,2.3,1.9,2.1,577,742,0,,,,
R,,3305235.0,0.009,0.127,0.012,3.8,1.8,1.7,570,739,0,,,,
R,,3305335.0,0.016,0.122,0.012,3.7,2.6,0.9,568,741,0,,,,
R,,3305355.0,0.011,0.126,0.017,3.9,4.1,1.0,571,738,0,,,,
R,,3305416.0,0.021,0.122,-0.003,3.7,4.3,0.3,574,741,0,,,,
R,,3305475.0,0.012,0.122,0.0,4.8,1.9,2.5,546,734,0,,,,
R,,3305535.0,0.012,0.13,-0.012,4.4,2.1,1.7,532,734,0,,,,
R,,3305595.0,-0.011,0.13,0.01,6.7,4.3,-0.7,523,733,0,,,,
R,,3305655.0,-0.072,0.111,-0.035,7.0,7.7,-5.6,463,762,0,,,,
R,,3305714.0,0.05,0.151,0.038,-3.3,4.0,-10.1,570,879,0,,,,
R,,3305775.0,0.043,0.18,-0.007,5.8,-3.1,-4.3,728,896,0,,,,
R,,3305834.0,0.018,0.128,-0.034,3.9,-6.2,-0.9,783,902,0,,,,
R,,3305895.0,-0.004,0.112,-0.064,3.4,4.7,-1.7,788,904,0,,,,
R,,3305955.0,0.003,0.12,-0.018,3.9,4.2,-0.8,786,906,0,,,,
R,,3306015.0,0.01,0.124,-0.014,1.8,-3.2,-0.1,787,906,0,,,,
R,,3306075.0,0.007,0.121,-0.042,-0.7,-5.2,-1.1,788,910,0,,,,
R,,3306136.0,0.0,0.124,-0.048,1.4,0.0,-0.5,773,907,0,,,,
R,,3306195.0,0.001,0.116,-0.022,1.5,1.6,0.3,765,905,0,,,,
R,,3306254.0,0.006,0.116,-0.03,-0.3,-3.4,0.7,766,907,0,,,,
R,,3306314.0,0.007,0.116,-0.051,-0.3,-2.6,0.1,766,906,0,,,,
R,,3306405.0,0.005,0.116,-0.041,0.6,-1.1,-0.6,772,905,0,,,,
R,,3306464.0,0.0,0.119,-0.049,0.3,-0.7,0.0,782,907,0,,,,
R,,3306525.0,0.004,0.116,-0.045,0.4,-0.4,-0.1,785,908,0,,,,
R,,3306584.0,0.004,0.117,-0.045,-0.3,-0.7,0.0,787,908,0,,,,
R,,3306645.0,0.006,0.114,-0.037,0.6,0.8,-1.1,791,909,0,,,,
R,,3306705.0,0.008,0.115,-0.038,-0.7,-1.1,-0.6,795,908,0,,,,
R,,3306765.0,0.01,0.11,-0.042,1.5,3.5,-1.7,795,908,0,,,,
R,,3306825.0,-0.002,0.121,-0.047,0.3,0.9,-2.1,799,907,0,,,,
R,,3306886.0,0.004,0.12,-0.043,-1.8,-1.8,1.1,803,910,0,,,,
R,,3306945.0,0.005,0.119,-0.041,-0.7,-0.3,1.3,799,908,0,,,,
R,,3307004.0,0.01,0.119,-0.033,0.2,0.4,0.2,803,908,0,,,,
R,,3307065.0,0.003,0.117,-0.043,-0.3,0.0,0.0,804,908,0,,,,
R,,3307125.0,0.005,0.116,-0.041,-1.7,-1.0,0.4,803,907,0,,,,
R,,3307185.0,0.006,0.117,-0.04,-1.6,0.0,0.0,805,907,0,,,,
R,,3307245.0,0.008,0.119,-0.032,-1.6,0.1,0.0,804,907,0,,,,
R,,3307305.0,0.01,0.12,-0.031,-2.1,0.0,-0.2,804,907,0,,,,
R,,3307365.0,0.007,0.122,-0.034,-2.6,0.2,0.0,801,909,0,,,,
R,,3307455.0,0.008,0.123,-0.027,-3.8,0.3,-0.2,800,906,0,,,,
R,,3307515.0,0.006,0.125,-0.025,-4.8,0.3,1.1,799,905,0,,,,
R,,3307577.0,0.017,0.128,-0.009,-5.1,0.0,0.2,798,903,0,,,,
R,,3307635.0,0.014,0.134,-0.026,-5.3,-0.9,0.0,782,900,0,,,,
R,,3307695.0,0.061,0.153,0.006,-2.0,-1.4,-0.9,665,889,0,,,,
R,,3307754.0,-0.024,0.099,-0.046,0.8,0.2,-0.6,594,769,0,,,,
R,,3307815.0,-0.01,0.106,0.036,-4.7,-4.1,-1.5,599,763,0,,,,
R,,3307875.0,0.0,0.129,0.031,-2.8,-11.7,-3.9,598,761,0,,,,
R,,3307935.0,0.002,0.13,0.004,-3.5,0.3,-3.7,603,763,0,,,,
R,,3307995.0,-0.002,0.123,0.015,-1.8,2.4,-4.1,600,760,0,,,,
R,,3308055.0,0.002,0.118,0.01,-3.9,-3.2,-2.8,598,759,0,,,,
R,,3308115.0,0.001,0.121,0.002,-2.7,-5.8,-2.2,599,760,0,,,,
R,,3308175.0,0.014,0.122,0.007,-2.1,-5.0,-1.8,597,759,0,,,,
R,,3308235.0,0.001,0.119,0.01,-0.7,-1.7,-1.6,591,760,0,,,,
R,,3308327.0,0.009,0.114,0.012,0.6,0.8,-1.0,597,761,0,,,,
R,,3308385.0,0.009,0.117,0.017,0.0,-1.0,0.1,600,762,0,,,,
R,,3308445.0,0.003,0.122,0.016,0.0,-1.7,0.2,601,764,0,,,,
R,,3308535.0,0.0,0.121,0.019,0.6,-0.8,0.1,606,763,0,,,,
R,,3308595.0,0.001,0.124,0.013,0.5,-0.5,0.6,607,764,0,,,,
R,,3308655.0,0.005,0.126,0.013,1.3,0.0,0.1,614,766,0,,,,
R,,3308715.0,0.006,0.12,0.011,1.5,-0.2,0.1,612,766,0,,,,
R,,3308775.0,0.016,0.125,0.012,1.0,0.1,0.9,611,765,0,,,,
R,,3308834.0,0.007,0.121,0.01,2.6,2.3,0.1,612,765,0,,,,
R,,3308895.0,0.016,0.122,0.015,2.0,5.2,-0.2,612,766,0,,,,
R,,3308955.0,0.005,0.115,0.007,2.6,5.9,0.6,616,766,0,,,,
R,,3309016.0,0.007,0.12,0.009,3.0,4.8,2.9,619,767,0,,,,
R,,3309075.0,0.003,0.128,0.011,3.1,3.3,3.6,623,769,0,,,,
R,,3309135.0,0.002,0.127,0.002,3.0,2.2,3.3,628,771,0,,,,
R,,3309195.0,-0.001,0.125,0.006,3.7,1.7,2.6,627,772,0,,,,
R,,3309255.0,0.0,0.125,0.007,3.7,3.3,1.0,627,773,0,,,,
R,,3309315.0,0.001,0.122,-0.012,4.5,0.7,0.1,612,771,0,,,,
R,,3309375.0,-0.021,0.148,0.006,-17.9,-3.2,-0.8,649,858,0,,,,
R,,3309434.0,0.026,0.212,0.043,4.1,-10.2,0.8,784,893,0,,,,
R,,3309495.0,-0.01,0.132,-0.097,7.8,2.9,8.1,792,896,0,,,,
R,,3309584.0,0.002,0.14,-0.074,3.0,0.2,1.0,798,902,0,,,,
R,,3309645.0,0.02,0.123,-0.037,2.9,1.8,1.5,796,904,0,,,,
R,,3309705.0,0.007,0.114,-0.026,2.8,0.7,-0.4,799,903,0,,,,
R,,3309766.0,0.015,0.116,-0.03,1.2,-1.7,-0.4,799,905,0,,,,
R,,3309855.0,0.01,0.118,-0.037,0.6,-1.7,-0.3,799,905,0,,,,
R,,3309915.0,0.007,0.117,-0.045,1.4,-0.1,-0.6,800,906,0,,,,
R,,3309975.0,0.006,0.116,-0.037,0.9,-1.4,0.0,797,906,0,,,,
R,,3310035.0,0.005,0.115,-0.049,-0.3,-1.6,0.9,796,903,0,,,,
R,,3310095.0,0.011,0.118,-0.039,-0.3,0.1,0.8,789,903,0,,,,
R,,3310185.0,0.015,0.113,-0.042,1.2,0.4,-0.8,787,901,0,,,,
R,,3310245.0,0.006,0.111,-0.049,0.7,0.1,-0.1,793,902,0,,,,
R,,3310305.0,0.004,0.114,-0.045,1.8,1.8,-0.2,798,902,0,,,,
R,,3310365.0,0.015,0.112,-0.031,-0.8,-1.7,0.1,796,903,0,,,,
R,,3310425.0,0.008,0.115,-0.045,-1.1,-1.7,0.1,798,901,0,,,,
R,,3310485.0,0.012,0.113,-0.051,-0.5,-0.3,0.0,800,904,0,,,,
R,,3310546.0,0.009,0.107,-0.04,2.9,4.1,-3.6,801,906,0,,,,
R,,3310635.0,0.019,0.116,-0.036,0.0,0.2,0.2,801,906,0,,,,
R,,3310695.0,-0.002,0.124,-0.048,-1.8,-0.9,-0.3,805,909,0,,,,
R,,3310755.0,0.007,0.124,-0.031,-0.8,-0.7,1.3,805,906,0,,,,
R,,3310815.0,0.013,0.123,-0.028,-0.4,-0.6,1.2,807,906,0,,,,
R,,3310875.0,0.015,0.121,-0.033,-0.6,-0.2,-0.1,804,906,0,,,,
R,,3310935.0,0.003,0.12,-0.057,-2.2,-0.2,0.4,804,906,0,,,,
R,,3310995.0,0.011,0.12,-0.031,-1.3,1.4,0.5,805,906,0,,,,
R,,3311055.0,0.012,0.118,-0.028,-1.4,1.1,-0.2,803,906,0,,,,
R,,3311115.0,0.012,0.119,-0.023,-1.6,1.2,-1.1,801,904,0,,,,
R,,3311175.0,0.009,0.12,-0.03,-2.9,0.7,0.0,800,901,0,,,,
R,,3311237.0,0.013,0.126,-0.029,-3.7,1.6,-0.6,795,899,0,,,,
R,,3311295.0,0.014,0.127,-0.019,-5.1,0.6,-1.5,791,896,0,,,,
R,,3311385.0,0.029,0.135,-0.042,-8.7,-2.0,-2.6,785,895,0,,,,
R,,3311445.0,0.042,0.163,0.005,-1.2,-0.9,0.5,675,884,0,,,,
R,,3311505.0,-0.002,0.094,-0.036,0.5,-1.2,-2.0,604,767,0,,,,
R,,3311565.0,-0.019,0.114,-0.008,-1.7,3.0,-1.4,611,765,0,,,,
R,,3311655.0,-0.005,0.138,0.006,-4.6,-5.8,-2.2,603,755,0,,,,
R,,3311715.0,0.003,0.128,0.016,-4.0,-2.5,-3.4,598,755,0,,,,
R,,3311775.0,0.005,0.118,0.013,-4.2,-4.3,-4.1,597,756,0,,,,
R,,3311835.0,0.008,0.115,0.006,-3.7,-6.6,-4.0,589,756,0,,,,
R,,3311895.0,0.011,0.114,0.005,-3.6,-4.6,-3.0,591,749,0,,,,
R,,3311955.0,0.007,0.116,0.016,-2.0,-3.6,-2.4,590,753,0,,,,
R,,3312016.0,0.01,0.114,0.03,-0.8,-3.0,-1.5,585,753,0,,,,
R,,3312105.0,0.0,0.12,0.027,0.0,-1.9,0.0,575,744,0,,,,
R,,3312165.0,-0.001,0.117,0.018,0.0,-3.3,0.0,571,741,0,,,,
R,,3312225.0,-0.003,0.111,0.018,1.4,-0.7,-0.1,579,743,0,,,,
R,,3312285.0,-0.006,0.112,0.02,1.7,-0.6,0.1,569,741,0,,,,
R,,3312345.0,0.003,0.113,0.011,1.6,-1.1,1.2,575,742,0,,,,
R,,3312405.0,0.005,0.117,0.02,1.3,-2.1,1.6,582,743,0,,,,
R,,3312465.0,0.016,0.123,0.021,2.2,-2.1,2.1,588,747,0,,,,
R,,3312525.0,0.019,0.126,0.029,2.2,2.8,1.6,590,751,0,,,,
R,,3312585.0,0.009,0.122,0.011,3.3,6.1,1.6,591,750,0,,,,
R,,3312645.0,0.01,0.119,0.016,4.1,2.7,2.8,596,752,0,,,,
R,,3312735.0,0.017,0.126,0.011,4.0,1.7,3.4,600,756,0,,,,
R,,3312796.0,0.009,0.124,0.014,5.1,2.6,2.6,601,756,0,,,,
R,,3312855.0,0.007,0.122,0.007,3.5,1.5,2.7,604,760,0,,,,
R,,3312915.0,0.006,0.127,0.003,3.7,2.4,2.3,601,760,0,,,,
R,,3312975.0,0.009,0.126,0.003,3.4,1.3,1.1,594,762,0,,,,
R,,3313035.0,0.0,0.122,0.002,4.2,1.8,-0.9,573,756,0,,,,
R,,3313125.0,-0.076,0.093,-0.037,6.2,11.0,-8.7,395,765,0,,,,
R,,3313185.0,0.046,0.12,-0.026,8.5,-1.2,-6.2,543,875,0,,,,
R,,3313275.0,0.024,0.141,-0.021,-1.4,-2.2,5.9,777,899,0,,,,
R,,3313365.0,0.013,0.141,-0.042,6.4,1.4,1.7,795,903,0,,,,
R,,3313425.0,0.016,0.122,-0.03,4.6,3.5,-0.7,797,903,0,,,,
R,,3313485.0,0.011,0.113,-0.03,2.1,-0.2,-2.2,798,903,0,,,,
R,,3313546.0,0.01,0.116,-0.032,1.7,-0.9,-3.0,797,902,0,,,,
R,,3313605.0,-0.001,0.121,-0.042,0.9,-2.2,-0.8,803,907,0,,,,
R,,3313666.0,0.005,0.122,-0.034,2.0,0.2,0.0,800,904,0,,,,
R,,3313755.0,0.008,0.113,-0.041,0.2,-1.0,-1.9,798,907,0,,,,
R,,3313815.0,0.005,0.117,-0.045,1.1,0.8,-2.0,803,911,0,,,,
R,,3313875.0,0.007,0.118,-0.044,0.7,0.4,-1.7,801,907,0,,,,
R,,3313935.0,0.0,0.118,-0.051,1.0,1.8,-1.4,797,907,0,,,,
R,,3313995.0,0.001,0.112,-0.042,1.2,2.1,-1.6,797,906,0,,,,
R,,3314055.0,-0.001,0.116,-0.048,-0.5,-1.4,-0.3,797,906,0,,,,
R,,3314115.0,0.013,0.114,-0.054,-1.9,-2.2,-0.4,799,906,0,,,,
R,,3314175.0,0.004,0.116,-0.048,1.1,1.9,-1.3,801,907,0,,,,
R,,3314235.0,-0.003,0.116,-0.047,0.0,0.4,0.0,800,907,0,,,,
R,,3314296.0,0.004,0.114,-0.042,0.1,0.0,0.4,802,907,0,,,,
R,,3314355.0,0.003,0.116,-0.039,-1.7,-2.2,0.7,804,911,0,,,,
R,,3314416.0,0.0,0.118,-0.043,-0.7,0.4,0.0,802,908,0,,,,
R,,3314475.0,0.005,0.118,-0.04,-0.8,0.0,0.0,799,904,0,,,,
R,,3314535.0,0.005,0.118,-0.047,-1.3,0.4,0.1,799,904,0,,,,
R,,3314595.0,0.003,0.121,-0.039,-1.1,1.5,0.1,796,900,0,,,,
R,,3314654.0,0.011,0.123,-0.029,-1.9,0.7,0.0,793,900,0,,,,
R,,3314715.0,0.005,0.122,-0.031,-2.3,0.1,0.0,790,896,0,,,,
R,,3314805.0,0.009,0.121,-0.035,-3.4,0.0,0.9,787,894,0,,,,
R,,3314865.0,0.008,0.124,-0.029,-4.5,-0.5,0.9,784,890,0,,,,
R,,3314925.0,0.011,0.125,-0.025,-6.0,-0.3,-0.2,782,890,0,,,,
R,,3314985.0,-0.002,0.125,-0.016,-6.5,-2.0,-0.7,782,894,0,,,,
R,,3315046.0,0.016,0.149,0.001,-5.5,-10.6,3.5,680,892,0,,,,
R,,3315105.0,0.015,0.143,0.018,1.3,4.3,0.0,566,813,0,,,,
R,,3315166.0,-0.015,0.155,0.013,-8.5,-4.0,2.5,566,741,0,,,,
R,,3315225.0,0.004,0.158,0.0,-3.8,-7.1,-1.6,543,734,0,,,,
R,,3315285.0,-0.007,0.144,0.034,-4.0,-8.3,-2.0,533,736,0,,,,
R,,3315345.0,0.016,0.132,0.01,-5.6,-6.1,-3.4,540,741,0,,,,
R,,3315405.0,0.0,0.113,0.0,-3.3,-4.4,-4.1,521,732,0,,,,
R,,3315465.0,0.017,0.112,0.0,-3.8,-7.6,-2.7,530,735,0,,,,
R,,3315525.0,-0.012,0.11,0.013,-2.0,-4.9,-3.2,511,735,0,,,,
R,,3315615.0,0.022,0.119,0.018,-1.1,-3.4,-2.1,540,738,0,,,,
R,,3315675.0,0.015,0.11,0.007,-1.7,-0.3,-1.4,541,741,0,,,,
R,,3315737.0,0.017,0.117,0.027,1.2,-1.2,-0.3,546,746,0,,,,
R,,3315795.0,0.014,0.114,0.01,-0.2,-0.7,1.2,551,745,0,,,,
R,,3315885.0,0.012,0.117,0.02,1.8,1.4,1.5,548,743,0,,,,
R,,3315945.0,0.028,0.122,0.025,2.5,0.5,2.8,554,746,0,,,,
R,,3316005.0,0.013,0.117,0.012,1.2,3.5,2.2,552,742,0,,,,
R,,3316065.0,0.016,0.125,0.026,2.5,3.4,2.4,544,739,0,,,,
R,,3316125.0,0.013,0.126,0.02,2.6,1.3,2.6,549,744,0,,,,
R,,3316185.0,0.011,0.127,0.01,2.2,3.0,2.1,550,747,0,,,,
R,,3316246.0,0.006,0.121,0.0,2.7,3.7,1.6,555,742,0,,,,
R,,3316305.0,0.01,0.124,0.01,3.8,4.6,0.7,556,743,0,,,,
R,,3316365.0,-0.009,0.116,0.007,1.9,4.4,0.8,549,743,0,,,,
R,,3316424.0,0.009,0.123,0.026,3.4,4.1,0.0,556,747,0,,,,
R,,3316487.0,0.016,0.116,0.004,1.6,0.0,-0.5,550,743,0,,,,
R,,3316545.0,-0.007,0.119,-0.014,3.5,5.8,-2.8,522,735,0,,,,
R,,3316605.0,-0.144,0.199,0.079,0.0,-35.5,17.1,469,855,0,,,,
R,,3316666.0,0.048,0.1,-0.046,9.3,3.4,9.4,629,895,0,,,,
R,,3316725.0,0.013,0.134,-0.024,2.2,5.5,-0.6,780,903,0,,,,
R,,3316785.0,0.027,0.129,0.0,5.5,1.4,-1.1,793,904,0,,,,
R,,3316845.0,0.013,0.121,-0.021,4.0,-4.4,-1.6,795,900,0,,,,
R,,3316905.0,0.005,0.122,-0.043,2.2,-2.3,-0.5,800,902,0,,,,
R,,3316965.0,0.019,0.116,-0.032,2.6,0.0,-1.7,798,905,0,,,,
R,,3317025.0,0.001,0.119,-0.038,2.2,0.6,-1.4,798,906,0,,,,
R,,3317085.0,0.014,0.121,-0.033,1.4,-1.3,-0.9,799,907,0,,,,
R,,3317147.0,0.001,0.121,-0.048,0.9,-0.9,-0.2,801,908,0,,,,
R,,3317206.0,0.007,0.115,-0.027,1.6,1.1,1.0,800,909,0,,,,
R,,3317265.0,0.009,0.112,-0.034,-0.1,-2.1,0.3,795,909,0,,,,
R,,3317325.0,0.008,0.116,-0.041,0.4,-1.1,-0.4,796,905,0,,,,
R,,3317385.0,0.011,0.116,-0.042,0.5,-0.6,-0.3,793,907,0,,,,
R,,3317445.0,0.007,0.115,-0.048,-0.4,-1.2,0.1,794,908,0,,,,
R,,3317505.0,0.01,0.117,-0.051,0.4,0.7,0.0,795,905,0,,,,
R,,3317565.0,0.012,0.115,-0.041,0.4,0.1,0.2,796,905,0,,,,
R,,3317625.0,0.008,0.116,-0.042,-0.5,-0.3,0.3,798,905,0,,,,
R,,3317685.0,0.011,0.115,-0.041,-0.1,0.4,0.0,797,906,0,,,,
R,,3317746.0,0.007,0.115,-0.04,-1.0,-1.0,0.0,798,905,0,,,,
R,,3317805.0,0.011,0.116,-0.045,-0.9,-0.3,0.0,801,906,0,,,,
R,,3317867.0,0.007,0.117,-0.039,-1.0,0.2,0.2,803,911,0,,,,
R,,3317925.0,0.012,0.119,-0.033,-1.6,-0.5,0.8,800,907,0,,,,
R,,3317985.0,0.011,0.118,-0.034,-1.9,-1.0,0.8,801,908,0,,,,
R,,3318045.0,0.014,0.121,-0.034,-2.4,-0.8,1.0,801,907,0,,,,
R,,3318105.0,0.013,0.117,-0.029,-1.7,0.4,0.5,803,905,0,,,,
R,,3318166.0,0.018,0.124,-0.029,-3.2,-1.4,1.4,801,906,0,,,,
R,,3318225.0,0.02,0.126,-0.03,-3.1,0.7,1.5,806,908,0,,,,
R,,3318286.0,0.026,0.124,-0.017,-4.8,-1.1,0.5,802,904,0,,,,
R,,3318345.0,0.017,0.126,-0.027,-6.0,0.7,-1.2,800,903,0,,,,
R,,3318405.0,0.029,0.145,-0.011,-5.0,-5.2,1.4,729,903,0,,,,
R,,3318465.0,0.021,0.139,0.03,0.1,4.8,3.9,536,852,0,,,,
R,,3318555.0,0.003,0.134,-0.022,-4.4,-13.4,3.5,559,754,0,,,,
R,,3318617.0,0.005,0.111,-0.048,-0.7,-8.0,-3.6,567,748,0,,,,
R,,3318675.0,0.024,0.139,0.065,-6.7,-2.9,-4.8,557,745,0,,,,
R,,3318735.0,0.009,0.124,0.02,-5.0,-4.6,-7.5,558,741,0,,,,
R,,3318795.0,0.008,0.111,-0.022,-4.8,-2.4,-5.6,566,743,0,,,,
R,,3318855.0,0.008,0.106,-0.003,-2.7,-1.5,-4.4,560,736,0,,,,
R,,3318916.0,0.029,0.103,-0.002,-1.8,-10.3,-0.9,567,741,0,,,,
R,,3318975.0,0.023,0.105,0.003,0.0,-4.9,0.0,568,743,0,,,,
R,,3319036.0,0.034,0.104,0.005,0.4,-1.2,0.0,569,748,0,,,,
R,,3319095.0,0.018,0.108,0.004,2.0,2.0,-0.3,570,742,0,,,,
R,,3319155.0,0.025,0.113,0.014,2.1,0.1,0.3,576,747,0,,,,
R,,3319215.0,0.016,0.117,-0.003,4.4,3.5,-0.4,575,750,0,,,,
R,,3319277.0,0.019,0.116,-0.022,5.3,6.4,-1.6,579,751,0,,,,
R,,3319335.0,0.02,0.116,-0.021,6.5,8.9,-1.2,578,747,0,,,,
R,,3319395.0,0.032,0.116,-0.015,6.1,7.1,2.5,583,752,0,,,,
R,,3319456.0,0.033,0.127,-0.011,5.7,6.9,5.7,581,752,0,,,,
R,,3319515.0,0.033,0.139,-0.002,6.8,8.3,6.6,585,754,0,,,,
R,,3319576.0,0.022,0.136,-0.002,5.1,9.0,7.0,581,748,0,,,,
R,,3319635.0,0.017,0.135,0.006,3.4,8.0,7.1,581,748,0,,,,
R,,3319695.0,0.004,0.129,-0.013,1.5,5.0,7.4,569,744,0,,,,
R,,3319755.0,-0.003,0.131,0.009,1.6,5.2,5.7,579,747,0,,,,
R,,3319815.0,-0.02,0.135,-0.005,1.3,1.5,0.1,593,751,0,,,,
R,,3319875.0,0.097,0.133,-0.071,17.5,-4.0,-17.9,697,804,0,,,,
R,,3319935.0,0.016,0.16,0.013,10.2,1.9,-14.6,722,822,0,,,,
R,,3319997.0,0.029,0.139,-0.023,-0.7,-5.2,-7.8,748,850,0,,,,
R,,3320055.0,0.017,0.131,-0.057,-0.4,-3.6,-4.0,767,870,0,,,,
R,,3320116.0,0.018,0.124,-0.029,-0.1,-2.6,-3.0,777,881,0,,,,
R,,3320175.0,0.015,0.121,-0.032,0.4,-2.1,-2.1,785,888,0,,,,
R,,3320235.0,0.012,0.115,-0.039,0.1,-2.0,-1.7,777,893,0,,,,
R,,3320295.0,0.012,0.116,-0.033,1.4,-3.0,-2.7,767,895,0,,,,
R,,3320355.0,0.009,0.121,-0.039,0.3,-2.9,-2.5,762,898,0,,,,
R,,3320416.0,0.001,0.119,-0.042,-0.3,-0.5,-2.2,751,900,0,,,,
R,,3320475.0,0.003,0.12,-0.035,0.4,0.1,-2.5,734,901,0,,,,
R,,3320536.0,-0.001,0.118,-0.031,-0.7,-3.1,-1.4,712,904,0,,,,
R,,3320595.0,-0.003,0.112,-0.058,0.2,-0.2,-3.1,706,901,0,,,,
R,,3320656.0,0.0,0.129,-0.031,0.3,0.0,-4.1,707,901,0,,,,
R,,3320717.0,-0.01,0.129,-0.035,-0.7,-3.4,-4.3,650,906,0,,,,
R,,3320775.0,-0.006,0.133,-0.041,-2.5,-4.5,-6.0,584,909,0,,,,
R,,3320834.0,-0.012,0.133,-0.049,-4.0,-4.1,-6.8,522,910,0,,,,
R,,3320895.0,0.002,0.149,-0.014,-6.2,-6.9,-7.5,432,908,0,,,,
R,,3320956.0,0.03,0.169,-0.014,-4.9,-4.1,-13.2,300,907,0,,,,
R,,3321015.0,-0.05,0.197,-0.048,-0.9,0.9,-20.9,216,903,0,,,,
R,,3321076.0,0.002,0.082,-0.05,0.5,2.9,-22.5,403,645,0,,,,
