side,stage,device_ms,ax,ay,az,gx,gy,gz,toe,heel,phase
L,,2126753,0.079,0.911,0.163,10.8,0.7,-2.8,254,333,0
L,,2126763,0.052,0.864,0.092,9.5,-0.2,-3.0,241,321,0
L,,2126773,-0.101,0.970,0.041,7.7,-1.1,-3.9,258,329,0
L,,2126783,0.015,0.935,0.032,5.2,-2.1,-4.4,266,327,0
L,,2126793,-0.077,0.950,0.170,3.3,-3.2,-4.7,270,341,0
L,,2126803,-0.063,0.912,0.200,3.3,-3.1,-3.6,272,332,0
L,,2126813,-0.157,0.932,0.162,3.0,-2.8,-3.5,267,345,0
L,,2126823,-0.257,0.949,0.167,3.0,-2.2,-3.2,261,354,0
L,,2126833,-0.245,0.972,0.214,3.4,-0.9,-2.5,266,356,0
L,,2126843,-0.264,0.992,0.257,3.9,-0.1,-2.0,266,358,0
L,,2126853,-0.273,1.007,0.257,4.4,0.9,-1.5,270,363,0
L,,2126863,-0.215,1.002,0.190,4.4,2.4,-1.3,269,365,0
L,,2126873,-0.118,0.977,0.139,3.8,2.6,-1.3,267,365,0
L,,2126883,-0.099,0.992,0.124,3.6,2.0,-1.5,272,368,0
L,,2126893,-0.137,0.999,0.129,3.4,1.0,-1.5,266,370,0
L,,2126903,-0.191,0.998,0.142,3.2,0.7,-1.4,265,359,0
L,,2126913,-0.225,0.976,0.132,3.2,0.8,-1.2,264,355,0
L,,2126923,-0.218,0.980,0.135,3.2,1.3,-1.0,262,358,0
L,,2126933,-0.224,0.997,0.158,3.4,1.8,-0.9,250,335,0
L,,2126943,-0.224,1.005,0.139,3.3,2.4,-0.9,262,329,0
L,,2126953,-0.208,0.977,0.109,3.3,2.6,-0.8,252,322,0
L,,2126963,-0.181,0.963,0.086,3.1,2.5,-0.8,243,307,0
L,,2126973,-0.170,0.962,0.079,2.9,2.3,-0.7,234,297,0
L,,2126983,-0.189,0.975,0.085,2.8,2.0,-0.6,180,230,0
L,,2126993,-0.191,1.001,0.088,2.8,1.9,-0.5,220,293,0
L,,2127003,-0.201,0.994,0.092,2.8,2.1,-0.6,231,306,0
L,,2127013,-0.204,0.975,0.100,2.8,2.2,-0.6,228,282,0
L,,2127023,-0.228,1.012,0.117,2.7,2.2,-0.7,228,285,0
L,,2127033,-0.192,1.008,0.095,3.0,2.2,-0.1,222,275,0
L,,2127043,-0.206,0.996,0.075,3.2,2.5,-0.7,209,259,0
L,,2127053,-0.210,0.990,0.084,3.0,2.4,-0.7,199,231,0
L,,2127063,-0.150,0.964,0.047,2.8,2.1,-0.5,213,258,0
L,,2127073,-0.147,0.999,0.043,2.8,1.6,-0.6,188,250,0
L,,2127083,-0.185,0.999,0.043,2.8,1.4,-0.8,171,264,0
L,,2127093,-0.199,1.005,0.041,2.8,1.5,-1.1,201,281,0
L,,2127103,-0.182,0.994,0.040,2.8,1.6,-1.3,190,258,0
L,,2127113,-0.171,0.983,0.049,3.0,1.7,-1.2,181,256,0
L,,2127123,-0.189,1.011,0.068,3.3,1.5,-1.5,133,170,0
L,,2127133,-0.181,1.006,0.074,3.6,1.6,-1.8,167,226,0
L,,2127143,-0.171,1.010,0.062,3.9,1.9,-2.0,165,229,0
L,,2127153,-0.187,1.034,0.064,4.4,2.0,-2.5,149,212,0
L,,2127163,-0.183,1.081,0.082,5.0,2.2,-2.6,107,153,0
L,,2127173,-0.173,1.084,0.105,5.7,2.3,-2.9,112,234,0
L,,2127183,-0.182,1.093,0.110,6.6,2.1,-3.2,108,201,0
L,,2127193,-0.188,1.080,0.114,7.4,2.1,-3.4,98,209,0
L,,2127203,-0.178,1.061,0.090,8.3,1.8,-3.6,132,243,0
L,,2127213,-0.212,1.079,0.088,9.3,1.5,-3.8,114,251,0
L,,2127223,-0.230,1.113,0.099,10.2,1.5,-3.9,99,218,0
L,,2127233,-0.266,1.163,0.087,11.0,1.5,-4.1,91,257,0
L,,2127243,-0.288,1.163,0.088,11.7,1.8,-4.2,51,267,0
L,,2127253,-0.310,1.228,0.077,12.6,2.4,-4.7,29,161,0
L,,2127263,-0.301,1.233,0.062,13.4,2.9,-5.1,32,164,0
L,,2127273,-0.277,1.246,0.022,14.0,3.2,-5.0,36,217,0
L,,2127283,-0.242,1.403,-0.015,14.7,3.6,-5.3,38,230,0
L,,2127293,-0.256,1.458,-0.036,15.5,4.6,-6.1,39,236,0
L,,2127303,-0.211,1.528,-0.045,16.1,4.8,-6.5,38,231,0
L,,2127313,-0.170,1.543,-0.084,17.0,5.3,-6.4,33,210,0
L,,2127323,-0.030,1.590,-0.062,17.3,4.4,-7.7,40,215,0
L,,2127333,0.074,1.710,-0.060,18.3,3.8,-8.0,46,247,0
L,,2127343,0.123,1.800,0.030,18.9,3.0,-9.1,19,97,0
L,,2127353,-0.001,1.959,0.189,19.4,2.2,-9.3,14,91,0
L,,2127363,-0.134,2.061,0.384,19.7,3.1,-10.4,6,89,0
L,,2127373,-0.118,2.159,0.613,19.7,6.4,-11.5,5,47,0
L,,2127383,-0.007,2.173,0.866,19.8,9.5,-12.5,20,84,0
L,,2127393,0.083,2.054,0.933,19.2,13.6,-13.7,20,79,0
L,,2127403,0.185,1.796,0.833,19.3,19.5,-13.8,9,43,0
L,,2127413,0.137,1.503,0.529,19.7,26.8,-13.7,20,73,0
L,,2127423,0.024,1.029,-0.186,20.8,33.3,-12.6,22,83,0
L,,2127433,-0.391,0.824,-0.465,22.9,40.3,-7.6,29,104,0
L,,2127443,-0.343,0.925,-0.702,23.2,40.5,-4.2,30,97,0
L,,2127453,-0.092,0.965,-0.791,17.2,35.0,-3.8,45,160,0
L,,2127463,-0.103,0.966,-0.944,13.2,20.3,-7.7,38,134,0
L,,2127473,-0.436,0.801,-0.688,10.7,12.5,-11.4,36,127,0
L,,2127483,-0.933,1.723,0.269,7.1,11.7,-17.8,60,119,0
L,,2127493,-0.216,0.647,0.255,9.5,18.8,-10.5,73,120,0
L,,2127503,-0.361,-0.467,-0.278,-0.7,16.1,-5.2,72,116,0
L,,2127513,-0.026,-0.201,-0.429,4.3,10.2,-1.3,67,119,0
L,,2127523,0.058,0.148,-0.125,-0.8,5.6,-6.0,70,131,0
L,,2127533,0.314,0.277,-0.065,0.1,1.2,-4.0,69,138,0
L,,2127543,0.185,0.045,0.142,-3.2,-2.4,-4.6,71,131,0
L,,2127553,0.125,-0.109,0.351,-6.7,-2.0,-5.5,69,131,0
L,,2127563,0.182,-0.155,0.386,-9.7,-0.6,-5.5,65,131,0
L,,2127573,0.301,-0.087,0.286,-12.3,-0.1,-4.0,61,98,0
L,,2127583,0.418,-0.016,0.219,-15.3,0.3,-1.8,62,94,0
L,,2127593,0.418,0.237,0.143,-17.8,0.4,-0.7,58,98,0
L,,2127603,0.415,0.235,0.054,-19.9,-0.5,0.3,70,118,0
L,,2127613,0.371,0.213,-0.011,-21.9,-2.6,0.9,60,98,0
L,,2127623,0.338,0.245,-0.043,-23.8,-4.4,2.2,63,104,0
L,,2127633,0.334,0.286,-0.081,-25.4,-6.5,3.5,61,105,0
L,,2127643,0.308,0.343,-0.070,-27.2,-10.0,5.2,64,103,0
L,,2127653,0.282,0.395,-0.017,-29.2,-12.3,6.7,61,103,0
L,,2127663,0.263,0.455,0.016,-30.8,-13.5,8.1,60,105,0
L,,2127673,0.223,0.595,0.061,-32.9,-14.9,10.5,65,107,0
L,,2127683,0.225,0.658,0.183,-35.2,-14.7,11.0,74,130,0
L,,2127693,0.234,0.759,0.278,-37.3,-13.3,12.2,78,130,0
L,,2127703,0.116,0.939,0.330,-37.3,-10.9,13.1,61,107,0
L,,2127713,-0.182,1.098,0.333,-35.8,-8.2,13.9,64,109,0
L,,2127723,-0.398,1.190,0.261,-33.2,-7.0,15.1,56,110,0
L,,2127733,-0.113,1.090,0.128,-36.4,-4.1,17.8,63,101,0
L,,2127743,0.117,1.336,0.438,-38.4,0.7,19.1,63,98,0
L,,2127753,0.020,1.780,0.344,-36.0,8.9,17.3,68,118,0
L,,2127763,-0.323,1.947,0.039,-34.4,11.6,16.8,61,101,0
L,,2127773,-0.361,1.965,-0.160,-38.0,13.4,17.9,61,104,0
L,,2127783,-0.203,2.255,-0.153,-39.9,16.0,17.6,60,106,0
L,,2127793,-0.015,2.304,-0.216,-40.2,19.9,16.7,45,140,0
L,,2127803,-0.032,2.241,-0.484,-40.4,20.2,14.9,44,132,0
L,,2127813,-0.205,2.294,-0.774,-39.7,20.0,12.1,54,106,0
L,,2127823,-0.227,2.124,-0.892,-38.0,18.9,9.9,56,107,0
L,,2127833,0.041,2.148,-1.000,-34.7,15.7,8.6,41,134,0
L,,2127843,0.143,1.982,-1.134,-30.7,11.9,7.9,37,138,0
L,,2127853,-0.147,1.753,-1.269,-26.2,8.5,7.1,30,100,0
L,,2127863,-0.576,1.737,-1.462,-19.3,4.8,5.9,29,98,0
L,,2127873,-0.849,1.685,-1.494,-11.6,3.9,4.7,26,88,0
L,,2127883,-0.696,1.495,-1.347,-2.8,7.1,2.2,45,88,0
L,,2127893,-0.619,1.757,-0.904,6.2,12.7,-3.2,58,127,0
L,,2127903,-0.260,1.223,-1.117,12.6,10.9,-3.6,66,136,0
L,,2127913,-0.213,0.804,-0.856,15.6,8.2,-4.2,140,156,0
L,,2127923,0.837,1.199,1.072,9.3,5.7,-3.5,185,140,0
L,,2127933,1.981,1.502,2.271,12.7,-1.4,1.6,231,183,0
L,,2127943,1.570,1.727,1.559,11.7,4.6,-1.3,220,180,0
L,,2127953,0.574,1.533,-0.548,16.6,7.8,-5.4,234,201,0
L,,2127963,-0.320,1.492,-1.484,19.2,7.2,-5.9,269,225,0
L,,2128011,-0.338,0.894,0.257,5.1,-24.4,-6.4,217,224,0
L,,2128071,-0.024,0.878,0.165,7.7,2.8,-2.4,287,332,0
L,,2128130,-0.163,0.928,0.215,1.7,-4.4,-4.1,287,321,0
L,,2128191,-0.125,0.968,0.107,4.4,1.8,-1.0,300,337,0
L,,2128250,-0.240,0.993,0.203,2.4,0.4,-1.2,337,355,0
L,,2128311,-0.121,0.992,0.136,3.2,1.5,-0.7,291,337,0
L,,2128373,-0.162,1.004,0.105,4.1,1.6,-1.1,262,333,0
L,,2128431,-0.212,1.008,0.083,4.8,1.3,-2.1,240,276,0
L,,2128491,-0.195,1.084,0.119,8.2,1.5,-3.5,156,221,0
L,,2128551,-0.327,1.228,0.089,13.4,1.9,-4.7,46,139,0
L,,2128611,-0.212,1.663,-0.032,18.3,4.5,-6.9,32,202,0
L,,2128670,0.046,2.149,0.721,20.5,7.9,-12.7,18,82,0
L,,2128731,-0.415,0.639,-0.713,22.0,39.6,-4.9,35,113,0
L,,2128791,-0.406,-0.529,-0.863,2.4,17.1,-4.4,73,117,0
L,,2128851,0.404,-0.024,0.480,-12.0,4.3,-5.3,61,98,0
L,,2128941,0.368,0.483,0.130,-32.1,-10.7,9.0,84,133,0
L,,2129000,-0.268,1.215,0.138,-35.7,-7.4,15.7,79,125,0
L,,2129091,-0.380,2.241,-0.799,-39.6,20.2,9.6,41,100,0
L,,2129153,-0.804,1.691,-1.497,-10.2,7.5,4.4,40,71,0
L,,2129210,1.619,1.586,2.026,10.9,9.5,1.4,259,235,0
L,,2129271,-0.240,0.826,-0.223,11.4,-15.4,-6.0,292,325,0
L,,2129331,-0.086,0.909,0.105,10.3,0.5,-1.4,296,356,0
L,,2129391,-0.124,0.958,0.093,2.9,-1.7,-3.5,296,376,0
L,,2129451,-0.343,0.991,0.192,4.2,1.2,-1.1,291,399,0
L,,2129511,-0.114,0.994,0.074,2.8,1.0,-1.5,316,399,0
L,,2129571,-0.225,1.035,0.161,2.9,2.4,-1.6,318,391,0
L,,2129631,-0.142,0.940,0.022,3.1,0.9,-1.4,251,313,0
L,,2129691,-0.226,0.982,0.062,3.0,1.0,-2.1,262,364,0
L,,2129750,-0.208,1.119,0.175,6.6,2.3,-3.6,210,245,0
L,,2129811,-0.332,1.181,0.092,12.7,3.0,-4.6,61,171,0
L,,2129873,-0.110,1.709,-0.045,17.5,7.0,-6.9,38,193,0
L,,2129931,0.238,2.345,0.846,21.0,9.6,-12.4,27,66,0
L,,2129991,-0.113,1.029,-0.136,24.5,35.9,-4.6,13,74,0
L,,2130051,-0.291,0.055,-1.039,8.2,16.0,-8.7,36,71,0
L,,2130141,0.541,0.113,0.209,-22.0,4.9,-1.3,75,115,0
L,,2130201,0.397,0.477,-0.097,-34.3,-11.8,8.6,84,117,0
L,,2130261,-0.185,1.197,0.181,-36.8,-4.6,18.0,88,123,0
L,,2130351,-0.359,2.560,-0.918,-39.6,22.5,10.9,43,96,0
L,,2130441,1.015,1.014,3.140,8.0,7.6,-4.1,164,134,0
L,,2130500,-0.279,1.468,-0.326,15.3,1.7,-5.6,293,330,0
L,,2130561,-0.370,1.023,0.199,11.4,-2.3,-2.0,304,340,0
L,,2130623,0.000,0.906,0.078,3.6,-2.8,-3.8,263,431,0
L,,2130681,-0.359,0.957,0.222,4.6,1.9,-1.2,297,393,0
L,,2130741,-0.139,0.966,0.135,2.9,0.4,-1.4,286,450,0
L,,2130801,-0.135,0.996,0.141,4.2,2.7,-1.1,256,386,0
L,,2130861,-0.208,1.007,0.090,4.2,2.0,-1.6,221,312,0
L,,2130921,-0.240,1.011,0.060,3.8,1.9,-2.3,256,243,0
L,,2130981,-0.175,1.106,0.108,6.1,3.2,-3.7,93,185,0
L,,2131041,-0.252,1.207,0.094,12.1,0.4,-5.5,35,157,0
L,,2131101,-0.179,1.571,-0.005,17.0,5.1,-7.6,51,239,0
L,,2131161,0.062,2.386,0.789,20.8,10.5,-12.9,11,73,0
L,,2131221,-0.105,0.923,-0.285,24.9,35.7,-4.0,26,88,0
L,,2131281,-0.710,-0.327,-0.320,0.2,16.2,-3.5,58,95,0
L,,2131342,-0.220,-0.217,0.485,-11.7,1.2,-2.6,52,127,0
L,,2131401,0.325,0.142,-0.021,-23.8,-0.4,1.8,63,127,0
L,,2131461,0.278,0.693,0.201,-35.4,-12.2,12.1,52,132,0
L,,2131521,0.170,1.322,0.276,-39.7,-3.2,18.8,45,130,0
L,,2131581,-0.264,2.339,-0.645,-38.8,12.7,17.5,34,98,0
L,,2131641,-0.508,1.729,-1.650,-16.1,7.5,4.0,36,98,0
L,,2131701,0.477,0.991,2.816,7.4,5.9,-4.9,205,169,0
L,,2131761,-0.513,1.031,-0.416,11.3,-4.9,-7.0,275,345,0
L,,2131821,-0.325,0.862,0.243,11.0,1.5,-1.2,276,375,0
L,,2131881,0.047,0.940,0.037,1.8,-3.5,-3.9,290,401,0
L,,2131941,-0.398,0.996,0.162,5.0,0.5,-0.8,291,445,0
L,,2132001,-0.024,1.014,0.052,2.7,1.1,-1.5,302,394,0
L,,2132063,-0.125,0.999,0.081,4.5,2.2,-0.8,314,345,0
L,,2132121,-0.141,0.986,0.063,5.6,0.1,-1.8,256,317,0
L,,2132181,-0.184,1.022,0.002,5.6,0.5,-1.9,178,209,0
L,,2132271,-0.218,1.151,0.048,11.5,0.0,-3.6,86,162,0
L,,2132331,-0.170,1.481,-0.112,16.5,2.6,-4.5,34,164,0
L,,2132391,-0.061,2.369,0.419,21.3,2.9,-8.5,32,161,0
L,,2132451,0.022,1.066,0.152,21.8,33.6,-8.8,30,91,0
L,,2132511,-0.814,1.114,0.534,7.0,4.3,-14.6,59,84,0
L,,2132571,0.251,0.068,0.389,-4.9,1.0,-7.1,72,113,0
L,,2132631,0.501,0.075,0.004,-21.7,-9.6,-0.9,68,105,0
L,,2132691,0.188,0.668,0.256,-34.8,-17.0,10.1,69,113,0
L,,2132752,-0.054,1.369,0.457,-38.1,0.0,16.3,78,118,0
L,,2132841,-0.109,2.026,-0.671,-37.7,25.8,4.9,82,133,0
L,,2132901,-0.285,1.571,-1.807,-6.2,1.1,0.9,69,100,0
L,,2132961,1.732,1.631,1.733,10.4,0.1,-0.3,250,232,0
L,,2133021,-0.187,0.637,0.192,10.9,-17.9,-7.3,325,378,0
L,,2133082,-0.277,1.123,0.020,12.3,1.0,-2.5,281,412,0
L,,2133141,-0.203,1.001,0.190,3.2,-2.3,-3.4,308,402,0
L,,2133201,-0.139,0.979,0.115,4.1,3.3,-0.5,310,402,0
L,,2133260,-0.235,1.001,0.177,3.3,1.7,-0.9,260,392,0
L,,2133321,-0.143,1.004,0.102,4.6,1.8,-1.3,250,339,0
L,,2133411,-0.193,0.977,0.018,5.3,0.9,-2.3,195,237,0
L,,2133471,-0.169,1.101,0.048,7.3,1.8,-3.5,87,188,0
L,,2133533,-0.337,1.198,0.090,11.9,1.3,-4.0,43,186,0
L,,2133591,-0.131,1.506,-0.076,16.5,4.6,-6.0,28,142,0
L,,2133651,0.075,2.315,0.563,21.3,4.9,-11.0,32,157,0
L,,2133711,-0.252,0.880,-0.162,24.4,33.6,-7.4,27,91,0
L,,2133771,-0.753,-0.691,-0.053,5.2,15.0,-5.0,61,77,0
L,,2133832,-0.158,-0.206,0.530,-8.5,-4.5,-4.2,51,102,0
L,,2133891,0.279,0.181,0.000,-22.1,0.9,3.0,55,91,0
L,,2133951,0.156,0.584,0.034,-33.7,-8.5,9.4,54,106,0
L,,2134011,-0.345,1.226,0.123,-36.5,-2.5,14.4,71,107,0
L,,2134071,-0.143,2.343,-0.249,-41.1,20.2,14.3,45,97,0
L,,2134131,-0.441,1.794,-1.497,-22.9,8.8,7.2,47,110,0
L,,2134191,1.424,1.153,2.257,11.8,4.1,0.8,209,205,0
L,,2134252,-0.315,1.164,-0.522,14.4,-17.1,-9.1,272,326,0
L,,2134311,0.066,0.989,0.072,16.1,4.9,-2.0,263,375,0
L,,2134372,-0.177,0.928,0.057,2.7,-2.9,-4.1,254,399,0
L,,2134431,-0.185,0.995,0.111,3.1,3.3,-0.8,258,375,0
L,,2134491,-0.253,0.982,0.171,2.7,1.1,-0.8,258,374,0
L,,2134550,-0.148,1.006,0.137,3.7,2.5,-1.1,222,332,0
L,,2134611,-0.234,1.007,0.076,4.8,3.4,-1.9,179,281,0
L,,2134671,-0.187,1.009,0.010,4.9,2.6,-2.4,92,255,0
L,,2134731,-0.169,1.024,0.013,6.9,2.5,-3.6,69,248,0
L,,2134791,-0.203,1.220,0.019,11.9,1.7,-5.0,47,258,0
L,,2134851,-0.158,1.681,0.014,17.5,3.8,-7.3,24,109,0
L,,2134913,-0.043,2.475,1.105,20.9,10.8,-12.0,27,94,0
L,,2134971,-0.047,0.970,-0.484,24.0,41.3,-2.9,33,123,0
L,,2135031,-0.521,-0.360,-0.211,1.2,19.0,-8.2,63,110,0
L,,2135091,0.016,-0.223,0.478,-10.8,-6.0,-6.9,40,119,0
L,,2135151,0.378,0.184,-0.044,-23.7,-4.7,2.3,44,102,0
L,,2135211,0.258,0.650,0.171,-35.3,-12.4,12.4,51,109,0
L,,2135271,0.144,1.379,0.383,-40.7,-4.7,19.9,39,99,0
L,,2135332,-0.370,2.536,-0.323,-41.4,10.8,16.7,40,116,0
L,,2135391,-0.794,1.731,-1.838,-16.6,9.4,4.2,29,100,0
L,,2135451,2.681,1.718,2.777,10.5,2.4,1.8,245,223,9
L,,2135511,-0.776,1.702,-1.172,14.5,-14.6,-10.9,284,373,0
L,,2135571,-0.083,0.964,-0.027,14.4,5.6,-2.3,264,363,0
L,,2135632,-0.141,1.001,0.106,2.3,-3.5,-4.2,282,379,0
L,,2135691,-0.264,1.018,0.169,3.9,1.9,-1.5,287,392,0
L,,2135751,-0.220,1.009,0.145,2.8,0.3,-1.3,299,346,0
L,,2135811,-0.095,1.021,0.132,4.0,2.4,-1.1,255,355,0
L,,2135872,-0.199,0.988,0.058,4.6,2.2,-1.6,199,292,0
L,,2135931,-0.208,1.033,0.063,4.7,2.2,-2.2,148,258,0
L,,2135991,-0.113,1.077,0.051,7.9,2.0,-3.6,113,193,0
L,,2136082,-0.241,1.447,-0.026,15.8,3.5,-5.4,39,199,0
L,,2136141,-0.035,2.115,0.245,21.1,2.0,-9.7,14,170,0
L,,2136202,0.057,1.205,0.376,21.4,31.4,-11.7,48,137,0
L,,2136261,-0.664,0.752,-0.473,9.8,10.6,-12.9,26,98,0
L,,2136323,0.289,0.112,0.060,-1.4,-4.1,-4.5,54,108,0
L,,2136380,0.482,0.177,0.074,-20.1,-4.3,-1.3,39,107,0
L,,2136441,0.212,0.449,0.062,-30.7,-12.2,5.8,48,114,0
L,,2136501,-0.062,0.989,0.325,-38.8,-5.1,12.2,55,96,0
L,,2136561,-0.142,2.033,-0.140,-37.9,13.8,15.5,44,122,0
L,,2136622,0.297,2.245,-1.439,-28.9,19.7,12.8,30,109,0
L,,2136681,0.474,1.125,-1.488,14.9,12.8,-2.9,118,152,0
L,,2136741,-0.582,1.743,-0.827,16.7,-5.8,-4.6,321,320,0
L,,2136801,-0.835,0.748,0.279,9.1,-11.0,-3.5,332,367,0
L,,2136891,-0.090,0.936,0.096,1.7,-5.0,-4.0,290,399,0
L,,2136952,-0.238,1.017,0.205,6.0,1.6,-0.9,333,375,0
L,,2137011,-0.161,1.001,0.176,3.3,-0.9,-1.9,313,409,0
L,,2137073,-0.116,0.991,0.118,4.6,2.5,-1.0,343,383,0
L,,2137131,-0.204,1.007,0.088,5.1,0.9,-1.7,256,352,0
L,,2137191,-0.192,1.004,0.022,5.3,1.3,-2.2,201,316,0
L,,2137281,-0.172,1.092,-0.005,9.6,1.8,-4.1,78,217,0
L,,2137341,-0.264,1.429,-0.003,13.6,3.7,-5.3,57,300,0
L,,2137401,0.000,2.034,0.066,19.0,3.1,-7.9,41,139,0
L,,2137461,0.436,1.646,0.590,20.3,24.0,-12.6,38,141,0
L,,2137521,-0.184,0.996,-0.739,12.9,13.5,-10.9,46,111,0
L,,2137582,0.171,0.143,-0.035,-0.5,1.6,-6.2,60,105,0
L,,2137641,0.469,0.001,0.234,-16.4,2.4,-0.3,57,110,0
L,,2137702,0.192,0.318,-0.015,-28.6,-9.3,5.7,51,108,0
L,,2137761,-0.080,1.069,0.359,-37.5,-3.9,13.8,56,114,0
L,,2137823,-0.126,2.244,0.083,-38.5,12.6,12.0,43,118,0
L,,2137881,-0.006,2.068,-1.186,-34.1,14.0,6.5,51,142,0
L,,2137941,-0.681,1.884,-0.667,0.3,2.1,-0.8,58,80,0
L,,2138001,0.758,1.494,-0.243,17.0,18.7,-1.2,265,234,0
L,,2138061,0.050,0.939,0.405,7.8,-19.9,-4.1,311,338,0
L,,2138122,0.022,0.888,0.128,8.3,3.3,-2.4,300,374,0
L,,2138181,-0.070,0.948,0.195,0.0,-3.7,-3.9,310,371,0
L,,2138242,-0.123,0.973,0.095,3.2,1.8,-1.2,336,363,0
L,,2138301,-0.210,1.020,0.325,3.4,0.9,-0.5,350,381,0
L,,2138361,-0.098,1.011,0.135,5.4,0.7,-0.9,293,380,0
L,,2138421,-0.172,0.988,0.074,4.9,1.1,-1.3,215,331,0
L,,2138483,-0.213,0.995,0.074,4.3,1.5,-1.5,165,279,0
L,,2138571,-0.144,1.073,0.051,8.1,1.0,-2.9,95,189,0
L,,2138631,-0.306,1.141,0.050,11.6,1.3,-3.3,34,197,0
L,,2138691,-0.103,1.486,-0.071,14.8,3.4,-4.1,33,164,0
L,,2138751,-0.070,1.857,0.338,19.1,2.0,-7.6,47,231,0
L,,2138841,-0.287,1.111,-0.623,18.9,26.6,-2.6,40,156,0
L,,2138901,-0.020,-0.250,-0.708,4.4,16.8,-3.1,65,90,0
L,,2138961,0.080,-0.007,0.386,-9.7,-1.6,-3.7,49,105,0
L,,2139021,0.155,0.188,-0.030,-23.0,-5.9,3.0,55,99,0
L,,2139082,0.010,0.740,0.220,-34.0,-12.7,10.0,58,102,0
L,,2139141,-0.193,1.609,0.438,-35.5,4.1,13.4,45,99,0
L,,2139202,-0.129,2.246,-0.277,-38.8,19.0,10.4,43,117,0
L,,2139263,0.063,1.632,-1.433,-23.0,3.3,5.0,34,92,0
L,,2139322,-0.100,1.062,-0.839,13.6,0.1,-3.8,201,155,0
L,,2139381,0.352,1.790,0.004,14.0,-4.4,-5.0,318,324,0
L,,2139441,-0.653,0.977,0.206,10.4,-3.1,-2.6,290,371,0
L,,2139500,0.062,0.962,0.122,5.6,1.9,-2.7,281,407,0
L,,2139561,-0.335,1.032,0.257,2.9,-3.8,-2.6,326,390,0
L,,2139622,-0.019,0.999,0.098,3.5,1.9,-0.4,360,408,0
L,,2139681,-0.245,0.962,0.129,3.4,1.6,0.0,292,411,0
L,,2139742,-0.137,1.016,0.142,3.0,1.2,-0.5,286,382,0
L,,2139801,-0.109,1.044,0.074,4.0,0.1,-0.9,280,344,0
L,,2139861,-0.114,1.079,0.143,8.3,0.9,-2.6,219,285,0
L,,2139921,-0.217,1.208,0.070,14.1,-0.5,-4.7,91,229,0
L,,2139983,-0.194,1.866,0.095,21.5,4.5,-6.9,34,152,0
L,,2140041,0.166,2.323,0.875,25.3,2.1,-17.3,23,83,0
L,,2140101,0.093,0.640,-1.637,20.2,53.7,-3.8,38,105,0
L,,2140162,0.089,-0.229,-0.122,2.4,11.9,-5.3,57,99,0
L,,2140221,0.610,-0.127,0.098,-15.7,-3.1,0.3,66,103,0
L,,2140282,0.299,0.299,0.162,-29.2,-15.3,10.1,61,102,0
L,,2140341,-0.180,0.956,0.303,-34.1,-3.4,16.5,66,101,0
L,,2140401,-0.161,1.863,0.040,-38.2,13.7,17.3,65,106,0
L,,2140461,0.238,2.100,-0.954,-36.0,16.5,8.7,77,131,0
L,,2140521,-0.448,1.436,-1.538,1.4,6.9,-0.6,42,101,0
L,,2140582,1.163,1.423,-0.173,14.5,24.2,-1.2,272,263,0
L,,2140643,-0.119,1.035,0.103,7.7,-13.2,-7.9,319,364,0
L,,2140702,-0.301,0.912,0.114,11.0,4.2,-1.6,230,324,0
L,,2140761,-0.078,1.005,0.105,1.1,-3.3,-4.1,240,314,0
L,,2140822,-0.201,0.983,0.175,4.9,2.9,-0.7,253,329,0
L,,2140881,-0.219,1.020,0.247,4.2,0.3,-1.4,268,396,0
L,,2140941,-0.074,1.011,0.123,5.4,1.6,-1.8,273,367,0
L,,2141001,-0.128,0.994,0.054,5.5,0.5,-1.9,253,340,0
L,,2141061,-0.195,0.987,0.028,5.4,0.7,-2.6,204,286,0
L,,2141122,-0.097,1.074,0.044,7.6,1.9,-3.6,132,268,0
L,,2141181,-0.278,1.122,0.034,12.2,1.1,-4.7,43,260,0
L,,2141242,-0.149,1.653,-0.049,17.3,4.2,-6.0,34,156,0
L,,2141301,0.070,2.339,0.727,21.9,8.3,-12.5,15,82,0
L,,2141363,-0.292,0.759,-0.416,23.4,39.0,-5.1,31,91,0
L,,2141421,-0.258,-0.239,0.832,6.1,14.9,-10.9,70,92,0
L,,2141481,0.076,0.034,0.008,-7.2,-1.9,-1.3,67,96,0
L,,2141541,0.384,0.208,0.263,-23.6,-12.3,0.2,69,95,0
L,,2141601,0.082,0.605,0.182,-34.4,-9.4,9.4,74,104,0
L,,2141662,0.068,1.368,0.570,-38.8,2.2,17.3,57,94,0
L,,2141721,0.212,2.529,-0.525,-42.4,20.7,14.4,57,121,0
L,,2141782,-0.506,1.830,-1.906,-17.9,1.5,7.2,35,79,0
L,,2141841,1.422,1.577,3.114,7.9,12.1,0.7,263,222,0
L,,2141902,-0.107,1.147,-0.277,16.1,-16.3,-7.7,278,367,0
L,,2141961,-0.105,1.008,-0.026,11.6,2.0,-2.0,340,357,0
L,,2142021,-0.040,0.976,0.162,2.0,-3.9,-4.3,297,386,0
L,,2142113,-0.101,0.999,0.131,3.1,0.8,-1.3,290,405,0
L,,2142171,-0.209,1.003,0.143,3.9,2.0,-1.6,281,403,0
L,,2142231,-0.172,0.990,0.068,4.5,2.5,-1.6,251,326,0
L,,2142291,-0.169,1.010,0.037,4.7,2.4,-2.1,145,277,0
L,,2142351,-0.158,0.985,-0.006,5.0,2.3,-2.6,112,252,0
L,,2142412,-0.203,1.081,0.024,7.3,1.7,-3.7,90,268,0
L,,2142471,-0.292,1.218,-0.020,11.3,3.2,-4.2,39,155,0
L,,2142532,-0.130,1.668,0.061,16.1,4.1,-7.0,30,129,0
L,,2142591,-0.034,2.249,0.861,18.6,14.5,-13.1,7,32,0
L,,2142652,0.039,1.021,-0.533,18.9,33.0,-5.3,31,89,0
L,,2142711,-0.217,-0.323,-0.655,-1.0,16.1,-2.6,53,87,0
L,,2142773,0.188,-0.090,0.377,-11.9,-4.9,-5.4,45,100,0
L,,2142832,0.230,0.216,0.017,-25.0,-8.9,2.5,60,96,0
L,,2142891,0.029,0.837,0.281,-35.8,-13.2,18.4,64,107,0
L,,2142952,-0.104,1.696,0.350,-36.0,6.5,15.4,57,105,0
L,,2143011,0.082,2.069,-0.443,-38.5,21.5,12.3,68,135,0
L,,2143072,-0.483,1.705,-1.443,-20.2,2.5,7.3,49,92,0
L,,2143131,0.557,0.953,1.800,11.2,4.8,-0.7,235,185,0
L,,2143192,0.380,1.174,0.032,14.7,-0.3,-4.0,331,333,0
L,,2143251,-0.322,1.022,0.165,11.4,-0.4,-1.9,246,386,0
L,,2143311,-0.047,1.031,0.168,3.3,-3.7,-4.6,299,385,0
L,,2143372,-0.209,0.976,0.147,4.7,2.3,-0.9,290,400,0
L,,2143431,-0.230,0.996,0.186,3.3,0.8,-0.4,275,338,0
L,,2143493,-0.118,0.995,0.081,4.3,1.9,-0.9,200,292,0
L,,2143551,-0.164,1.007,0.050,5.0,2.4,-0.9,132,259,0
L,,2143612,-0.188,1.032,0.019,5.0,1.9,-1.4,98,213,0
L,,2143671,-0.215,1.067,0.037,6.4,2.2,-4.3,45,249,0
L,,2143732,-0.136,1.133,-0.013,11.3,0.1,-3.6,21,95,0
L,,2143791,-0.203,1.546,0.008,17.4,1.8,-5.2,25,105,0
L,,2143851,-0.264,2.297,0.691,22.6,2.1,-11.0,14,54,0
L,,2143912,-0.234,0.847,-0.089,24.4,43.9,-7.6,19,55,0
L,,2143971,-0.729,-0.064,0.429,7.5,10.8,-10.0,77,132,0
L,,2144032,0.299,-0.100,0.700,-10.8,-8.1,-4.4,67,115,0
L,,2144091,0.197,0.178,0.162,-28.5,-11.8,2.6,78,119,0
L,,2144153,0.154,0.794,0.321,-40.2,-9.5,12.5,60,105,0
L,,2144211,-0.054,2.072,0.212,-38.0,7.5,17.3,59,96,0
L,,2144272,-0.217,2.258,-0.851,-40.3,13.0,12.6,44,104,0
L,,2144332,-0.398,1.560,-2.061,1.4,5.6,0.7,44,100,0
L,,2144391,0.764,1.606,-1.859,22.3,24.2,-5.2,281,308,0
L,,2144451,-0.371,0.710,-0.060,10.2,-16.5,-6.1,297,371,0
L,,2144511,-0.022,0.933,0.078,6.3,-0.1,-3.7,275,391,0
L,,2144601,-0.233,0.999,0.183,3.8,2.3,-1.1,273,397,0
L,,2144662,-0.195,0.978,0.118,3.6,1.2,-1.4,236,423,0
L,,2144721,-0.119,1.032,0.083,3.8,2.2,-1.8,223,289,0
L,,2144782,-0.174,0.989,0.044,4.3,1.7,-1.7,136,283,0
L,,2144841,-0.191,0.995,-0.015,4.5,0.6,-2.3,103,194,0
L,,2144903,-0.115,1.090,0.031,8.0,1.7,-3.8,54,295,0
L,,2144961,-0.288,1.346,0.040,14.0,1.3,-5.1,42,181,0
L,,2145022,-0.100,1.766,0.129,19.4,3.2,-7.2,30,119,0
L,,2145082,0.248,2.178,1.219,22.7,10.7,-12.8,28,91,0
L,,2145141,-0.371,1.112,-0.652,18.7,22.6,-5.4,41,109,0
L,,2145202,-0.275,0.258,-0.076,4.9,9.3,-3.0,85,136,0
L,,2145260,0.470,-0.133,0.286,-14.2,5.0,-1.3,57,128,0
L,,2145322,0.302,0.251,0.044,-27.5,-9.9,4.7,72,120,0
L,,2145381,-0.012,0.872,0.337,-39.6,-13.9,14.7,67,109,0
L,,2145442,-0.382,1.977,-0.150,-40.4,9.0,16.1,70,115,0
L,,2145501,-0.216,2.335,-1.004,-38.7,29.1,9.1,59,131,0
L,,2145562,-0.124,1.642,-1.918,2.4,6.4,0.3,60,91,0
L,,2145624,0.671,1.782,-1.914,16.5,17.6,-4.4,296,309,0
L,,2145681,-0.313,0.656,0.322,7.7,-19.4,-4.5,311,437,0
L,,2145742,-0.086,0.995,0.129,10.7,3.1,-2.4,334,387,0
L,,2145800,-0.167,0.956,0.199,3.4,-2.0,-3.0,293,401,0
L,,2145862,-0.079,0.980,0.165,4.8,2.2,-0.7,255,361,0
L,,2145921,-0.206,0.980,0.125,3.8,2.2,-0.5,259,398,0
L,,2145982,-0.154,0.999,0.127,4.1,1.7,-1.1,264,356,0
L,,2146041,-0.147,1.033,0.035,5.1,1.0,-1.5,225,271,0
L,,2146102,-0.168,1.039,0.060,6.6,1.1,-2.3,120,235,0
L,,2146162,-0.154,1.130,0.025,10.5,-0.2,-3.5,76,288,0
L,,2146221,-0.212,1.339,-0.055,15.4,3.4,-4.0,39,164,0
L,,2146283,-0.090,1.820,0.116,20.3,2.7,-7.0,22,91,0
L,,2146341,0.213,2.115,0.921,22.5,14.5,-13.1,29,91,0
L,,2146402,-0.236,1.087,-0.740,14.4,22.6,-8.2,36,99,0
L,,2146461,0.243,0.009,-0.144,1.7,5.1,-5.5,58,96,0
L,,2146522,0.499,-0.040,0.248,-17.5,1.9,-1.1,49,110,0
L,,2146582,0.329,0.344,0.000,-29.5,-13.1,3.3,76,109,0
L,,2146641,-0.022,1.046,0.338,-38.1,-6.3,12.9,73,101,0
L,,2146702,-0.203,2.105,-0.094,-41.7,11.9,17.4,59,107,0
L,,2146761,0.006,2.018,-0.849,-36.3,21.8,12.5,45,104,0
L,,2146822,-0.364,1.453,-1.413,6.8,7.9,-0.2,24,74,0
L,,2146881,1.664,1.445,0.596,13.6,2.3,-0.7,212,193,0
L,,2146942,-0.021,1.277,-0.342,11.4,-14.7,-10.7,276,393,0
L,,2147003,-0.266,1.028,0.155,12.4,3.2,-3.2,281,426,0
L,,2147062,-0.122,1.001,0.161,3.7,-3.4,-4.6,248,402,0
L,,2147152,-0.124,1.001,0.138,3.7,1.1,-1.4,224,376,0
L,,2147211,-0.172,0.974,0.082,3.4,2.4,-1.1,254,353,0
L,,2147272,-0.188,1.005,0.077,3.2,2.0,-1.3,247,315,0
L,,2147332,-0.157,1.010,0.072,3.7,1.6,-1.5,198,324,0
L,,2147421,-0.194,1.093,0.122,9.2,1.7,-3.8,100,316,0
L,,2147482,-0.289,1.224,0.030,14.1,2.3,-5.1,55,269,0
L,,2147541,-0.083,1.641,0.010,18.2,4.3,-7.5,27,128,0
L,,2147602,0.161,2.333,0.985,20.0,12.8,-13.8,29,104,0
L,,2147662,-0.203,0.986,-0.849,16.8,29.0,-4.5,42,122,0
L,,2147721,-0.227,-0.274,-0.460,0.7,12.7,-2.5,61,97,0
L,,2147783,0.171,-0.158,0.355,-15.2,1.0,-4.5,56,92,0
L,,2147841,0.189,0.253,-0.008,-26.3,-7.2,2.5,68,101,0
L,,2147902,-0.018,0.854,0.226,-37.5,-10.6,10.2,55,96,0
L,,2147961,-0.099,1.617,0.412,-37.3,11.1,11.7,45,111,0
L,,2148022,0.060,2.195,-0.374,-38.1,18.6,7.8,44,113,0
L,,2148082,-0.226,1.701,-1.695,-15.5,-2.5,6.2,35,97,0
L,,2148142,-0.556,0.259,0.975,7.5,-8.7,-7.1,201,183,0
L,,2148202,-0.393,1.839,0.133,13.0,-3.7,-6.8,309,368,0
L,,2148291,-0.043,1.010,0.049,8.3,2.3,-2.0,283,402,0
L,,2148352,-0.129,0.994,0.176,1.7,-4.6,-4.1,278,398,0
L,,2148412,-0.087,0.944,0.155,4.1,1.5,-1.2,284,450,0
L,,2148473,-0.223,0.999,0.195,3.0,2.3,-0.4,283,410,0
L,,2148532,-0.153,1.014,0.173,3.6,1.9,-0.7,255,408,0
L,,2148591,-0.157,1.014,0.081,3.9,1.1,-1.4,258,344,0
L,,2148652,-0.173,1.024,0.081,4.8,1.4,-2.0,214,245,0
L,,2148711,-0.181,1.057,0.094,7.9,1.6,-3.2,146,247,0
L,,2148772,-0.332,1.218,0.130,12.8,2.7,-4.0,47,267,0
L,,2148832,-0.123,1.517,-0.073,16.4,4.4,-5.7,32,192,0
L,,2148892,-0.188,2.144,0.574,19.4,5.9,-10.2,38,174,0
L,,2148952,0.194,0.743,-0.461,23.1,40.1,-6.7,41,136,0
L,,2149011,-0.287,1.463,1.065,6.1,21.1,-16.5,43,78,0
L,,2149072,0.072,0.054,0.210,-6.2,-5.5,-5.6,54,96,0
L,,2149131,0.412,0.340,0.072,-20.9,0.0,0.1,49,84,0
L,,2149193,0.174,0.612,0.134,-32.2,-14.1,7.3,57,90,0
L,,2149251,-0.283,1.141,0.324,-35.2,-4.7,13.8,49,89,0
L,,2149312,-0.091,2.079,0.067,-39.0,22.6,13.8,44,100,0
L,,2149372,0.578,1.919,-1.190,-28.7,21.8,4.7,36,94,0
L,,2149432,0.108,1.564,-1.038,8.6,-2.7,-4.2,38,69,0
L,,2149492,1.022,1.284,0.630,12.7,0.4,-2.4,278,246,0
L,,2149551,-0.371,1.058,-0.155,9.6,-15.8,-5.0,230,393,0
L,,2149612,-0.242,0.971,0.202,8.4,0.4,-0.8,277,367,0
L,,2149671,-0.055,0.964,0.157,2.7,-2.3,-2.8,293,409,0
L,,2149732,-0.154,0.970,0.140,3.4,1.2,-0.8,227,399,0
L,,2149791,-0.167,0.985,0.187,1.6,0.1,-0.5,312,464,0
L,,2149852,-0.108,1.007,0.268,5.8,1.9,0.0,294,477,0
L,,2149914,-0.142,1.013,0.136,6.2,2.0,-1.1,290,465,0
L,,2149972,-0.215,1.011,0.062,5.7,0.7,-1.6,275,354,0
L,,2150032,-0.122,1.056,0.087,7.7,2.2,-2.3,229,263,0
L,,2150091,-0.236,1.193,0.090,13.3,0.9,-3.4,112,194,0
L,,2150152,-0.099,1.662,-0.050,18.8,3.1,-4.7,48,173,0
L,,2150211,0.036,2.237,0.734,23.4,5.5,-11.9,39,134,0
L,,2150272,-0.031,0.764,-0.197,24.1,40.9,-6.8,33,98,0
L,,2150332,-0.692,-0.177,-1.064,5.3,16.9,-17.1,74,133,0
L,,2150392,0.232,-0.573,1.035,-10.7,-3.3,-5.5,55,118,0
L,,2150452,0.205,0.249,0.093,-27.2,-10.2,1.9,63,115,0
L,,2150512,-0.025,0.774,0.365,-38.5,-8.7,11.6,50,119,0
L,,2150574,-0.233,1.907,0.151,-39.1,7.3,14.0,58,129,0
L,,2150631,-0.017,2.364,-0.920,-41.9,15.3,11.1,51,121,0
L,,2150692,0.045,1.403,-1.990,4.5,4.7,-0.4,36,105,0
L,,2150751,0.975,1.736,-1.636,17.1,15.1,-2.4,280,297,0
L,,2150812,-0.125,0.681,0.076,9.6,-18.9,-4.7,279,388,0
L,,2150872,-0.009,1.014,0.064,8.5,2.1,-1.8,282,381,0
L,,2150932,-0.124,0.991,0.225,2.5,-3.3,-2.9,293,411,0
L,,2150992,-0.061,0.977,0.004,4.9,1.7,-0.4,307,439,0
L,,2151052,-0.179,0.990,0.174,3.4,1.8,-0.9,222,327,0
L,,2151112,-0.112,1.019,0.103,3.7,1.7,-0.6,265,383,0
L,,2151171,-0.115,1.041,0.105,5.5,1.4,-1.2,247,358,0
L,,2151232,-0.089,1.048,0.102,8.6,2.0,-2.2,211,243,0
L,,2151293,-0.232,1.152,0.069,14.7,0.0,-4.3,94,193,0
L,,2151352,-0.345,1.856,0.091,20.5,2.5,-5.6,30,143,0
L,,2151412,0.072,2.237,0.892,24.4,4.1,-16.4,17,82,0
L,,2151472,-0.349,0.769,-0.942,19.6,60.9,-4.7,31,90,0
L,,2151562,1.003,0.127,0.382,-3.3,-3.0,-9.5,44,103,0
L,,2151622,0.371,0.064,-0.006,-21.7,-13.7,-2.9,53,126,0
L,,2151682,0.238,0.400,0.187,-35.0,-10.0,9.0,60,126,0
L,,2151742,-0.113,1.156,0.311,-35.3,2.6,18.5,52,117,0
L,,2151802,-0.068,2.500,-0.315,-43.5,21.2,15.4,47,116,0
L,,2151862,-0.551,1.933,-1.719,-23.6,1.2,8.1,35,77,0
L,,2151921,1.421,1.418,3.460,5.7,-6.0,-4.6,252,236,9
L,,2151983,-0.346,1.097,-0.589,15.0,-4.7,-8.3,248,436,0
L,,2152041,0.000,0.859,0.109,10.0,2.8,-0.6,215,366,0
L,,2152131,-0.245,0.961,0.290,2.3,-2.9,-2.2,278,401,0
L,,2152192,0.000,0.992,0.093,3.9,0.7,-0.2,274,424,0
L,,2152251,-0.166,0.978,0.216,4.5,2.1,-0.1,264,412,0
L,,2152312,-0.051,1.016,0.116,5.4,0.8,-1.0,270,361,0
L,,2152372,-0.141,0.966,0.035,5.5,0.8,-1.3,267,315,0
L,,2152432,-0.152,1.036,0.049,6.1,1.0,-2.3,240,264,0
L,,2152492,-0.134,1.129,0.092,10.6,0.3,-3.6,137,244,0
L,,2152552,-0.308,1.367,0.045,16.1,2.1,-3.6,41,207,0
L,,2152612,-0.019,2.075,0.201,21.3,2.1,-8.5,26,124,0
L,,2152671,0.216,1.591,0.823,22.7,24.3,-12.0,25,92,0
L,,2152733,-0.188,0.727,-0.608,11.7,8.9,-10.9,28,83,0
L,,2152791,0.461,0.092,-0.010,-1.6,-3.9,-4.7,43,92,0
L,,2152852,0.468,0.088,0.113,-17.4,-2.5,-1.0,48,132,0
L,,2152912,0.334,0.378,0.180,-30.9,-15.5,6.8,62,124,0
L,,2152972,-0.195,1.110,0.259,-37.1,-6.3,14.4,50,111,0
L,,2153032,-0.053,2.196,-0.124,-40.4,12.0,15.7,45,98,0
L,,2153092,0.129,2.103,-1.201,-30.6,14.2,9.1,36,105,0
L,,2153152,-0.252,1.028,-1.313,13.5,2.9,-4.6,197,172,0
L,,2153211,-0.060,2.037,0.267,16.5,-5.2,-5.6,307,368,0
L,,2153272,-0.841,1.079,0.194,9.5,-10.2,-3.4,265,416,0
L,,2153332,0.134,0.931,0.054,7.4,2.5,-2.6,238,422,0
L,,2153392,-0.243,0.970,0.242,4.3,-1.3,-2.9,248,371,0
L,,2153454,-0.025,0.995,0.078,3.7,0.2,-2.0,251,440,0
L,,2153512,-0.188,0.986,0.140,4.0,2.4,-1.5,260,407,0
L,,2153572,-0.203,1.017,0.139,4.3,1.4,-1.8,267,371,0
L,,2153632,-0.179,1.012,0.039,4.3,1.6,-2.4,240,307,0
L,,2153692,-0.183,1.030,0.048,5.5,2.2,-3.0,103,185,0
L,,2153751,-0.196,1.185,0.086,9.8,1.5,-4.7,67,182,0
L,,2153812,-0.257,1.382,-0.018,14.5,3.7,-5.3,40,177,0
L,,2153872,-0.097,1.946,0.214,19.1,3.5,-9.7,19,84,0
L,,2153932,0.422,1.596,0.491,21.5,30.8,-13.3,28,67,0
L,,2153992,-0.247,0.731,-0.654,13.7,10.1,-10.2,22,75,0
L,,2154052,0.133,0.397,0.115,-4.4,-2.6,-6.2,52,87,0
L,,2154114,0.485,0.134,0.181,-18.0,2.9,0.0,44,91,0
L,,2154172,0.327,0.399,0.015,-29.3,-8.9,6.8,50,104,0
L,,2154232,0.065,1.055,0.282,-37.2,-7.4,14.9,47,98,0
L,,2154291,-0.266,2.108,-0.035,-37.8,9.9,17.7,43,101,0
L,,2154351,-0.363,2.173,-0.970,-32.9,21.4,8.8,35,94,0
L,,2154412,-0.271,1.334,-1.273,8.5,11.9,-2.1,108,169,0
L,,2154472,-0.186,1.687,-1.341,19.9,3.2,-4.1,303,395,0
L,,2154532,-0.856,0.692,0.237,10.2,-16.7,-3.3,246,348,0
L,,2154592,0.029,0.993,0.054,9.4,3.8,-2.5,274,398,0
L,,2154652,-0.239,0.978,0.268,3.8,-4.0,-4.0,254,380,0
L,,2154711,0.017,0.980,0.105,5.4,0.9,-1.2,254,398,0
L,,2154772,-0.211,0.999,0.106,4.8,1.6,-1.6,260,387,0
L,,2154833,-0.145,0.993,0.049,3.9,0.4,-1.3,277,369,0
L,,2154892,-0.171,0.998,0.019,3.8,1.0,-1.4,238,299,0
L,,2154952,-0.165,1.021,0.035,4.9,1.9,-2.0,147,306,0
L,,2155012,-0.160,1.103,0.056,8.9,2.0,-3.2,96,178,0
L,,2155072,-0.304,1.169,-0.017,13.4,2.0,-3.3,35,193,0
L,,2155132,-0.038,1.618,-0.057,17.5,2.7,-5.9,21,119,0
L,,2155192,0.010,2.177,0.838,20.6,8.8,-11.5,22,67,0
L,,2155251,-0.238,0.940,-0.507,21.2,35.4,-2.2,26,83,0
L,,2155312,-0.521,-0.668,-0.242,2.1,17.2,-2.7,48,78,0
L,,2155372,0.086,-0.032,0.463,-10.6,-0.7,-6.8,38,93,0
L,,2155432,0.318,0.263,-0.013,-24.3,-3.4,-0.8,44,99,0
L,,2155492,0.137,0.634,0.217,-37.0,-9.6,8.2,48,99,0
L,,2155553,0.375,1.558,0.633,-42.5,2.4,13.5,43,91,0
L,,2155612,0.026,2.410,-0.519,-42.3,13.7,14.8,46,96,0
L,,2155672,-0.605,1.955,-2.193,-14.9,3.7,3.6,42,97,0
L,,2155732,1.317,1.694,2.363,5.7,0.1,-3.2,245,220,0
L,,2155791,-0.424,1.192,-0.528,15.9,-2.4,-5.8,262,442,0
L,,2155852,-0.242,0.997,0.136,10.6,-0.9,-2.2,238,414,0
L,,2155912,-0.075,0.985,0.187,4.0,-2.9,-3.3,260,409,0
L,,2155972,-0.191,1.026,0.171,4.4,1.4,-1.1,264,410,0
L,,2156032,-0.223,0.978,0.175,4.3,1.2,-1.2,231,354,0
L,,2156122,-0.140,0.996,0.066,4.4,1.6,-1.3,244,331,0
L,,2156212,-0.145,0.961,-0.001,4.8,1.2,-1.8,154,283,0
L,,2156303,-0.199,1.120,0.051,11.0,-0.5,-3.7,66,313,0
L,,2156362,-0.224,1.496,-0.056,16.1,2.9,-4.2,38,210,0
L,,2156422,-0.085,2.022,0.193,21.2,1.8,-7.9,34,127,0
L,,2156482,0.240,1.443,0.430,21.5,29.3,-11.2,22,79,0
L,,2156541,-0.248,0.958,-0.506,12.8,7.5,-11.5,37,106,0
L,,2156602,0.440,0.146,0.032,-0.3,-1.4,-4.7,47,94,0
L,,2156662,0.332,0.153,0.202,-17.0,-3.2,-1.2,54,111,0
L,,2156722,0.125,0.339,0.178,-30.5,-13.6,4.5,55,111,0
L,,2156782,-0.374,1.123,0.285,-36.2,-8.8,10.6,55,115,0
L,,2156842,-0.197,2.242,-0.027,-44.1,11.3,12.3,59,109,0
L,,2156902,0.597,2.258,-1.029,-34.5,14.3,10.3,47,106,0
L,,2156962,0.064,1.363,-1.453,12.8,6.7,-4.1,100,131,0
L,,2157024,0.038,1.574,-1.062,21.7,10.3,-5.1,307,348,0
L,,2157082,-0.655,0.771,0.000,10.4,-12.1,-3.4,282,367,0
L,,2157142,0.052,0.950,0.025,6.5,-1.1,-4.2,229,365,0
L,,2157202,-0.185,0.991,0.180,3.2,-1.5,-2.6,264,422,0
L,,2157262,-0.144,1.011,0.142,4.1,0.8,-2.0,255,431,0
L,,2157322,-0.211,1.010,0.140,4.3,2.8,-1.6,201,349,0
L,,2157382,-0.249,0.968,0.073,4.7,3.3,-2.2,126,301,0
L,,2157442,-0.183,0.996,0.009,5.0,3.2,-2.3,90,264,0
L,,2157502,-0.258,1.016,0.000,5.3,2.6,-2.6,49,236,0
L,,2157562,-0.165,1.083,-0.029,7.8,3.3,-3.8,62,376,0
L,,2157652,-0.189,1.516,0.019,15.4,4.7,-7.3,31,149,0
L,,2157712,-0.169,2.223,0.729,19.4,6.4,-10.7,29,126,0
L,,2157774,-0.055,0.985,-0.234,22.8,37.3,-7.5,25,73,0
L,,2157833,-0.657,-0.076,0.456,6.4,16.3,-7.6,47,72,0
L,,2157922,0.579,-0.045,0.142,-15.7,-0.5,-2.7,44,97,0
L,,2157982,0.226,0.304,0.106,-30.5,-10.9,5.8,50,101,0
L,,2158042,-0.166,1.047,0.314,-38.8,-8.6,12.8,42,93,0
L,,2158102,-0.009,2.050,-0.112,-42.7,11.0,16.5,49,114,0
L,,2158162,-0.031,2.330,-0.805,-37.0,-1.1,10.6,42,113,0
L,,2158222,-0.844,1.714,-0.990,9.2,-2.8,-3.5,70,129,0
L,,2158282,0.285,1.794,-1.829,25.3,22.0,-5.4,296,305,0
L,,2158342,-0.300,0.952,-0.083,8.6,-13.9,-6.1,290,364,0
L,,2158402,-0.051,0.914,0.126,8.5,0.8,-3.5,265,407,0
L,,2158463,-0.078,0.992,0.121,3.1,-2.0,-3.7,273,419,0
L,,2158522,-0.121,1.003,0.175,3.8,1.3,-1.5,263,410,0
L,,2158583,-0.195,1.033,0.171,3.8,1.7,-1.6,236,359,0
L,,2158642,-0.224,1.066,0.100,4.0,1.0,-1.6,196,297,0
L,,2158702,-0.157,0.972,0.031,4.1,1.5,-1.6,227,257,0
L,,2158762,-0.171,1.051,0.066,4.9,2.6,-2.4,135,256,0
L,,2158822,-0.185,1.271,0.075,9.3,-1.3,-4.1,80,247,0
L,,2158882,-0.360,1.374,0.071,15.6,3.2,-4.6,48,240,0
L,,2158942,-0.008,2.060,0.133,20.5,3.0,-8.5,24,125,0
L,,2159002,0.479,1.647,0.662,21.2,22.6,-14.6,23,84,0
L,,2159062,-0.062,0.998,-0.606,12.4,16.9,-9.3,32,92,0
L,,2159123,0.277,0.139,-0.376,1.3,3.7,-4.8,37,81,0
L,,2159184,0.193,-0.013,0.302,-17.6,-7.1,-2.0,44,95,0
L,,2159242,0.125,0.359,0.162,-30.2,-8.5,5.7,52,94,0
L,,2159301,0.035,0.984,0.305,-38.6,-1.0,13.1,43,93,0
L,,2159362,-0.007,2.118,0.153,-40.0,3.2,12.5,49,123,0
L,,2159422,-0.075,2.040,-1.156,-35.0,6.6,11.3,37,114,0
L,,2159482,-0.419,1.225,-1.420,7.1,7.1,-2.8,81,131,0
L,,2159542,-0.082,1.610,-1.275,23.8,8.8,-3.8,266,380,0
L,,2159602,-0.885,0.524,0.009,11.7,-17.8,-6.7,247,280,0
L,,2159662,0.052,0.979,0.016,6.9,-0.8,-4.1,294,428,0
L,,2159722,-0.231,0.953,0.243,2.7,-1.3,-3.3,290,433,0
L,,2159782,-0.073,1.001,0.121,2.3,0.8,-1.5,308,476,0
L,,2159843,-0.190,1.007,0.177,3.5,2.0,-1.1,288,440,0
L,,2159902,-0.208,0.999,0.131,3.8,1.1,-1.9,283,383,0
L,,2159992,-0.167,0.974,0.041,4.3,1.5,-2.8,204,287,0
L,,2160052,-0.202,1.047,0.040,5.9,2.8,-3.8,99,258,0
L,,2160142,-0.273,1.277,0.020,11.7,3.3,-5.7,46,284,0
L,,2160202,-0.144,1.653,0.067,16.5,4.9,-8.6,35,208,0
L,,2160292,-0.068,1.093,-0.234,20.4,47.3,-13.4,34,107,0
L,,2160352,-0.749,2.979,2.075,7.6,15.9,-20.6,55,92,0
L,,2160413,0.339,0.187,0.052,-3.6,-0.9,-6.3,49,105,0
L,,2160472,0.614,0.190,-0.046,-19.6,-2.3,-2.3,47,91,0
L,,2160532,0.302,0.449,0.159,-31.3,-13.3,7.6,49,97,0
L,,2160592,-0.262,1.166,0.249,-34.6,-7.6,14.6,46,93,0
L,,2160654,0.014,2.316,-0.108,-39.7,13.1,18.1,47,103,0
L,,2160712,0.208,2.072,-1.066,-30.9,5.1,10.3,76,142,0
L,,2160772,-0.917,1.443,-0.887,9.4,8.7,-2.9,158,156,0
L,,2160833,-0.033,1.786,-0.590,20.4,3.5,-3.5,276,335,0
L,,2160892,-0.544,0.790,-0.082,7.5,-15.8,-5.8,270,396,0
L,,2160953,-0.149,1.016,0.222,6.1,-0.4,-4.2,299,389,0
L,,2161012,-0.173,1.027,0.176,2.3,0.0,-2.4,309,402,0
L,,2161072,-0.100,0.997,0.171,3.5,0.7,-1.0,317,420,0
L,,2161132,-0.177,0.997,0.165,4.1,1.9,-0.8,310,398,0
L,,2161192,-0.154,1.023,0.126,4.2,1.3,-1.2,295,435,0
L,,2161252,-0.103,0.996,0.026,4.1,1.2,-1.4,202,395,0
L,,2161312,-0.172,1.021,0.057,4.6,1.3,-2.0,202,327,0
L,,2161374,-0.187,1.108,0.112,8.9,0.6,-3.6,135,267,0
L,,2161432,-0.328,1.290,0.097,13.6,1.8,-4.3,44,271,0
L,,2161493,0.059,1.919,0.067,19.0,3.0,-6.8,33,275,0
L,,2161552,-0.164,1.983,0.946,19.5,14.0,-12.9,34,140,0
L,,2161612,0.024,1.199,-1.115,17.9,27.1,-4.5,29,95,0
L,,2161672,-0.047,-0.044,-0.284,6.7,6.7,-7.1,38,91,0
L,,2161732,0.479,-0.119,0.265,-11.8,-1.1,-1.4,57,113,0
L,,2161792,0.198,0.231,0.083,-24.2,-11.5,4.8,69,118,0
L,,2161852,0.103,0.795,0.250,-33.3,-9.8,11.6,67,133,0
L,,2161913,0.090,1.538,0.286,-37.3,0.8,15.3,68,122,0
L,,2161972,0.092,2.088,-0.392,-39.9,9.9,14.0,81,153,0
L,,2162034,-0.803,1.871,-1.713,-16.7,-1.1,5.0,85,147,0
L,,2162092,1.649,2.000,1.833,9.7,14.2,5.2,256,326,0
L,,2162152,0.204,0.807,-0.165,13.3,-14.7,-7.1,283,385,0
L,,2162212,-0.045,0.882,0.066,10.9,1.6,-3.2,310,381,0
L,,2162272,-0.126,0.968,0.228,3.3,-3.2,-4.4,316,407,0
L,,2162333,-0.090,1.016,0.107,4.8,2.1,-1.1,321,468,0
L,,2162392,-0.216,0.965,0.092,3.6,0.5,-1.2,291,354,0
L,,2162453,-0.131,0.993,0.114,3.3,0.8,-1.4,233,396,0
L,,2162542,-0.163,1.056,0.060,4.5,1.4,-2.4,160,190,0
L,,2162602,-0.162,1.054,0.052,6.7,1.1,-3.3,111,191,0
L,,2162663,-0.140,1.062,-0.022,10.4,1.5,-4.5,44,261,0
L,,2162722,-0.178,1.423,-0.061,14.2,3.3,-4.6,43,295,0
L,,2162784,-0.022,2.035,0.314,19.7,1.0,-7.2,15,111,0
L,,2162842,0.133,1.556,0.424,21.7,26.5,-12.1,19,81,0
L,,2162902,-0.213,0.653,-0.614,13.7,11.0,-9.1,19,78,0
L,,2162962,0.414,0.268,-0.053,-0.1,-0.9,-3.9,37,83,0
L,,2163022,0.318,-0.022,0.111,-16.4,-7.1,-1.5,50,92,0
L,,2163083,0.216,0.358,0.087,-29.0,-8.3,7.0,49,90,0
L,,2163142,0.214,1.094,0.179,-36.5,-4.6,14.2,48,84,0
L,,2163203,0.064,2.049,0.081,-37.9,3.0,16.8,38,95,0
L,,2163262,-0.156,2.021,-0.532,-35.9,4.0,15.2,30,90,0
L,,2163322,-0.539,1.477,-1.474,7.9,9.6,-1.1,148,155,0
L,,2163382,0.219,1.585,-1.259,21.5,15.9,-6.3,282,318,0
L,,2163472,-0.620,1.224,0.292,13.0,-4.2,-4.5,272,347,0
L,,2163534,-0.018,0.945,0.085,2.5,-1.6,-4.1,267,415,0
L,,2163592,-0.332,1.010,0.263,4.0,1.7,-1.7,288,387,0
L,,2163652,-0.150,0.997,0.172,3.0,0.3,-1.5,267,340,0
L,,2163712,-0.058,1.021,0.110,4.1,1.7,-1.6,238,429,0
L,,2163772,-0.162,1.008,0.076,5.1,1.4,-1.9,214,272,0
L,,2163833,-0.108,1.023,0.023,5.0,0.5,-2.7,175,292,0
L,,2163892,-0.089,1.070,0.033,7.5,1.1,-3.7,101,190,0
L,,2163953,-0.333,1.173,0.100,12.3,-0.4,-5.0,48,259,0
L,,2164012,-0.101,1.569,-0.117,16.2,3.1,-5.9,39,292,0
L,,2164073,-0.188,2.146,0.661,19.1,6.0,-10.8,21,105,0
L,,2164132,0.061,0.909,-0.397,23.5,41.6,-7.3,25,108,0
L,,2164194,-0.144,1.449,1.207,1.6,16.7,-14.1,39,71,0
L,,2164251,0.416,0.124,0.327,-5.9,-9.1,-4.4,53,122,0
L,,2164312,0.402,0.213,-0.019,-20.2,-4.4,1.2,53,117,0
L,,2164373,0.187,0.536,0.260,-33.1,-10.2,9.7,60,118,0
L,,2164432,0.067,1.146,0.213,-38.9,-3.4,15.6,53,110,0
L,,2164493,-0.176,2.535,-0.163,-42.0,12.5,15.2,51,111,0
L,,2164552,-0.371,1.849,-1.441,-26.0,6.5,7.1,41,99,0
L,,2164612,-0.209,0.708,-0.908,14.5,0.0,-4.3,193,172,0
L,,2164672,-0.124,1.925,-0.143,16.6,-2.6,-6.2,293,382,0
L,,2164732,-0.742,0.889,0.058,10.5,-8.5,-5.1,186,353,0
L,,2164792,0.020,0.981,0.022,6.9,0.3,-3.2,260,413,0
L,,2164852,-0.178,0.977,0.183,2.8,-2.2,-3.3,272,424,0
L,,2164914,-0.066,0.997,0.137,3.4,1.0,-1.4,298,443,0
L,,2164972,-0.148,0.989,0.118,3.9,2.5,-1.1,308,368,0
L,,2165033,-0.158,1.002,0.117,3.6,0.6,-1.3,206,347,0
L,,2165092,-0.109,0.975,0.025,3.5,0.3,-1.7,210,394,0
L,,2165152,-0.157,1.040,0.049,4.8,1.5,-2.7,200,262,0
L,,2165212,-0.159,1.051,0.075,8.9,0.3,-4.0,157,287,0
L,,2165272,-0.281,1.272,0.046,14.0,2.8,-5.2,38,244,0
L,,2165333,-0.036,1.639,0.003,18.5,3.8,-8.4,37,162,0
L,,2165392,0.076,2.270,0.953,21.1,10.1,-14.5,17,76,0
L,,2165482,-0.759,0.328,-0.324,9.2,4.1,-11.1,23,103,0
L,,2165542,0.626,0.077,0.038,-2.9,-6.5,-3.8,48,107,0
L,,2165602,0.392,0.227,0.124,-20.9,-3.8,0.0,57,131,0
L,,2165664,0.244,0.513,0.167,-32.2,-11.9,9.1,57,111,0
L,,2165722,-0.111,1.276,0.158,-35.1,-8.4,16.7,60,124,0
L,,2165783,-0.238,2.190,0.040,-40.9,15.2,19.3,46,111,0
L,,2165842,0.246,2.105,-1.321,-31.0,17.9,10.2,21,120,0
L,,2165903,-0.832,0.793,-0.758,12.8,11.6,-3.5,183,171,0
L,,2165962,-0.128,1.789,-0.104,15.7,-3.2,-4.1,298,354,0
L,,2166022,-0.747,0.804,0.296,5.9,-12.7,-4.5,243,338,0
L,,2166082,0.118,1.058,0.087,6.6,0.2,-3.1,235,435,0
L,,2166142,-0.384,0.969,0.295,3.7,-1.6,-2.9,272,413,0
L,,2166203,-0.064,1.014,0.186,2.9,0.5,-1.5,263,404,0
L,,2166262,-0.128,0.941,0.062,7.0,4.7,-0.2,232,324,0
L,,2166324,-0.188,1.015,0.192,5.3,2.1,-1.5,259,373,0
L,,2166382,-0.123,1.016,0.051,4.5,1.0,-2.1,260,359,0
L,,2166442,-0.186,1.021,0.075,4.9,1.8,-2.3,217,291,0
L,,2166502,-0.171,1.114,0.122,9.1,0.8,-3.8,132,235,0
L,,2166562,-0.325,1.206,0.029,13.5,2.9,-4.5,42,267,0
L,,2166623,0.034,1.588,-0.061,17.0,3.1,-7.2,28,180,0
L,,2166682,0.015,2.120,0.889,19.3,9.9,-11.6,19,82,0
L,,2166743,0.030,0.941,-0.238,22.8,33.8,-3.8,15,82,0
L,,2166802,-0.524,-0.462,-0.890,-0.1,11.9,-3.9,62,107,0
L,,2166892,0.464,0.241,0.143,-20.5,4.0,0.9,63,122,0
L,,2166953,0.275,0.488,0.114,-32.8,-5.8,8.4,57,120,0
L,,2167012,-0.295,1.271,0.300,-36.3,-4.3,13.3,63,115,0
L,,2167074,-0.040,2.485,-0.153,-43.1,17.5,16.9,57,114,0
L,,2167132,-0.241,1.975,-1.409,-26.4,12.4,7.3,39,95,0
L,,2167193,0.540,1.006,-0.386,15.1,-0.5,-5.0,155,158,0
L,,2167252,-0.124,1.841,-0.427,15.9,-3.6,-5.6,312,367,0
L,,2167312,-0.651,0.888,0.128,12.4,-8.4,-4.1,252,469,0
L,,2167372,0.165,0.887,0.001,8.4,3.2,-1.7,192,369,0
L,,2167432,-0.177,0.882,0.276,3.6,-4.4,-2.9,203,375,0
L,,2167493,-0.024,0.997,0.077,4.7,-0.2,-0.7,215,394,0
L,,2167552,-0.177,0.949,0.128,3.0,0.5,-0.7,214,393,0
L,,2167613,-0.120,1.018,0.081,2.7,1.3,-0.8,260,455,0
L,,2167672,-0.064,1.016,0.054,3.5,3.5,-1.2,260,433,0
L,,2167734,-0.043,1.070,0.183,7.5,1.6,-2.0,288,324,0
L,,2167792,-0.219,1.153,0.114,12.9,-1.7,-4.2,187,350,0
L,,2167852,-0.300,1.410,0.008,17.4,1.1,-4.7,43,244,0
L,,2167913,0.010,2.240,0.435,22.1,5.1,-10.6,22,131,0
L,,2167972,0.239,0.968,0.710,21.4,31.4,-12.3,29,87,0
L,,2168033,-0.007,1.193,-0.647,12.0,11.4,-9.8,52,103,0
L,,2168092,0.673,0.200,0.244,0.0,-8.0,-5.3,65,130,0
L,,2168153,0.180,0.105,0.055,-18.9,-12.5,0.0,83,139,0
L,,2168212,0.075,0.427,0.306,-31.3,-11.4,8.5,75,137,0
L,,2168272,-0.191,1.130,0.200,-35.6,-3.1,12.9,78,144,0
L,,2168333,0.023,2.216,-0.022,-42.4,8.4,13.9,77,123,0
L,,2168392,-0.233,2.114,-1.140,-32.0,3.0,9.7,58,98,0
L,,2168454,-0.235,0.793,-0.712,14.6,-2.9,-5.5,190,173,0
L,,2168512,0.031,1.845,0.277,16.8,0.8,-6.5,259,399,0
L,,2168573,-0.109,0.927,0.069,12.8,-2.0,-3.4,275,397,0
L,,2168632,-0.162,0.912,0.167,3.1,-1.3,-3.8,266,416,0
L,,2168693,-0.214,0.982,0.190,2.9,2.1,-1.4,261,437,0
L,,2168752,-0.208,1.000,0.211,2.8,0.9,-0.9,290,409,0
L,,2168812,-0.126,1.020,0.193,4.8,2.1,-1.3,272,354,0
L,,2168873,-0.140,1.003,0.082,5.8,0.9,-1.8,270,288,0
L,,2168932,-0.201,0.993,0.024,5.6,1.0,-2.1,123,208,0
L,,2168993,-0.170,1.047,0.033,6.9,0.9,-3.1,66,192,0
L,,2169052,-0.232,1.135,0.023,11.1,0.7,-4.3,50,273,0
L,,2169113,-0.206,1.494,0.032,15.5,2.9,-5.3,32,168,0
L,,2169174,-0.096,1.956,0.385,19.6,4.3,-9.5,29,137,0
L,,2169233,0.236,1.308,-0.093,23.6,40.8,-10.9,26,89,0
L,,2169292,-0.411,0.884,-0.134,11.9,8.1,-10.5,31,136,0
L,,2169352,0.428,0.105,0.151,-1.1,-7.8,-4.4,48,129,0
L,,2169413,0.318,0.174,0.209,-19.7,-3.9,0.8,58,138,0
L,,2169472,0.139,0.430,0.106,-32.4,-10.3,7.5,82,162,0
L,,2169533,-0.055,1.180,0.273,-36.9,-5.8,13.3,66,129,0
L,,2169592,-0.240,2.325,-0.031,-41.9,5.5,17.8,79,157,0
L,,2169653,-0.061,2.226,-0.988,-28.1,8.3,10.1,44,126,0
L,,2169712,-0.571,1.247,-1.037,13.7,7.0,-3.9,129,145,0
L,,2169773,0.167,1.935,-1.429,22.6,6.2,-5.1,294,335,0
L,,2169834,-0.762,1.047,-0.003,9.9,-14.8,-6.5,277,348,0
L,,2169922,-0.136,0.970,0.144,3.2,-1.3,-3.7,262,377,0
L,,2169983,-0.220,1.015,0.161,4.8,2.1,-1.4,255,366,0
L,,2170042,-0.218,0.979,0.104,4.1,1.5,-1.7,291,347,0
L,,2170102,-0.167,1.005,0.050,3.3,3.1,-1.6,248,354,0
L,,2170163,-0.214,0.981,0.016,3.1,3.1,-1.6,137,232,0
L,,2170222,-0.246,1.018,0.032,4.0,2.3,-2.3,150,260,0
L,,2170283,-0.169,1.113,0.034,6.6,2.4,-3.0,73,259,0
L,,2170373,-0.252,1.491,0.009,14.7,2.4,-5.8,27,176,0
L,,2170432,-0.012,2.025,0.311,20.0,2.6,-9.8,31,190,0
L,,2170493,0.105,1.407,0.000,24.2,32.8,-13.4,23,73,0
L,,2170552,-0.273,0.769,-0.327,13.1,6.5,-11.2,41,114,0
L,,2170614,0.420,0.026,0.363,-2.7,-8.1,-4.7,52,119,0
L,,2170672,0.369,0.051,0.158,-19.4,-1.3,0.9,75,134,0
L,,2170733,0.338,0.340,0.209,-32.9,-10.2,9.7,83,156,0
L,,2170792,-0.269,1.167,0.276,-36.2,-10.2,14.8,69,121,0
L,,2170853,-0.050,2.584,-0.241,-42.6,11.3,18.3,64,129,0
L,,2170913,-0.097,2.027,-1.398,-28.3,9.8,8.8,39,102,0
L,,2171002,0.988,1.781,-0.870,19.7,18.7,-1.0,290,299,0
L,,2171063,0.065,0.896,0.290,9.1,-27.2,-9.5,291,354,0
L,,2171123,0.107,0.997,0.036,7.1,0.3,-4.8,319,392,0
L,,2171182,-0.170,0.974,0.177,4.3,-0.6,-3.0,318,455,0
L,,2171243,-0.097,1.006,0.126,3.6,0.3,-1.4,293,346,0
L,,2171302,-0.219,0.988,0.104,3.2,1.6,-1.2,301,356,0
L,,2171364,-0.163,1.014,0.114,3.6,2.3,-1.7,237,265,0
L,,2171422,-0.152,0.999,0.014,4.2,2.2,-2.4,182,203,0
L,,2171483,-0.224,1.065,0.060,5.6,1.9,-3.2,120,235,0
L,,2171542,-0.211,1.042,0.049,9.6,1.2,-5.2,52,310,0
L,,2171603,-0.197,1.367,-0.003,14.5,2.4,-6.5,47,265,0
L,,2171663,-0.105,2.098,0.372,19.7,4.1,-10.5,38,191,0
L,,2171722,0.125,1.228,0.087,22.5,30.4,-14.7,15,79,0
L,,2171783,0.024,0.977,1.116,8.7,24.1,-15.7,59,101,0
L,,2171842,0.433,0.051,0.244,-5.4,-4.6,-5.3,69,158,0
L,,2171932,0.417,0.223,0.007,-26.8,-7.9,5.0,74,135,0
L,,2171993,-0.016,0.785,0.306,-36.6,-5.2,13.7,72,143,0
L,,2172054,0.091,1.830,-0.071,-36.8,12.6,18.5,63,121,0
L,,2172113,-0.068,2.271,-0.351,-37.9,8.0,13.6,67,129,0
L,,2172172,-0.744,1.910,-1.684,-14.5,11.5,2.2,98,160,0
L,,2172233,1.263,1.448,2.653,12.6,13.4,2.7,280,262,0
L,,2172322,-0.970,1.089,0.192,13.8,-12.4,-7.5,290,390,0
L,,2172382,-0.113,0.895,0.100,6.2,-0.5,-4.3,264,416,0
L,,2172443,-0.246,1.003,0.158,4.2,0.7,-2.7,305,355,0
L,,2172502,-0.131,1.027,0.094,3.0,1.2,-1.6,226,343,0
L,,2172563,-0.181,1.008,0.075,2.6,2.3,-0.9,282,272,0
L,,2172623,-0.189,1.006,0.081,3.4,1.9,-1.5,182,225,0
L,,2172682,-0.170,1.042,0.048,4.3,2.4,-2.4,140,260,0
L,,2172743,-0.217,1.033,0.014,5.6,2.6,-3.7,86,334,0
L,,2172804,-0.207,1.129,0.007,9.1,2.0,-5.0,55,291,0
L,,2172863,-0.134,1.474,0.000,13.8,3.8,-7.0,45,284,0
L,,2172922,-0.068,2.094,0.467,18.8,5.1,-10.4,61,271,0
L,,2172983,0.106,1.009,-0.451,23.7,41.2,-12.5,41,101,0
L,,2173073,-0.253,-0.203,-0.228,1.4,15.0,-6.9,66,91,0
L,,2173132,0.207,-0.062,0.357,-13.3,5.0,-4.3,65,114,0
L,,2173193,0.406,0.298,-0.090,-26.1,-3.4,1.1,56,100,0
L,,2173252,0.183,0.813,0.082,-34.6,-16.3,10.6,67,109,0
L,,2173313,-0.433,1.620,-0.091,-35.7,4.1,14.8,112,150,0
L,,2173373,-0.250,1.895,-0.602,-37.2,14.2,12.1,125,150,0
L,,2173433,-0.560,1.732,-1.287,-15.8,-3.6,4.7,65,105,0
L,,2173493,0.559,0.979,1.680,9.7,0.0,-3.9,227,201,0
L,,2173554,-0.510,1.212,-0.120,11.9,-2.5,-9.0,223,288,0
L,,2173613,-0.320,0.951,0.115,11.0,-1.7,-3.6,269,333,0
L,,2173672,-0.090,0.996,0.152,2.9,-3.1,-4.1,317,378,0
L,,2173733,-0.222,0.975,0.190,3.8,1.4,-1.7,273,344,0
L,,2173792,-0.176,1.015,0.199,3.5,1.2,-1.5,295,345,0
L,,2173853,-0.127,1.002,0.119,4.4,1.6,-1.6,271,337,0
L,,2173913,-0.152,0.998,0.046,4.9,0.9,-1.9,201,227,0
L,,2173973,-0.176,1.018,0.048,5.5,1.6,-2.5,104,175,0
L,,2174033,-0.172,1.091,0.092,9.1,0.8,-4.0,97,184,0
L,,2174092,-0.191,1.229,-0.031,13.6,2.6,-5.3,64,315,0
L,,2174153,-0.141,1.783,0.091,18.7,2.3,-7.1,62,301,0
L,,2174214,0.126,2.236,1.054,20.8,14.8,-13.4,19,60,0
L,,2174273,-0.069,1.205,-1.073,18.8,26.7,-5.7,26,86,0
L,,2174333,-0.172,-0.058,-0.249,5.3,10.5,-6.3,59,105,0
L,,2174393,0.456,-0.077,0.253,-13.2,1.1,-2.8,73,121,0
L,,2174453,0.171,0.215,0.001,-26.9,-8.5,3.4,74,120,0
L,,2174512,0.221,0.692,0.298,-38.7,-8.3,11.3,83,131,0
L,,2174603,-0.029,2.492,-0.234,-42.2,9.2,18.1,61,127,0
L,,2174663,-0.105,1.986,-1.433,-28.5,6.0,7.9,53,111,0
L,,2174723,-0.707,0.973,-0.371,15.2,2.7,-4.6,185,158,0
L,,2174783,0.198,1.857,0.245,16.6,-4.5,-5.6,314,418,0
L,,2174842,-0.827,1.040,-0.062,10.3,-8.8,-5.8,276,403,0
L,,2174903,0.074,0.913,0.199,5.2,-2.5,-3.9,284,380,0
L,,2174964,-0.211,1.002,0.216,4.9,-0.1,-2.2,311,423,0
L,,2175023,-0.082,1.006,0.162,4.3,1.0,-1.6,268,304,0
L,,2175083,-0.165,0.999,0.069,3.1,2.3,-0.8,245,424,0
L,,2175172,-0.135,0.997,0.025,3.5,1.9,-1.3,217,249,0
L,,2175233,-0.190,1.107,0.095,4.5,1.3,-2.5,144,267,0
L,,2175292,-0.136,1.113,0.053,9.0,0.3,-3.8,145,231,0
L,,2175353,-0.442,1.400,0.092,14.1,2.1,-5.3,41,314,0
L,,2175413,0.012,1.856,0.017,19.3,2.6,-7.1,45,214,0
L,,2175473,-0.018,2.081,0.992,20.7,12.1,-14.4,36,122,0
L,,2175533,-0.007,1.119,-1.084,16.6,27.3,-5.5,34,102,0
L,,2175592,-0.170,0.019,-0.440,3.4,8.8,-2.8,53,107,0
L,,2175654,0.439,-0.052,0.305,-13.9,-2.1,-1.8,70,141,0
L,,2175712,0.190,0.223,0.011,-27.0,-11.8,4.3,94,156,0
L,,2175773,-0.010,0.768,0.342,-37.8,-7.5,12.2,79,122,0
L,,2175833,-0.140,1.915,0.174,-38.3,6.8,14.8,77,123,0
L,,2175893,-0.261,2.358,-0.749,-40.3,14.8,10.6,44,118,0
L,,2175953,-0.370,1.497,-1.656,-0.3,5.1,0.5,32,117,0
L,,2176013,2.046,1.561,1.570,9.6,0.1,0.8,265,249,0
L,,2176073,-0.395,1.337,-0.692,11.4,-15.1,-7.7,251,457,0
L,,2176132,-0.122,0.878,0.105,10.1,3.7,-1.6,278,371,0
L,,2176193,-0.019,0.992,0.117,2.3,-4.2,-4.4,319,395,0
L,,2176251,-0.294,0.977,0.190,3.9,0.6,-1.7,295,391,0
L,,2176313,-0.216,0.989,0.192,1.4,-0.3,-1.6,302,435,0
L,,2176375,-0.103,1.021,0.245,4.6,2.7,-0.6,304,389,0
L,,2176433,-0.169,0.975,0.121,5.1,2.3,-1.7,223,286,0
L,,2176493,-0.079,0.937,0.044,4.9,2.0,-1.7,221,321,0
L,,2176553,-0.154,1.033,0.033,5.5,3.0,-3.1,98,208,0
L,,2176613,-0.361,1.139,0.085,9.5,1.4,-3.3,43,245,0
L,,2176672,-0.199,1.392,-0.035,14.4,4.4,-5.7,49,267,0
L,,2176733,-0.006,1.932,0.240,19.2,3.7,-10.4,16,108,0
L,,2176792,0.150,1.443,0.314,21.1,37.3,-14.0,17,83,0
L,,2176853,-0.552,0.802,-0.626,11.0,10.9,-11.5,25,94,0
L,,2176913,0.277,0.141,0.000,-0.5,-5.5,-6.3,54,126,0
L,,2176973,0.348,0.071,0.168,-18.2,-0.7,0.4,52,104,0
L,,2177033,0.165,0.383,0.133,-30.8,-8.1,8.0,58,126,0
L,,2177094,-0.330,1.240,0.438,-37.4,-4.1,12.2,72,135,0
L,,2177153,-0.026,2.069,0.187,-42.7,13.6,13.3,87,150,0
L,,2177212,0.008,2.233,-0.900,-33.9,8.5,9.9,83,137,0
L,,2177272,-0.065,1.482,-1.364,14.3,9.0,-3.7,110,137,0
L,,2177333,-0.134,1.746,-1.350,17.6,0.2,-5.1,298,318,0
L,,2177393,-0.791,0.944,0.108,8.7,-10.7,-3.6,290,378,0
L,,2177483,-0.102,0.925,0.225,0.5,-4.6,-4.8,272,463,0
L,,2177542,-0.206,0.957,0.199,5.8,2.4,-0.5,309,395,0
L,,2177603,-0.197,0.987,0.200,2.9,0.3,-1.4,285,366,0
L,,2177663,-0.127,0.997,0.201,4.2,2.5,-0.7,315,394,0
L,,2177723,-0.175,1.020,0.333,6.3,2.6,-0.7,333,337,0
L,,2177785,-0.230,1.016,0.128,5.4,1.2,-2.6,272,359,0
L,,2177843,-0.159,1.101,0.137,8.5,1.7,-3.9,162,215,0
L,,2177903,-0.293,1.146,0.062,13.2,2.1,-5.6,51,256,0
L,,2177962,-0.111,1.687,-0.029,17.5,4.5,-7.0,45,266,0
L,,2178023,0.071,2.377,0.814,21.4,7.7,-13.0,17,85,0
L,,2178113,-0.176,1.181,-0.901,2.6,21.3,-5.6,34,111,0
L,,2178172,-0.113,0.199,-0.072,-3.4,7.3,-5.9,73,148,0
L,,2178233,0.459,-0.016,0.140,-16.3,-2.3,-2.5,75,165,0
L,,2178292,0.450,0.392,0.040,-30.6,-12.7,9.6,74,163,0
L,,2178353,-0.279,1.277,0.123,-34.0,-13.0,17.1,43,122,0
L,,2178413,0.020,2.074,-0.048,-38.7,18.3,21.3,26,108,0
L,,2178473,0.101,1.972,-0.958,-35.3,10.8,10.4,28,115,0
L,,2178535,-0.634,1.420,-1.285,9.8,10.9,-2.7,37,119,0
L,,2178593,1.811,1.346,0.258,15.2,17.2,0.1,251,283,0
L,,2178653,-0.330,1.126,-0.275,9.8,-15.0,-9.5,274,442,0
L,,2178712,-0.213,1.215,0.080,11.7,1.9,-4.3,236,366,0
L,,2178773,-0.140,1.009,0.228,4.9,-1.2,-3.2,247,351,0
L,,2178833,-0.033,0.981,0.188,5.1,1.8,-2.2,231,305,0
L,,2178893,-0.161,0.987,0.104,4.2,2.8,-1.7,296,284,0
L,,2178953,-0.151,1.031,0.085,4.1,2.1,-1.8,141,191,0
L,,2179013,-0.155,0.987,-0.002,4.2,1.3,-2.0,114,166,0
L,,2179073,-0.153,1.048,0.029,5.4,2.1,-3.2,70,255,0
L,,2179133,-0.199,1.109,0.029,9.0,2.0,-4.7,38,200,0
L,,2179193,-0.237,1.313,0.058,13.6,2.9,-6.6,31,197,0
L,,2179254,-0.134,1.675,0.154,17.9,4.4,-10.5,39,268,0
L,,2179313,-0.040,1.685,0.628,16.1,25.2,-12.9,21,92,0
L,,2179373,-0.505,0.877,-0.608,15.5,24.7,-11.0,26,108,0
L,,2179433,0.108,0.371,0.137,-2.2,10.4,-7.7,66,132,0
L,,2179493,0.607,0.073,-0.093,-13.9,6.7,-2.0,63,146,0
L,,2179553,0.325,0.270,-0.050,-27.5,-11.5,4.2,81,147,0
L,,2179613,-0.109,0.931,0.304,-35.8,-6.6,8.6,57,116,0
L,,2179703,-0.399,2.170,-0.075,-35.2,26.8,7.9,76,155,0
L,,2179763,0.739,1.637,-0.651,-22.6,31.3,3.0,46,101,0
L,,2179823,0.614,1.022,-1.445,2.1,10.9,0.4,98,134,0
L,,2179883,0.042,2.201,-2.197,14.5,-6.6,-1.2,258,354,0
L,,2179945,-0.621,0.923,0.314,8.8,-4.2,0.0,224,314,0
L,,2180002,-0.034,0.959,-0.006,4.2,-1.5,-2.1,216,338,0
L,,2180063,-0.218,1.019,0.159,4.0,0.5,-0.1,273,360,0
L,,2180123,-0.187,0.994,0.100,2.7,1.8,0.3,249,319,0
L,,2180183,-0.141,0.997,0.074,1.0,1.4,0.9,230,284,0
L,,2180243,-0.154,1.031,0.094,0.2,2.1,0.4,200,274,0
L,,2180303,-0.125,0.998,0.076,1.4,2.3,1.1,266,333,0
L,,2180363,-0.128,1.018,0.066,2.8,2.5,1.3,281,335,0
L,,2180423,-0.149,0.978,0.055,3.6,2.4,1.7,237,323,0
L,,2180483,-0.130,1.011,0.001,4.7,2.8,2.5,188,233,0
L,,2180573,-0.121,1.035,-0.017,3.7,2.9,2.4,97,183,0
L,,2180633,-0.999,0.847,0.576,-0.8,22.3,1.2,52,108,0
L,,2180695,-0.001,1.013,0.224,-3.5,45.9,0.6,69,113,0
L,,2180752,0.833,1.031,-0.058,-2.7,43.5,0.9,62,90,0
L,,2180813,0.351,1.002,-0.092,-2.1,23.4,2.4,119,135,0
L,,2180873,-0.371,1.052,-0.035,1.9,27.9,0.8,60,132,0
L,,2180933,-0.073,1.042,-0.115,4.7,26.8,-2.1,29,72,0
L,,2180993,-0.136,0.947,-0.047,5.6,21.7,-3.5,37,76,0
L,,2181053,-0.153,0.958,0.024,2.9,16.2,-4.9,31,75,0
L,,2181113,0.099,0.944,0.043,1.6,9.3,-5.2,43,86,0
L,,2181173,0.878,0.689,0.641,-2.9,0.0,-0.5,65,111,0
L,,2181233,0.075,1.224,0.095,-4.4,-3.3,-1.5,254,221,0
L,,2181292,-0.167,0.947,0.039,-1.6,-2.1,-0.5,235,223,0
L,,2181353,0.027,0.992,0.006,-0.9,-2.2,-2.4,175,179,0
L,,2181415,-0.076,1.008,0.098,-0.6,-0.4,-2.2,243,254,0
L,,2181473,-0.155,1.020,0.092,0.1,-1.2,-2.4,292,383,0
L,,2181563,-0.115,1.021,0.062,0.4,0.9,-0.3,329,423,0
L,,2181623,-0.051,1.015,0.052,1.6,1.1,-0.1,217,273,0
L,,2181713,-0.071,1.006,0.023,2.2,0.4,-0.5,276,325,0
L,,2181773,-0.124,0.996,-0.009,2.0,0.4,-0.6,160,187,0
L,,2181833,-0.117,1.009,-0.013,2.3,0.9,-0.3,152,197,0
L,,2181893,-0.112,1.039,-0.011,3.2,0.9,-0.2,125,165,0
L,,2181953,-0.098,1.061,-0.031,4.9,1.0,-0.5,108,197,0
L,,2182013,-0.121,1.048,-0.049,7.4,0.7,-0.9,53,206,0
L,,2182103,-0.043,1.190,-0.219,9.7,1.3,-1.3,40,204,0
L,,2182165,-0.049,1.442,-0.081,12.0,0.0,-2.2,20,101,0
L,,2182222,0.190,1.325,0.091,13.9,5.1,-5.0,19,114,0
L,,2182283,-0.149,1.008,-0.485,16.4,7.4,-6.0,27,96,0
L,,2182343,-0.390,0.564,-0.682,9.0,4.4,-6.6,28,105,0
L,,2182403,-0.025,0.184,-0.046,1.1,-0.4,-1.1,41,84,0
L,,2182463,0.070,0.398,0.021,-11.9,-1.5,4.7,39,97,0
L,,2182523,-0.031,0.712,0.094,-20.0,-5.9,8.4,44,98,0
L,,2182583,-0.018,1.053,0.072,-27.1,-3.6,9.4,45,107,0
L,,2182643,-0.073,1.559,0.225,-28.1,2.6,9.3,58,112,0
L,,2182703,0.101,1.687,-0.273,-28.4,9.6,6.6,60,116,0
L,,2182763,0.302,1.397,-0.580,-21.0,6.5,4.9,86,148,0
L,,2182823,0.232,1.230,-0.925,0.4,-3.2,-3.0,107,133,0
L,,2182884,0.580,1.434,-0.122,14.9,6.8,-3.2,244,280,0
L,,2182943,-0.095,0.682,0.157,9.6,-14.1,-5.8,237,332,0
L,,2183003,0.104,1.015,0.058,7.9,-0.7,-2.9,196,268,0
L,,2183063,-0.019,1.028,0.129,1.9,-5.9,-4.7,224,317,0
L,,2183123,-0.006,1.011,0.124,2.3,0.2,-1.9,226,324,0
L,,2183183,-0.091,1.006,0.135,1.5,0.4,-0.8,265,281,0
L,,2183243,-0.040,1.003,0.141,2.5,0.4,-0.8,283,291,0
L,,2183303,-0.058,1.006,0.098,3.5,0.7,-1.3,190,239,0
L,,2183363,-0.095,1.002,0.055,3.6,-0.1,-1.3,195,234,0
L,,2183423,-0.112,0.982,0.004,2.7,0.1,-0.7,187,193,0
L,,2183483,-0.096,0.994,-0.012,2.1,0.2,-0.8,164,199,0
L,,2183575,-0.096,1.019,0.008,3.8,0.9,-0.5,151,267,0
L,,2183633,-0.139,1.066,0.004,6.1,1.4,-0.6,123,257,0
L,,2183693,-0.145,1.050,-0.054,8.4,1.9,-1.0,44,227,0
L,,2183753,-0.085,1.248,-0.135,10.1,1.6,-0.9,42,157,0
L,,2183813,0.086,1.333,-0.128,12.2,0.4,-2.6,34,163,0
L,,2183874,-0.009,1.176,0.040,13.5,4.9,-4.9,29,120,0
L,,2183933,-0.211,0.970,-0.409,15.2,9.8,-5.1,29,116,0
L,,2183993,-0.548,0.617,-0.288,7.2,4.2,-6.8,28,103,0
L,,2184053,0.131,0.301,0.200,-3.2,10.2,-2.4,52,103,0
L,,2184113,0.345,0.429,-0.014,-13.9,3.7,1.1,55,102,0
L,,2184173,0.136,0.713,0.132,-24.9,-4.2,4.5,48,104,0
L,,2184233,-0.024,1.302,-0.007,-27.3,3.0,8.6,59,105,0
L,,2184294,-0.034,1.561,-0.375,-33.1,8.4,8.1,65,142,0
L,,2184353,-0.019,1.251,-1.384,-16.2,-5.4,2.7,94,95,0
L,,2184413,0.217,1.122,-0.878,10.8,-7.7,-1.4,240,200,0
L,,2184473,-0.025,1.321,0.008,6.3,-12.1,-7.7,250,322,0
L,,2184533,-0.052,0.945,0.061,4.5,-3.0,-2.6,203,247,0
L,,2184593,0.002,0.949,0.067,0.5,-2.1,-3.1,178,281,0
L,,2184653,-0.053,1.007,0.162,0.0,-0.6,-2.5,205,320,0
L,,2184713,-0.055,1.016,0.130,-0.3,-0.6,-1.4,320,381,0
L,,2184773,-0.091,1.006,0.167,0.0,0.0,0.1,340,387,0
L,,2184833,-0.028,1.015,0.172,0.4,0.0,0.1,274,314,0
L,,2184893,-0.039,1.002,0.144,0.9,0.2,0.1,229,419,0
L,,2184953,-0.020,1.010,0.120,0.8,-0.2,0.1,237,371,0
L,,2185014,-0.025,1.001,0.132,1.0,-0.4,0.5,223,349,0
L,,2185073,-0.037,0.981,0.107,0.9,-0.9,0.3,242,357,0
L,,2185133,-0.052,1.009,0.124,0.8,-1.0,0.3,270,370,0
L,,2185193,-0.013,1.007,0.101,1.1,-1.0,0.2,325,363,0
L,,2185253,-0.027,0.991,0.075,1.3,-0.8,0.4,258,375,0
L,,2185313,-0.026,0.993,0.069,0.4,0.0,0.6,283,321,0
L,,2185374,-0.012,1.005,0.082,-0.1,-0.1,0.5,287,341,0
L,,2185433,-0.011,1.004,0.094,0.1,-0.1,0.4,280,345,0
L,,2185493,-0.013,0.997,0.081,0.2,-0.3,0.2,289,369,0
L,,2185553,-0.016,1.007,0.081,0.2,-0.4,0.1,287,375,0
L,,2185613,0.002,0.999,0.076,0.0,-0.6,0.0,305,373,0
L,,2185674,-0.016,1.002,0.088,0.0,-0.5,0.0,272,391,0
L,,2185733,-0.011,1.004,0.084,0.1,-0.3,0.1,272,391,0
L,,2185793,-0.006,1.002,0.079,0.1,-0.4,0.0,310,384,0
L,,2185853,-0.004,1.005,0.075,0.1,-0.4,0.1,308,387,0
L,,2185914,-0.018,1.001,0.083,0.0,-0.3,0.1,289,393,0
L,,2185973,-0.014,1.004,0.079,0.1,-0.4,0.1,309,403,0
L,,2186033,-0.014,1.003,0.083,0.1,-0.4,0.1,312,412,0
L,,2186093,-0.013,1.004,0.076,0.0,-0.4,0.1,298,418,0
L,,2186153,-0.011,1.004,0.083,0.0,-0.3,0.1,294,420,0
L,,2186213,-0.019,1.004,0.081,-0.1,-0.4,0.1,318,414,0
L,,2186303,-0.008,1.006,0.086,0.0,-0.4,0.1,354,408,0
L,,2186363,-0.013,1.003,0.086,0.0,-0.4,0.1,323,421,0
L,,2186424,-0.018,0.999,0.086,0.0,-0.3,0.1,334,422,0
L,,2186483,-0.015,1.000,0.088,0.1,-0.3,0.2,339,429,0
L,,2186573,-0.020,1.008,0.090,0.4,-0.4,0.1,313,451,0
L,,2186632,-0.014,0.998,0.079,0.4,-0.3,0.1,282,457,0
L,,2186693,-0.009,0.999,0.071,0.0,-0.3,0.1,314,437,0
L,,2186753,-0.011,1.010,0.086,-0.1,-0.2,0.1,307,441,0
L,,2186843,-0.014,1.001,0.083,0.0,-0.3,0.1,321,423,0
L,,2186903,-0.009,1.004,0.083,0.0,-0.3,0.1,307,432,0
L,,2186963,-0.013,1.003,0.083,0.0,-0.4,0.1,328,430,0
L,,2187053,-0.005,1.003,0.085,-0.1,-0.3,0.1,300,440,0
L,,2187143,-0.011,1.002,0.093,0.0,-0.3,0.1,319,440,0
L,,2187204,-0.010,1.002,0.086,0.0,-0.4,0.0,318,448,0
L,,2187265,-0.015,1.002,0.095,0.0,-0.4,0.0,324,445,0
L,,2187323,-0.011,1.003,0.089,0.0,-0.5,0.0,327,449,0
L,,2187383,-0.012,1.001,0.087,0.1,-0.4,0.0,365,444,0
L,,2187443,-0.021,1.003,0.086,0.1,-0.4,0.0,374,442,0
L,,2187503,-0.010,1.006,0.085,0.1,-0.4,0.0,371,444,0
L,,2187563,-0.016,0.999,0.089,0.1,-0.4,0.0,371,447,0
L,,2187624,-0.017,1.003,0.084,0.1,-0.3,0.1,366,451,0
L,,2187683,-0.013,1.003,0.092,0.1,-0.2,0.1,371,448,0
L,,2187744,-0.015,1.001,0.082,0.3,-0.3,0.2,373,449,0
L,,2187803,-0.014,1.005,0.084,0.3,-0.4,0.2,368,444,0
L,,2187863,-0.013,1.001,0.084,0.3,-0.5,0.1,347,422,0
L,,2187924,-0.005,1.009,0.078,0.5,-0.6,0.0,253,390,0
L,,2187983,-0.021,1.002,0.075,0.5,-0.5,0.1,255,369,0
L,,2188043,-0.013,1.004,0.073,0.5,-0.4,0.1,232,354,0
L,,2188103,-0.005,1.004,0.061,0.5,-0.5,0.2,298,346,0
L,,2188164,-0.013,0.999,0.058,0.4,-0.5,0.2,305,374,0
L,,2188223,-0.019,1.001,0.059,0.0,-0.5,0.1,288,361,0
L,,2188284,-0.013,1.006,0.062,0.0,-0.4,0.2,240,418,0
L,,2188343,-0.012,1.001,0.063,0.0,-0.3,0.2,250,381,0
L,,2188403,-0.015,1.003,0.064,-0.2,-0.3,0.2,255,388,0
L,,2188462,-0.013,1.005,0.068,-0.3,-0.3,0.2,260,391,0
L,,2188523,-0.003,1.007,0.071,-0.4,-0.2,0.2,279,399,0
L,,2188583,-0.015,1.009,0.081,-0.2,-0.2,0.2,266,400,0
L,,2188645,-0.005,1.003,0.076,-0.1,-0.3,0.2,273,406,0
L,,2188733,-0.012,1.005,0.087,-0.1,-0.3,0.2,328,388,0
L,,2188793,-0.009,1.004,0.090,0.0,-0.2,0.2,278,442,0
L,,2188894,-0.007,1.005,0.090,0.1,-0.2,0.2,302,406,0
L,,2188914,0.001,1.003,0.082,0.1,-0.2,0.2,303,406,0
L,,2188973,-0.003,1.003,0.088,0.1,-0.2,0.2,299,409,0
L,,2189034,0.000,1.002,0.082,0.2,-0.4,0.2,309,409,0
L,,2189093,-0.002,1.002,0.083,0.1,-0.3,0.2,309,412,0
L,,2189153,-0.007,1.006,0.083,0.0,-0.4,0.2,303,447,0
L,,2189213,0.006,1.003,0.077,0.0,-0.3,0.2,309,414,0
L,,2189303,0.000,1.003,0.082,0.0,-0.2,0.3,323,418,0
L,,2189363,0.005,1.004,0.084,0.0,-0.2,0.3,312,412,0
L,,2189425,0.003,1.000,0.086,0.0,-0.3,0.2,327,408,0
L,,2189483,0.001,1.003,0.086,0.0,-0.3,0.2,338,405,0
L,,2189543,0.006,1.006,0.092,0.0,-0.3,0.2,338,406,0
L,,2189603,0.006,1.002,0.089,0.0,-0.3,0.2,309,438,0
L,,2189664,0.010,1.005,0.088,0.0,-0.4,0.1,312,417,0
L,,2189723,0.015,1.002,0.095,0.0,-0.3,0.2,275,427,0
L,,2189784,0.002,1.004,0.097,0.0,-0.2,0.2,334,406,0
L,,2189843,0.004,1.005,0.094,0.0,0.0,0.3,335,415,0
L,,2189903,0.008,1.000,0.089,-0.1,0.3,0.4,287,438,0
L,,2189963,0.010,1.004,0.088,-0.2,0.4,0.5,298,405,0
L,,2190023,0.023,1.004,0.100,-0.3,0.2,0.6,316,433,0
L,,2190084,0.024,1.007,0.110,0.0,-0.3,0.5,313,450,0
L,,2190143,0.025,1.008,0.104,0.4,-0.4,0.5,312,454,0
L,,2190204,0.027,1.003,0.094,0.5,-0.4,0.5,316,456,0
L,,2190263,0.015,1.004,0.100,0.6,-1.0,0.4,325,457,0
L,,2190324,0.032,1.008,0.103,0.9,-1.0,0.4,322,460,0
L,,2190383,0.045,0.996,0.079,1.0,-0.7,0.6,337,441,0
L,,2190443,0.019,1.002,0.082,0.8,-1.0,0.6,309,437,0
L,,2190503,0.048,1.011,0.071,0.6,-0.5,0.8,323,425,0
L,,2190563,0.046,1.003,0.066,0.5,0.0,1.1,316,402,0
L,,2190624,0.067,1.008,0.065,0.5,0.5,1.1,211,260,0
L,,2190683,0.059,1.004,0.057,0.4,0.6,1.1,249,308,0
L,,2190744,0.079,0.999,0.052,0.3,0.6,0.8,212,291,0
L,,2190805,0.076,0.997,0.053,0.1,0.5,0.8,216,307,0
L,,2190864,0.092,0.995,0.054,-0.1,0.1,0.6,244,313,0
L,,2190923,0.095,1.009,0.062,0.1,-0.6,0.3,284,364,0
L,,2190983,0.095,1.005,0.063,0.6,-1.2,0.1,254,367,0
L,,2191074,0.087,1.002,0.043,0.5,-0.9,0.2,241,359,0
L,,2191133,0.086,1.000,0.043,0.5,-0.7,0.3,238,340,0
L,,2191193,0.100,1.005,0.042,0.6,-0.4,0.4,213,295,0
L,,2191253,0.093,1.006,0.045,0.8,-0.4,0.4,205,288,0
L,,2191313,0.092,1.002,0.038,1.5,0.0,0.5,192,275,0
L,,2191374,0.099,1.052,0.040,3.1,-1.4,-0.3,183,240,0
L,,2191433,0.113,1.059,0.010,4.1,-1.3,-1.1,115,189,0
L,,2191495,0.104,1.028,-0.064,4.3,-0.8,-1.7,55,166,0
L,,2191553,0.235,0.997,-0.197,4.2,-0.3,-1.0,61,148,0
L,,2191614,0.191,0.935,-0.210,2.8,-1.6,-0.4,36,123,0
L,,2191673,0.166,0.902,-0.427,1.0,-5.3,0.8,56,143,0
L,,2191733,0.076,0.990,-0.295,2.5,-7.8,2.0,47,111,0
L,,2191793,0.001,1.046,-0.430,5.8,-1.1,0.2,62,133,0
L,,2191853,0.142,0.919,-0.350,6.7,-6.5,0.3,57,115,0
L,,2191914,0.101,0.830,-0.186,5.2,-11.9,0.7,80,138,0
L,,2191973,0.026,0.780,-0.033,1.6,-13.9,0.7,64,102,0
L,,2192034,0.101,0.630,0.032,-2.0,-16.7,3.9,65,112,0
L,,2192093,-0.624,1.399,-0.557,-7.6,-12.5,3.6,41,123,0
L,,2192154,0.045,1.298,-0.196,-11.3,7.7,2.3,55,146,0
L,,2192215,-0.124,1.145,0.062,-10.3,-4.3,-1.8,165,157,0
L,,2192273,-0.040,1.070,0.058,-6.3,-0.8,0.0,296,328,0
L,,2192333,-0.042,1.005,0.041,-4.4,-1.1,0.7,286,340,0
L,,2192393,0.020,1.026,0.053,-1.9,-2.8,-0.3,284,357,0
L,,2192454,-0.027,1.025,0.047,-0.8,-3.7,-0.2,206,274,0
L,,2192513,-0.027,1.006,0.054,-0.5,-2.8,0.0,209,271,0
L,,2192574,-0.008,0.992,0.066,-1.2,-3.0,0.5,249,347,0
L,,2192633,-0.061,1.020,0.079,-1.4,-3.6,0.9,161,228,0
L,,2192694,-0.037,1.006,0.077,-1.5,-2.3,1.4,161,301,0
L,,2192753,0.000,1.008,0.097,-1.9,-2.4,2.0,221,325,0
L,,2192813,0.002,1.013,0.128,-1.5,-2.7,2.9,255,341,0
L,,2192874,0.050,0.991,0.103,-1.6,-2.9,3.2,132,188,0
L,,2192935,0.011,1.049,0.093,-2.4,-0.1,4.8,222,311,0
L,,2192994,0.038,1.007,0.132,-3.3,-0.1,6.6,219,286,0
L,,2193053,0.049,1.159,0.034,-0.5,-4.5,6.9,185,252,0
L,,2193114,0.183,1.083,0.243,-2.5,-12.2,2.6,106,135,0
L,,2193173,0.130,0.978,0.215,-1.6,-7.4,2.5,54,83,0
L,,2193234,0.163,1.019,-0.125,2.9,2.6,-2.0,49,103,0
L,,2193293,0.358,0.915,0.021,5.6,-5.8,-1.6,46,101,0
L,,2193353,0.341,0.932,0.151,4.6,-4.2,-2.2,62,111,0
L,,2193413,0.247,0.917,0.217,2.7,-0.5,-0.9,62,111,0
L,,2193473,0.288,0.926,0.155,0.6,4.7,-0.2,66,119,0
L,,2193534,0.259,0.969,0.152,0.0,7.1,0.0,56,108,0
L,,2193595,0.247,0.951,0.106,0.3,9.7,-0.2,60,114,0
L,,2193654,0.351,0.883,0.200,0.8,4.0,0.0,33,114,0
L,,2193713,0.387,0.904,0.001,-1.1,4.2,-1.5,52,151,0
L,,2193773,0.450,1.010,0.243,-1.3,2.2,0.0,63,126,0
L,,2193833,0.179,1.052,0.219,-1.5,0.5,-1.0,88,154,0
L,,2193893,0.139,1.015,0.156,-0.3,0.1,-1.1,118,153,0
L,,2193954,0.198,0.989,0.102,0.2,-1.1,-1.6,108,176,0
L,,2194013,0.128,0.986,0.113,0.2,-1.1,-1.6,121,198,0
L,,2194074,0.135,1.020,0.103,-0.1,-0.4,-1.2,157,225,0
L,,2194133,0.103,0.988,0.116,-0.5,-0.3,-1.1,164,247,0
L,,2194194,0.101,0.997,0.126,-0.5,-0.5,-1.0,168,263,0
L,,2194253,0.057,1.014,0.133,-0.3,-1.2,-1.1,174,223,0
L,,2194315,0.072,1.000,0.137,-0.1,-0.1,-0.6,224,285,0
L,,2194374,0.070,0.997,0.129,0.0,-0.3,-0.3,248,306,0
L,,2194433,0.063,0.997,0.132,0.0,0.1,0.0,252,278,0
L,,2194494,0.083,1.002,0.125,0.0,-0.1,-0.2,267,320,0
L,,2194553,0.069,0.994,0.125,0.2,0.0,-0.1,281,329,0
L,,2194614,0.062,0.991,0.118,0.3,-0.6,-0.3,267,306,0
L,,2194673,0.060,0.996,0.119,0.1,-0.7,-0.4,207,330,0
L,,2194734,0.054,0.994,0.128,0.1,-0.8,-0.5,293,337,0
L,,2194793,0.056,0.989,0.121,0.0,-0.6,-0.5,295,338,0
L,,2194853,0.017,0.994,0.135,-0.1,-0.7,-0.5,267,340,0
L,,2194914,0.035,0.986,0.121,-0.5,-0.3,-0.3,281,332,0
L,,2194973,0.064,0.991,0.138,-0.7,-1.2,-0.4,172,280,0
L,,2195035,0.033,1.001,0.149,-1.3,-1.7,-0.6,158,206,0
L,,2195093,0.014,0.995,0.177,-0.8,-2.8,-0.5,186,327,0
L,,2195154,-0.012,1.003,0.166,-0.7,-3.0,0.0,181,327,0
L,,2195213,0.001,0.994,0.170,-0.3,-1.5,0.8,195,339,0
L,,2195274,0.003,0.991,0.164,0.0,-0.6,1.9,275,385,0
L,,2195333,0.049,0.992,0.181,-0.2,-0.7,2.3,227,318,0
L,,2195393,0.067,0.972,0.172,-0.5,-1.1,2.7,211,321,0
L,,2195454,0.096,0.970,0.163,-1.5,-1.3,3.2,221,331,0
L,,2195513,0.096,1.019,0.218,-1.6,-2.6,4.9,207,306,0
L,,2195574,-0.014,1.148,0.230,4.5,-6.8,7.9,231,294,0
L,,2195633,0.226,1.159,0.411,7.9,-30.2,4.5,81,94,0
L,,2195695,-0.239,1.158,0.195,5.6,-52.4,0.8,31,83,0
L,,2195753,-0.266,1.023,0.512,3.0,-42.3,-2.9,64,91,0
L,,2195814,-0.312,0.927,0.407,0.6,-32.9,-2.5,73,102,0
L,,2195874,-0.300,0.855,0.372,-4.1,-14.9,-0.1,58,87,0
L,,2195933,-0.110,0.813,0.243,-10.8,-6.5,2.5,67,87,0
L,,2195994,0.065,1.046,-0.036,-18.1,-6.5,2.4,50,98,0
L,,2196053,0.201,1.161,0.110,-21.4,-15.7,3.2,43,98,0
L,,2196114,0.004,1.261,-0.031,-19.7,-23.6,2.4,43,90,0
L,,2196173,-0.894,1.352,-0.130,-13.4,-16.3,4.0,31,93,0
L,,2196234,-0.427,1.026,-0.629,2.9,-5.6,-4.1,34,93,0
L,,2196293,-0.902,0.272,0.873,9.1,1.4,-10.7,207,195,0
L,,2196354,-0.137,0.451,-0.290,20.0,-15.1,-11.2,180,299,0
L,,2196416,-0.059,0.895,0.061,7.4,-3.3,-4.5,168,253,0
L,,2196473,0.086,0.900,0.094,3.3,-3.6,-3.7,172,198,0
L,,2196534,-0.053,1.045,0.129,2.6,-0.9,-2.6,194,244,0
L,,2196593,-0.032,1.039,0.109,3.3,-0.2,-1.9,133,207,0
L,,2196654,-0.081,1.054,0.064,4.4,0.8,-2.2,275,304,0
L,,2196713,-0.101,0.991,-0.001,4.8,0.4,-1.8,239,283,0
L,,2196774,-0.122,1.026,-0.023,4.6,1.4,-1.5,109,160,0
L,,2196833,-0.047,1.084,-0.002,5.9,1.6,-2.1,71,136,0
L,,2196894,-0.177,1.173,-0.028,10.3,1.2,-3.1,26,155,0
L,,2196954,0.052,1.292,-0.192,15.3,3.2,-3.1,35,193,0
L,,2197013,0.157,1.867,0.016,20.5,-0.9,-4.0,25,108,0
L,,2197073,0.323,1.562,0.568,22.8,10.7,-8.9,21,99,0
L,,2197135,-0.282,1.063,-0.660,13.7,-7.7,-0.9,17,55,0
L,,2197194,0.245,0.190,0.036,4.8,-12.9,-1.7,45,76,0
L,,2197253,0.124,0.125,0.106,-13.4,-5.3,4.6,38,64,0
L,,2197314,-0.044,0.458,0.032,-24.9,-11.2,8.7,43,77,0
L,,2197374,-0.167,0.977,-0.043,-31.3,-13.2,13.8,34,79,0
L,,2197433,-0.116,1.532,0.250,-31.6,-0.7,16.5,20,51,0
L,,2197494,-0.063,1.828,-0.149,-35.2,3.9,14.5,35,85,0
L,,2197553,-0.379,1.732,-1.152,-18.1,2.3,4.2,14,41,0
L,,2197614,-0.535,1.720,-0.934,14.8,2.6,-4.5,43,85,0
L,,2197673,0.119,4.162,-3.697,18.6,-21.9,-9.0,300,313,9
L,,2197734,-0.164,1.303,-0.097,10.2,-10.5,-4.5,211,331,0
L,,2197795,-0.047,0.985,0.107,5.5,-2.0,-4.1,204,237,0
L,,2197854,-0.102,0.964,0.106,1.7,-1.1,-2.5,193,276,0
L,,2197914,-0.060,1.009,0.077,1.6,0.8,-1.6,199,297,0
L,,2197973,-0.125,1.033,0.124,2.3,1.4,-1.7,200,312,0
L,,2198034,-0.146,1.136,0.148,3.2,1.2,-1.4,244,336,0
L,,2198093,-0.129,1.013,0.043,3.9,1.8,-1.8,188,281,0
L,,2198154,-0.111,1.069,0.059,5.9,2.6,-2.8,116,194,0
L,,2198213,-0.030,1.083,0.012,10.6,0.5,-4.5,46,198,0
L,,2198274,-0.241,1.376,-0.015,16.3,2.8,-5.4,45,203,0
L,,2198333,0.079,2.076,0.133,21.8,-1.4,-5.6,22,131,0
L,,2198394,0.237,1.409,0.423,22.0,18.5,-11.3,14,60,0
L,,2198454,-0.258,0.953,-0.709,14.3,3.0,-7.6,22,69,0
L,,2198515,0.261,0.183,0.143,2.7,-2.5,-4.3,35,76,0
L,,2198574,0.225,0.108,0.203,-14.8,1.6,1.3,36,76,0
L,,2198633,0.172,0.325,0.127,-28.3,-5.5,6.1,43,77,0
L,,2198694,-0.027,0.977,0.294,-37.4,-8.6,12.1,48,67,0
L,,2198753,0.035,2.072,0.124,-41.5,-1.1,12.8,28,79,0
L,,2198814,-0.712,2.299,-1.086,-32.7,-6.5,10.8,29,84,0
L,,2198874,-0.118,1.507,-0.957,3.2,-0.2,-3.5,155,165,0
L,,2198934,-1.281,2.464,-3.689,16.3,-8.7,-8.2,278,354,0
L,,2198994,-0.307,1.018,0.290,6.0,-15.3,-5.9,212,334,0
L,,2199053,-0.044,0.951,0.167,3.1,-3.1,-4.7,277,311,0
L,,2199114,-0.123,0.977,0.184,1.2,-0.6,-2.9,239,377,0
L,,2199175,-0.094,1.048,0.156,2.2,-1.5,-2.4,245,395,0
L,,2199234,-0.047,1.049,0.180,5.0,0.9,-1.9,233,258,0
L,,2199293,-0.132,1.025,0.107,6.4,1.3,-2.4,243,325,0
L,,2199354,-0.085,1.033,-0.003,6.3,1.3,-3.2,210,248,0
L,,2199414,-0.141,0.995,-0.003,6.2,1.7,-3.8,126,256,0
L,,2199474,-0.181,1.092,0.003,8.8,2.8,-4.6,40,243,0
L,,2199534,-0.154,1.460,-0.006,13.7,4.1,-5.5,38,166,0
L,,2199593,-0.098,1.829,0.261,16.4,5.8,-10.2,29,119,0
L,,2199654,-0.091,1.083,-0.018,16.3,29.6,-12.0,26,89,0
L,,2199713,-0.427,0.498,-0.042,7.8,17.0,-13.2,30,89,0
L,,2199774,0.177,0.163,0.333,-4.9,16.4,-11.9,41,92,0
L,,2199833,0.432,0.314,0.003,-16.7,12.3,-8.1,44,86,0
L,,2199895,0.255,0.534,0.097,-29.6,-3.8,-2.8,61,93,0
L,,2199954,-0.214,1.180,0.263,-37.9,-2.0,0.9,59,80,0
L,,2200014,-0.213,2.145,0.114,-37.0,27.2,5.6,40,91,0
L,,2200074,1.292,1.740,-1.547,-18.3,41.4,4.8,58,108,0
L,,2200133,1.450,1.920,0.063,12.8,-10.4,1.4,183,164,0
L,,2200194,-1.160,0.538,0.382,9.3,-10.8,-1.5,258,265,0
L,,2200253,0.123,1.059,-0.042,2.8,1.0,-0.8,264,288,0
L,,2200314,-0.250,0.952,0.160,3.0,1.7,0.6,259,309,0
L,,2200374,-0.233,1.018,0.122,3.3,0.9,0.5,264,302,0
L,,2200434,-0.020,0.781,-0.011,3.9,2.7,2.0,153,347,0
L,,2200494,-0.206,1.000,0.037,2.7,3.0,0.4,232,288,0
L,,2200554,-0.174,0.998,0.051,2.8,2.9,0.4,230,259,0
L,,2200616,-0.098,1.017,-0.029,3.4,1.8,0.7,186,270,0
L,,2200673,-0.158,0.969,-0.035,3.7,1.6,0.4,130,177,0
L,,2200734,-0.111,1.097,0.013,5.1,2.3,0.3,131,222,0
L,,2200793,-0.129,1.158,0.085,6.9,0.0,2.1,42,159,0
L,,2200854,-0.674,1.080,0.172,3.9,12.5,-1.5,5,32,0
L,,2200914,-0.288,0.870,0.048,0.9,25.5,-3.1,8,33,0
L,,2200974,0.069,0.923,-0.074,-1.3,29.3,-3.9,11,30,0
L,,2201064,0.081,0.850,-0.193,-4.4,20.5,-1.9,9,36,0
L,,2201124,0.075,0.975,-0.104,-5.5,18.3,-0.5,12,38,0
L,,2201184,0.028,1.064,-0.071,-5.6,13.2,-1.6,54,155,0
L,,2201244,0.090,1.051,-0.215,-3.2,7.0,-3.0,40,112,0
L,,2201305,0.141,1.038,-0.276,2.2,0.0,-4.7,44,127,0
L,,2201364,0.035,0.945,-0.110,4.4,-4.4,-7.7,64,157,0
L,,2201423,0.594,1.826,-0.945,8.7,-8.1,-1.1,54,163,0
L,,2201484,-0.578,0.465,-0.508,3.9,-1.5,-6.3,46,170,0
L,,2201543,-0.361,1.229,-0.384,-7.5,-1.3,1.7,11,45,0
L,,2201604,0.191,1.514,0.349,-6.9,7.1,5.8,50,147,0
L,,2201664,-0.227,0.168,-0.516,-1.4,-1.2,3.9,50,143,0
L,,2201724,-0.475,-0.037,0.374,-4.6,4.2,6.4,13,34,0
L,,2201784,-0.840,2.151,-2.471,1.0,-9.1,0.0,10,47,0
L,,2201844,1.097,3.439,0.351,5.4,2.0,-3.2,146,185,0
L,,2201904,-0.302,0.659,-0.345,-1.9,2.3,0.7,19,33,0
L,,2201963,0.118,0.790,-0.199,-4.7,2.1,1.5,17,29,0
L,,2202025,0.157,0.970,-0.074,-2.6,-1.2,0.6,18,35,0
L,,2202083,-0.107,1.232,0.062,-0.7,-0.9,0.4,102,134,0
L,,2202144,0.060,1.023,-0.027,-1.3,0.3,0.0,186,271,0
L,,2202204,0.058,0.978,-0.036,-1.1,-0.7,-0.1,203,270,0
L,,2202264,0.004,1.055,0.020,-0.6,-0.9,-0.4,207,300,0
L,,2202324,0.004,1.000,-0.013,-0.4,0.2,0.0,211,315,0
L,,2202383,0.058,0.969,0.005,-0.2,0.7,0.1,222,311,0
L,,2202444,-0.031,1.019,0.042,0.4,-1.4,-0.9,113,147,0
L,,2202503,-0.002,0.994,-0.010,-0.6,-3.2,-1.9,223,328,0
L,,2202564,-0.021,0.999,0.014,-0.9,-1.8,-1.5,201,340,0
L,,2202624,-0.123,1.020,0.038,-0.5,0.0,0.4,224,309,0
L,,2202684,-0.024,1.016,0.065,0.9,1.2,1.4,207,318,0
L,,2202746,-0.032,1.022,0.000,2.9,0.9,1.3,256,388,0
L,,2202804,0.009,1.014,-0.013,3.6,-0.2,0.9,222,331,0
L,,2202864,0.009,1.035,0.003,5.3,0.1,1.0,206,305,0
L,,2202965,-0.119,1.381,0.113,14.4,-0.3,0.3,9,46,0
L,,2202984,-0.220,1.470,0.145,15.8,1.2,-1.7,9,44,0
L,,2203043,0.389,1.501,0.175,20.7,0.0,-4.5,6,39,0
L,,2203104,-0.290,0.872,-0.396,17.3,1.1,-4.3,40,104,0
L,,2203164,0.334,0.278,-0.121,5.2,-1.1,-0.2,35,84,0
L,,2203224,0.020,0.305,0.340,-7.2,-10.3,1.2,38,94,0
L,,2203284,-0.026,0.606,0.232,-19.8,-7.4,6.1,55,124,0
L,,2203344,0.096,1.018,0.179,-26.0,-0.4,10.0,60,127,0
L,,2203406,0.091,1.556,-0.040,-33.3,0.7,8.7,34,100,0
L,,2203463,-0.103,1.852,-0.515,-28.7,-4.9,4.8,45,117,0
L,,2203524,-0.549,1.329,-0.874,-11.4,-12.9,2.6,45,126,0
L,,2203583,0.023,1.404,-0.341,11.6,6.2,-9.4,109,106,0
L,,2203644,0.281,2.448,1.045,17.5,-21.6,-7.4,138,230,0
L,,2203704,-0.243,1.277,-0.129,10.0,-5.0,-4.5,138,180,0
L,,2203764,-0.037,1.012,0.136,1.5,-5.3,-3.4,284,381,0
L,,2203824,-0.052,1.016,0.113,2.2,-0.4,-2.1,304,392,0
L,,2203884,-0.109,1.042,0.125,2.8,-0.1,-1.3,295,404,0
L,,2203944,-0.033,1.035,0.055,3.9,0.6,-1.4,228,334,0
L,,2204003,-0.041,1.014,-0.006,5.3,1.4,-1.6,187,230,0
L,,2204064,-0.092,0.987,-0.045,5.0,0.7,-1.5,30,47,0
L,,2204125,-0.077,1.015,-0.047,5.6,1.8,-1.7,73,249,0
L,,2204184,0.018,1.142,-0.099,10.1,0.0,-2.6,56,251,0
L,,2204244,-0.045,1.527,-0.054,16.3,1.9,-3.0,25,89,0
L,,2204304,-0.103,1.958,0.388,21.1,2.0,-5.5,44,156,0
L,,2204394,-0.095,0.956,-0.813,18.9,24.6,-1.7,31,70,0
L,,2204454,-0.101,-0.247,-0.444,5.8,4.0,1.5,91,113,0
L,,2204514,0.232,-0.108,0.360,-9.6,-5.2,0.0,66,85,0
L,,2204574,0.154,0.227,0.135,-22.8,-7.9,4.5,77,101,0
L,,2204634,0.152,0.674,0.163,-33.4,-5.9,11.0,65,90,0
L,,2204694,0.374,1.588,0.433,-40.3,-2.8,14.7,12,31,0
L,,2204753,-0.147,2.161,-0.334,-38.6,3.2,14.2,11,33,0
L,,2204814,-1.004,1.948,-1.901,-18.3,-4.3,4.1,92,127,0
L,,2204875,1.085,1.996,1.352,12.7,0.5,-1.5,272,308,0
L,,2204934,0.008,0.638,0.189,15.3,-16.0,-6.8,121,212,0
L,,2204994,0.166,0.836,-0.006,10.0,-2.5,-5.3,164,337,0
L,,2205054,-0.012,0.957,0.059,5.6,-1.4,-4.6,169,273,0
L,,2205114,-0.059,1.005,0.034,4.6,0.7,-2.2,155,267,0
L,,2205174,-0.079,1.005,0.005,3.2,0.7,-2.2,116,144,0
L,,2205234,-0.078,1.013,-0.008,3.1,1.7,-1.8,61,92,0
L,,2205293,-0.084,1.024,-0.035,3.8,1.6,-2.0,139,231,0
L,,2205354,-0.120,1.015,-0.042,4.8,1.7,-2.1,98,227,0
L,,2205414,-0.011,1.106,-0.037,8.7,2.0,-3.0,56,261,0
L,,2205474,-0.197,1.472,-0.042,14.6,1.1,-4.1,49,126,0
L,,2205566,-0.126,2.281,0.858,22.0,5.2,-8.5,45,118,0
L,,2205624,-0.204,0.906,-0.634,24.8,25.3,-1.8,37,83,0
L,,2205683,-0.454,-0.752,0.064,6.8,12.0,0.3,78,119,0
L,,2205744,0.130,-0.143,0.400,-8.9,-3.3,-1.4,73,99,0
L,,2205804,0.203,0.207,-0.023,-22.1,-2.6,3.4,82,106,0
L,,2205864,0.243,0.650,0.240,-32.8,-10.2,10.2,18,30,0
L,,2205924,0.192,1.338,0.465,-38.6,-3.9,14.8,80,106,0
L,,2205984,0.171,2.329,-0.191,-37.3,9.1,15.1,67,94,0
L,,2206043,-0.175,1.718,-1.369,-25.9,-3.2,7.2,67,96,0
L,,2206104,-0.821,1.435,-0.592,13.9,-4.3,-7.8,174,167,0
L,,2206164,-0.351,1.971,-0.402,16.7,-5.4,-7.1,200,365,0
L,,2206224,-0.564,0.992,0.158,10.9,-17.7,-10.5,185,325,0
L,,2206286,0.133,0.943,0.061,6.7,0.4,-4.5,206,402,0
L,,2206344,-0.151,1.008,0.098,4.9,-2.1,-3.6,261,430,0
L,,2206404,-0.040,0.976,-0.008,3.4,0.7,-2.0,144,174,0
L,,2206464,-0.111,1.014,0.015,2.8,0.9,-1.7,216,233,0
L,,2206524,-0.131,1.031,-0.006,3.2,0.4,-1.7,197,218,0
L,,2206583,-0.107,1.001,-0.059,3.8,0.2,-1.7,180,285,0
L,,2206644,-0.025,1.087,0.008,6.0,1.4,-2.6,135,259,0
L,,2206704,-0.166,1.261,0.056,12.4,-1.5,-3.7,52,284,0
L,,2206764,0.029,1.774,0.025,19.9,1.6,-5.6,39,104,0
L,,2206824,-0.019,2.113,0.908,23.5,4.3,-10.5,37,104,0
L,,2206884,-0.265,0.690,-0.515,22.6,34.5,-2.3,38,101,0
L,,2206946,-0.288,-0.847,-0.530,0.6,12.9,0.5,100,155,0
L,,2207004,0.280,-0.145,0.319,-11.0,-0.6,-1.9,110,129,0
L,,2207064,0.269,0.210,-0.033,-23.3,-10.0,2.8,118,136,0
L,,2207154,-0.148,1.179,0.168,-33.0,-8.4,13.4,108,127,0
L,,2207214,0.176,2.111,-0.200,-37.5,7.2,17.5,70,134,0
L,,2207274,-0.032,2.305,-0.518,-32.9,5.9,14.2,80,115,0
L,,2207334,-0.264,1.388,-1.267,5.2,10.5,-0.9,128,137,0
L,,2207394,0.757,1.528,-0.505,17.9,6.3,-4.1,260,282,0
L,,2207454,-0.640,1.199,-0.157,7.4,-17.2,-12.7,254,340,0
L,,2207514,0.027,0.800,0.268,10.3,-0.3,-5.5,260,389,0
L,,2207574,-0.033,0.937,0.106,2.9,-0.8,-3.2,238,372,0
L,,2207634,-0.094,0.984,0.138,2.1,1.8,-1.7,170,260,0
L,,2207696,-0.198,1.022,0.176,1.1,1.1,-0.7,281,375,0
L,,2207754,-0.087,1.021,0.142,2.0,1.9,-0.9,287,268,0
L,,2207814,-0.044,1.029,0.085,3.2,2.9,-1.3,214,250,0
L,,2207874,-0.097,1.013,0.081,4.2,1.6,-1.6,165,239,0
L,,2207934,-0.054,1.071,0.072,6.4,0.2,-3.3,100,172,0
L,,2207994,-0.164,1.185,0.027,9.9,-0.1,-4.4,41,223,0
L,,2208054,-0.152,1.521,-0.006,12.9,1.5,-4.6,32,142,0
L,,2208114,-0.081,0.956,-0.135,10.6,6.2,-6.7,64,168,0
L,,2208174,0.062,0.824,-0.372,8.6,14.6,-4.5,48,149,0
L,,2208234,-0.100,0.756,-0.575,8.9,15.2,-1.8,14,40,0
L,,2208294,0.033,0.663,-0.633,2.2,4.9,-1.3,11,30,0
L,,2208354,-0.235,0.455,-0.272,0.0,-3.5,1.1,21,33,0
L,,2208416,-0.008,0.334,-0.169,-3.7,-2.9,5.6,39,99,0
L,,2208474,0.719,0.385,-0.281,-8.9,1.8,14.5,39,109,0
L,,2208564,-0.264,1.303,0.402,-17.2,-25.5,12.9,12,35,0
L,,2208625,-1.839,1.715,-2.060,-3.4,-13.0,1.5,48,108,0
L,,2208684,0.407,1.176,-0.031,-6.2,1.3,1.1,20,27,0
L,,2208744,-0.047,0.961,-0.045,-6.5,-5.2,-2.2,111,128,0
L,,2208834,-0.048,1.066,0.056,-5.2,-2.6,-0.5,178,188,0
L,,2208894,-0.017,1.014,0.025,-4.6,0.2,0.4,224,255,0
L,,2208954,-0.027,0.980,0.039,-4.4,0.8,1.0,183,259,0
L,,2209014,0.059,1.048,0.101,-3.3,0.1,0.9,221,242,0
L,,2209074,0.026,1.001,0.120,-1.6,-1.1,0.3,181,255,0
L,,2209135,-0.019,0.989,0.101,-1.3,-1.5,0.9,211,329,0
L,,2209194,-0.010,0.984,0.130,-2.4,-0.8,1.7,251,349,0
L,,2209254,0.034,0.983,0.184,-3.6,0.3,2.0,224,410,0
L,,2209314,0.069,0.984,0.017,-6.5,0.1,3.8,256,435,0
L,,2209375,-0.073,1.037,-0.004,-10.0,-1.1,5.1,228,403,0
L,,2209434,-0.227,1.451,0.072,-10.3,-6.1,6.6,185,269,0
L,,2209494,-0.381,1.381,-0.729,4.2,15.1,-1.5,83,92,0
L,,2209554,0.143,1.024,-0.529,15.6,4.1,-2.7,12,28,0
L,,2209614,-0.072,1.299,-0.218,20.7,2.3,-5.4,73,121,0
L,,2209674,-0.143,1.320,-0.081,22.2,3.3,-7.1,67,121,0
L,,2209734,0.030,1.138,-0.207,22.2,3.4,-7.8,79,128,0
L,,2209794,0.142,0.856,-0.143,19.2,-0.6,-6.5,63,133,0
L,,2209856,0.314,0.463,0.453,11.4,-6.7,-1.5,19,25,0
L,,2209915,0.363,0.019,0.699,-6.3,-9.1,6.2,48,122,0
L,,2209974,-1.192,1.850,1.043,-21.0,-5.3,6.1,58,122,0
L,,2210034,-0.584,1.655,0.142,-11.6,-5.1,-2.2,215,228,0
L,,2210094,0.067,0.983,-0.248,-11.3,2.5,6.8,185,237,0
L,,2210154,-0.140,1.016,0.104,-11.4,0.2,4.0,279,359,0
L,,2210214,0.099,1.047,0.199,-6.5,0.9,1.4,294,405,0
L,,2210274,-0.028,1.027,0.129,-2.8,-0.1,1.6,277,426,0
L,,2210334,0.000,1.011,0.105,-2.6,0.7,2.1,273,446,0
L,,2210424,0.023,0.983,0.154,-4.9,0.0,2.6,284,445,0
L,,2210484,0.044,0.953,0.214,-5.7,-0.1,2.7,265,452,0
L,,2210544,0.006,0.967,0.161,-7.8,-1.0,3.1,274,416,0
L,,2210606,-0.146,1.120,0.189,-10.9,-5.3,4.5,286,408,0
L,,2210665,-0.092,1.648,0.106,-8.9,-2.2,7.6,200,261,0
L,,2210754,-0.023,1.213,-0.687,16.0,7.7,-3.0,13,35,0
L,,2210814,0.185,1.282,-0.292,25.5,2.4,-7.3,22,51,0
L,,2210875,-0.048,1.393,-0.085,28.6,1.5,-8.5,48,77,0
L,,2210934,-0.026,1.181,-0.029,28.5,3.2,-7.5,47,78,0
L,,2210994,0.079,0.857,0.040,22.1,-0.4,-5.7,50,76,0
L,,2211054,0.071,0.480,0.259,12.4,-6.2,-2.1,61,87,0
L,,2211114,0.211,0.256,0.667,-0.7,-5.6,3.5,26,32,0
L,,2211174,-1.891,2.313,0.363,-22.1,-11.1,3.6,12,70,0
L,,2211234,1.753,2.167,-0.742,-17.1,10.2,7.3,91,150,0
L,,2211295,-1.041,0.904,0.354,-9.7,-2.3,0.4,144,184,0
L,,2211354,0.073,1.111,-0.133,-9.3,0.2,2.2,234,382,0
L,,2211444,0.042,1.055,0.047,-6.4,-0.5,0.2,244,335,0
L,,2211504,-0.029,1.026,0.091,-4.6,-1.6,1.1,208,291,0
L,,2211594,-0.052,0.975,0.092,-4.5,0.0,1.9,231,340,0
L,,2211654,-0.009,0.933,0.174,-5.6,1.2,2.5,229,396,0
L,,2211714,0.006,0.987,0.244,-5.6,1.4,1.9,157,282,0
L,,2211774,0.054,0.946,0.203,-7.4,1.7,3.4,152,273,0
L,,2211834,-0.118,1.099,0.080,-9.5,-0.6,4.2,147,272,0
L,,2211894,-0.579,1.931,0.087,-7.8,-7.2,5.0,212,268,0
L,,2211955,-0.388,1.871,-0.689,-4.0,10.9,-1.8,19,32,0
L,,2212014,0.448,1.069,-0.691,20.2,1.7,-2.1,15,43,0
L,,2212076,0.103,1.488,-0.245,26.6,-1.5,-6.5,34,88,0
L,,2212134,-0.109,1.364,-0.063,29.6,-0.4,-6.5,22,45,0
L,,2212194,-0.018,0.946,-0.053,27.0,1.6,-5.2,17,46,0
L,,2212254,0.115,0.518,-0.043,17.8,-5.5,-1.5,50,107,0
L,,2212314,0.020,0.664,0.367,4.4,-12.1,0.7,58,112,0
L,,2212375,0.076,0.568,0.776,-6.3,-8.8,5.1,12,53,0
L,,2212434,-0.255,1.834,0.899,-18.4,-1.2,6.5,49,150,0
L,,2212495,0.561,1.411,-0.522,-15.7,3.1,4.1,38,188,0
L,,2212554,-0.422,1.138,0.133,-11.5,-2.0,1.6,191,194,0
L,,2212614,0.019,1.065,0.027,-7.7,0.2,2.3,255,316,0
L,,2212674,-0.022,0.993,0.035,-4.7,0.0,2.1,219,267,0
L,,2212734,-0.018,1.019,0.060,-4.1,-1.3,1.0,252,324,0
L,,2212836,-0.057,1.022,0.158,-4.0,-0.9,1.2,303,423,0
L,,2212854,-0.048,0.968,0.150,-3.9,-0.5,1.0,304,432,0
L,,2212915,-0.026,0.981,0.127,-3.4,0.6,1.1,290,430,0
L,,2212974,-0.056,0.998,0.182,-3.1,-0.1,4.4,284,441,0
L,,2213035,-0.002,0.974,0.155,-3.3,-1.5,2.4,236,391,0
L,,2213125,-0.219,1.157,-0.162,-5.8,-1.7,3.8,250,349,0
L,,2213214,0.631,1.101,-0.323,-5.3,3.7,3.4,39,77,0
L,,2213304,0.303,1.136,-0.172,12.9,-8.0,0.7,45,100,0
L,,2213364,0.133,1.094,-0.059,16.6,-1.6,-0.5,53,112,0
L,,2213424,0.144,1.027,0.022,15.9,3.4,0.8,34,72,0
L,,2213484,0.045,0.960,0.056,12.3,6.2,1.6,69,120,0
L,,2213576,-0.108,0.907,0.058,6.4,15.2,1.1,63,98,0
L,,2213634,-0.250,1.023,0.167,6.6,15.4,0.3,53,94,0
L,,2213694,-0.003,0.904,-0.058,7.7,18.7,-3.3,35,92,0
L,,2213753,0.362,0.871,1.254,-8.6,-12.8,-9.4,69,167,0
L,,2213814,-0.270,2.414,0.301,-7.3,-11.3,-11.6,217,321,0
L,,2213875,-0.047,0.983,-0.059,-2.7,-2.3,-6.6,119,164,0
L,,2213964,-0.023,1.003,-0.045,-2.8,2.4,-4.6,234,327,0
L,,2214024,-0.043,1.002,-0.011,-1.6,2.4,-3.7,198,294,0
L,,2214084,-0.067,0.986,-0.046,-0.5,1.8,-3.7,114,214,0
L,,2214144,-0.097,1.016,-0.025,0.1,1.4,-3.7,44,185,0
L,,2214205,-0.139,1.035,-0.020,1.3,2.0,-4.0,39,120,0
L,,2214294,-0.228,1.028,-0.051,2.2,3.6,-4.8,23,154,0
L,,2214356,-0.242,1.046,-0.008,3.4,2.6,-5.3,16,140,0
L,,2214415,-0.108,1.202,-0.068,6.3,4.0,-7.2,17,150,0
L,,2214504,-0.304,1.952,0.308,14.2,1.1,-10.2,16,151,0
L,,2214564,0.250,1.224,-0.271,14.0,25.1,-14.4,27,76,0
L,,2214654,0.086,-0.447,-0.650,6.6,15.5,-5.3,28,42,0
L,,2214714,0.865,0.224,-0.075,-4.9,13.1,2.8,8,30,0
L,,2214774,0.542,0.388,-0.314,-14.4,0.4,13.9,14,29,0
L,,2214834,0.140,0.736,-0.141,-19.8,0.8,21.9,41,87,0
L,,2214894,0.152,1.097,0.048,-25.4,-1.6,25.2,53,92,0
L,,2214955,0.136,1.979,-0.060,-28.7,-22.5,24.4,42,125,0
L,,2215014,-1.900,1.323,-0.350,-21.2,-36.0,10.1,13,29,0
L,,2215076,-0.849,1.816,-1.689,7.0,-6.7,-13.2,143,202,0
L,,2215134,0.258,0.705,-0.402,4.1,-3.2,-10.0,9,27,0
L,,2215224,0.063,1.003,-0.103,-3.4,-0.7,-4.7,127,273,0
L,,2215285,0.068,1.019,-0.033,-2.2,-0.5,-3.5,144,257,0
L,,2215344,-0.002,1.012,0.002,-0.4,-0.6,-3.0,128,338,0
L,,2215405,0.004,1.009,-0.050,0.1,-1.1,-2.2,84,258,0
L,,2215464,-0.043,0.938,-0.086,-0.2,-1.0,-0.8,118,316,0
L,,2215524,0.000,0.998,-0.073,-1.3,-1.5,0.3,88,259,0
L,,2215584,-0.015,1.002,-0.041,-2.1,-1.8,1.0,52,81,0
L,,2215644,-0.028,1.036,0.022,-1.9,-1.6,1.4,42,61,0
L,,2215705,0.017,1.011,0.006,-1.3,-1.4,1.9,67,117,0
L,,2215764,0.041,1.022,0.026,-0.2,-1.9,2.0,72,132,0
L,,2215826,0.055,1.017,0.016,0.4,-2.4,2.4,78,163,0
L,,2215915,0.032,1.006,0.032,1.1,-3.0,3.0,115,262,0
L,,2216015,0.091,1.082,0.085,3.4,-2.8,5.4,65,164,0
L,,2216035,0.098,1.092,0.067,4.5,-2.3,6.3,43,128,0
L,,2216094,0.148,1.388,0.245,10.3,-0.8,6.3,21,151,0
L,,2216184,-0.120,1.254,-0.277,10.6,-12.7,7.8,41,142,0
L,,2216245,0.063,0.960,0.365,8.4,-51.9,7.7,45,131,0
L,,2216334,-0.565,0.739,0.349,-1.9,-27.5,5.8,55,131,0
L,,2216394,-0.428,0.703,0.128,-7.3,-13.4,6.3,73,154,0
L,,2216484,-0.193,0.945,0.032,-20.5,-16.6,4.9,51,123,0
L,,2216544,-0.227,1.251,0.219,-24.8,-19.5,4.5,72,162,0
L,,2216604,-0.513,1.595,0.165,-23.6,-6.0,6.3,56,161,0
L,,2216666,-0.449,1.456,-0.672,-19.7,-4.1,-2.9,58,138,0
L,,2216724,0.202,1.178,-1.154,-4.8,-15.1,-3.6,94,138,0
L,,2216785,0.985,1.535,1.167,16.2,-4.1,-3.5,190,376,0
L,,2216844,-0.552,0.058,0.635,12.7,-6.5,-9.5,219,414,0
L,,2216905,0.045,1.003,-0.006,7.2,-4.5,-3.4,234,463,0
L,,2216964,-0.110,0.957,0.082,3.0,-3.4,-3.0,194,397,0
L,,2217024,-0.085,1.027,0.089,2.7,-0.6,-1.9,168,335,0
L,,2217084,-0.141,1.064,0.092,4.2,0.4,-1.7,183,401,0
L,,2217144,-0.119,1.011,0.022,5.5,0.9,-1.5,131,243,0
L,,2217205,-0.135,1.006,-0.053,4.7,0.7,-1.1,179,318,0
L,,2217264,-0.143,1.012,-0.070,4.3,1.2,-1.0,152,289,0
L,,2217326,-0.018,1.074,-0.071,6.1,1.7,-1.9,56,266,0
L,,2217384,-0.276,1.280,0.030,12.3,0.8,-2.5,36,255,0
L,,2217445,0.084,1.850,0.006,18.9,2.0,-4.4,28,185,0
L,,2217535,0.164,0.996,-0.052,22.6,25.9,-5.2,22,89,0
L,,2217594,-0.824,1.148,-0.029,10.0,-4.6,-4.5,17,49,0
L,,2217655,0.203,0.196,0.215,0.0,-12.5,-2.1,31,95,0
L,,2217714,0.129,0.234,0.013,-16.8,-7.4,3.9,46,102,0
L,,2217774,0.037,0.490,0.164,-27.2,-15.9,10.2,51,121,0
L,,2217834,-0.458,1.126,0.325,-32.3,-9.9,14.2,58,124,0
L,,2217894,-0.432,2.030,0.237,-38.9,12.1,13.5,45,120,0
L,,2217955,0.437,1.920,-1.154,-32.5,32.7,4.5,54,134,0
L,,2218014,0.207,1.469,-1.244,4.3,7.1,-1.1,82,147,0
L,,2218106,-0.864,1.364,-0.476,8.1,-24.9,-12.1,142,232,0
L,,2218165,-0.051,1.013,-0.056,12.5,7.5,1.1,206,345,0
L,,2218224,-0.041,0.912,0.142,0.0,-7.1,-5.2,249,384,0
L,,2218285,-0.128,0.984,0.131,4.2,2.2,-0.3,206,456,0
L,,2218344,-0.236,1.011,0.202,1.4,-2.1,-1.2,230,470,0
L,,2218405,-0.091,0.996,0.182,2.5,1.4,-0.4,223,500,0
L,,2218464,-0.062,0.912,0.099,3.5,2.9,0.5,252,427,0
L,,2218554,-0.187,0.875,0.048,0.3,1.8,0.4,223,416,0
L,,2218615,-0.035,1.055,0.200,2.9,2.6,0.1,231,391,0
L,,2218674,-0.128,1.018,0.104,7.4,1.0,-0.3,179,347,0
L,,2218735,-0.309,1.099,0.088,9.9,2.5,0.0,158,200,0
L,,2218794,-0.168,1.098,0.036,11.2,5.6,0.2,111,288,0
L,,2218856,-0.587,1.267,0.269,9.4,16.5,-4.5,30,115,0
L,,2218915,-0.189,1.008,0.161,7.4,28.1,-8.5,35,158,0
L,,2219004,0.103,0.756,-0.184,0.8,28.0,-9.4,33,105,0
L,,2219064,0.497,0.616,0.171,-5.7,27.3,-8.7,52,101,0
L,,2219125,0.716,0.839,-0.132,-13.0,18.5,-6.9,63,100,0
L,,2219184,0.504,0.926,-0.113,-17.0,5.2,0.1,54,98,0
L,,2219245,-0.025,1.106,0.053,-17.9,12.7,3.7,45,94,0
L,,2219304,0.048,1.255,0.137,-15.1,24.0,3.0,50,121,0
L,,2219365,-0.195,1.229,0.024,-10.4,22.5,-1.6,57,121,0
L,,2219455,0.691,1.066,0.692,3.9,-2.7,-1.7,72,100,0
L,,2219514,-0.412,1.082,0.713,2.7,-9.0,-3.8,135,194,0
L,,2219576,-0.072,1.038,0.054,2.1,0.6,-0.8,222,310,0
L,,2219665,-0.162,0.977,0.225,-0.3,0.4,-2.1,230,413,0
L,,2219766,-0.132,1.021,0.102,-0.5,0.6,-1.1,242,459,0
L,,2219785,-0.078,1.014,0.177,0.0,0.3,-0.8,233,434,0
L,,2219885,-0.072,1.010,0.107,3.3,0.0,-0.5,233,415,0
L,,2219905,-0.070,1.020,0.139,3.1,-0.3,-0.7,231,405,0
L,,2219964,-0.113,1.011,0.079,2.7,-0.1,-0.7,201,353,0
L,,2220054,-0.130,1.006,0.069,3.4,0.0,-0.9,205,281,0
L,,2220156,-0.118,0.993,-0.002,4.2,0.5,-1.2,117,210,0
L,,2220174,-0.139,1.009,-0.009,4.3,0.3,-1.2,122,193,0
L,,2220264,-0.164,0.976,-0.070,4.7,0.6,-1.3,122,258,0
L,,2220354,-0.107,1.036,-0.137,7.2,0.5,-1.6,33,173,0
L,,2220416,-0.106,1.064,-0.185,9.2,1.6,-1.7,31,123,0
L,,2220474,-0.084,1.358,-0.218,11.4,1.4,-2.6,36,148,0
L,,2220535,-0.054,1.409,0.008,13.2,2.6,-4.1,30,99,0
L,,2220594,-0.042,1.254,0.014,15.5,8.9,-6.3,28,99,0
L,,2220684,-0.318,0.677,-0.453,8.2,3.1,-4.2,35,97,0
L,,2220745,-0.079,0.415,-0.497,3.5,2.3,-0.6,45,78,0
L,,2220804,0.053,0.189,-0.471,-3.4,-1.1,4.0,54,102,0
L,,2220865,-0.147,0.443,-0.515,-9.6,-6.7,5.2,64,122,0
L,,2220924,-0.150,0.650,-0.691,-10.9,-6.0,4.4,20,44,0
L,,2220985,-0.259,0.725,-0.719,-8.6,-3.1,4.7,18,37,0
L,,2221044,-0.231,0.732,-0.720,-5.7,0.5,4.8,66,123,0
L,,2221105,-0.130,0.740,-0.604,-4.7,-0.5,4.5,67,117,0
L,,2221166,-0.277,0.842,-0.553,-4.8,-4.2,3.7,15,32,0
L,,2221224,-0.497,0.955,-0.618,-3.0,-1.7,1.3,19,34,0
L,,2221285,-0.176,0.975,-0.404,0.0,3.1,0.0,17,31,0
L,,2221345,-0.112,1.009,-0.418,1.2,0.6,-0.3,18,32,0
L,,2221405,-0.042,0.997,-0.270,1.1,0.0,-0.4,17,31,0
L,,2221464,0.027,0.985,-0.273,0.3,0.1,-0.1,19,30,0
L,,2221525,0.065,0.977,-0.305,-0.2,-0.4,0.2,19,31,0
L,,2221584,0.076,0.982,-0.304,-0.9,-2.3,1.2,17,30,0
L,,2221645,-0.027,0.954,-0.235,-0.6,-2.8,1.6,15,31,0
L,,2221735,-0.037,1.035,-0.177,-1.3,-1.6,0.8,19,31,0
L,,2221824,-0.042,0.970,-0.028,-3.1,-0.5,0.7,18,31,0
L,,2221886,-0.037,0.945,-0.085,-5.2,1.6,1.0,21,32,0
L,,2221945,0.065,0.950,-0.115,-7.1,0.5,1.9,18,32,0
L,,2222035,0.055,0.933,-0.098,-8.5,-4.0,3.5,17,31,0
L,,2222094,-0.071,1.016,-0.096,-7.8,-4.2,3.8,18,32,0
L,,2222155,-0.025,0.869,-0.067,-6.6,-1.6,2.7,18,31,0
L,,2222214,-0.035,1.012,-0.038,-4.9,1.8,1.6,19,32,0
L,,2222275,0.075,0.957,-0.009,-3.2,1.2,0.7,19,29,0
L,,2222334,0.110,0.892,0.034,-2.3,-2.7,0.6,18,32,0
L,,2222395,0.114,0.842,0.191,-2.3,-6.2,0.5,19,33,0
L,,2222485,-0.119,0.915,0.119,-3.4,-0.4,0.6,17,31,0
L,,2222544,-0.126,0.839,-0.244,-0.7,6.0,-0.4,18,31,0
L,,2222605,-0.988,3.632,-3.390,16.6,-16.2,-10.8,203,413,9
L,,2222666,-0.175,1.139,0.191,3.8,-5.0,-3.8,241,426,0
L,,2222754,-0.142,0.958,0.173,1.0,-1.9,-1.3,267,428,0
L,,2222815,-0.073,0.995,0.043,1.1,-3.4,-1.4,285,444,0
L,,2222875,-0.058,0.996,0.070,1.2,-2.8,-0.8,238,397,0
L,,2222935,-0.090,1.005,0.056,0.3,-1.6,-0.7,275,437,0
L,,2222995,-0.004,1.016,0.008,0.2,-0.9,-0.9,241,488,0
L,,2223054,-0.067,1.013,0.067,0.1,-0.7,-1.0,275,492,0
L,,2223145,-0.108,1.058,0.087,0.3,-0.6,-0.7,297,467,0
L,,2223205,-0.101,1.017,0.077,0.6,-0.4,-0.6,326,515,0
L,,2223264,-0.089,0.995,0.015,0.7,-0.7,-0.6,298,532,0
L,,2223325,-0.124,1.015,0.084,0.8,-0.6,-0.6,335,526,0
L,,2223386,-0.135,0.996,0.048,1.4,-0.3,-0.7,219,450,0
L,,2223445,-0.171,1.002,0.041,1.7,-0.2,-0.7,237,437,0
L,,2223504,-0.094,0.921,0.012,2.2,0.0,-0.4,192,371,0
L,,2223565,-0.158,1.040,0.017,2.5,0.2,-0.9,205,362,0
L,,2223625,-0.158,0.985,-0.030,2.9,0.1,-0.8,146,371,0
L,,2223685,-0.192,0.977,-0.076,2.9,0.3,-0.6,125,324,0
L,,2223745,-0.199,0.951,-0.097,2.5,0.3,-0.3,96,328,0
L,,2223804,-0.182,0.992,-0.083,2.2,0.9,-0.1,68,248,0
L,,2223895,-0.184,1.008,-0.101,3.2,0.8,-0.3,66,336,0
L,,2223996,-0.140,1.017,-0.201,5.4,0.4,-0.6,49,267,0
L,,2224014,-0.121,0.986,-0.212,5.9,0.5,-0.7,53,215,0
L,,2224105,-0.169,1.039,-0.214,8.3,0.7,-1.4,50,125,0
L,,2224166,-0.064,1.551,-0.168,12.9,-0.1,-2.6,43,114,0
L,,2224225,0.013,1.395,0.030,14.2,2.9,-5.9,40,112,0
L,,2224285,-0.326,0.877,-0.812,10.6,13.0,-3.9,32,102,0
L,,2224344,-0.471,0.571,-0.440,2.6,-2.6,-3.1,46,93,0
L,,2224405,-0.007,0.455,-0.325,4.5,3.7,-1.5,62,136,0
L,,2224463,0.015,0.390,-0.515,-0.2,0.7,2.0,71,140,0
L,,2224554,-0.192,0.563,-0.608,-6.5,-3.0,1.4,75,137,0
L,,2224615,-0.193,0.621,-0.650,-6.5,-1.9,2.8,80,145,0
L,,2224674,-0.245,0.629,-0.615,-6.1,-2.1,2.9,81,144,0
L,,2224735,-0.157,0.634,-0.585,-6.1,-2.7,3.4,76,149,0
L,,2224794,-0.143,0.730,-0.514,-6.8,-6.5,3.6,80,123,0
L,,2224855,-0.187,0.845,-0.444,-6.8,-6.8,4.6,77,120,0
L,,2224916,-0.171,0.948,-0.417,-6.3,-4.9,4.4,77,129,0
L,,2224975,-0.186,1.063,-0.372,-5.0,-0.6,3.6,73,132,0
L,,2225035,-0.123,0.984,-0.327,-4.2,1.0,2.2,79,130,0
L,,2225094,-0.071,0.962,-0.302,-4.2,0.5,2.2,75,133,0
L,,2225155,-0.040,0.950,-0.273,-3.6,0.2,2.2,79,131,0
L,,2225214,-0.027,0.968,-0.248,-3.7,-0.2,2.2,75,136,0
L,,2225275,-0.008,0.972,-0.240,-3.2,-1.2,1.8,79,134,0
L,,2225334,-0.002,1.009,-0.243,-2.4,-4.6,1.8,80,131,0
L,,2225395,-0.203,1.032,-0.153,-2.0,-4.2,1.0,75,136,0
L,,2225455,-0.095,0.996,-0.148,-0.5,0.7,0.5,80,136,0
L,,2225515,-0.021,0.959,-0.147,-0.2,-0.2,0.0,80,132,0
L,,2225577,-0.032,0.988,-0.115,0.0,-0.9,0.0,80,132,0
L,,2225634,0.007,1.019,-0.067,0.4,-0.4,0.0,71,136,0
L,,2225695,0.026,1.014,-0.086,0.5,-1.3,0.1,77,136,0
L,,2225754,0.018,1.016,-0.037,0.3,-1.9,0.5,77,136,0
L,,2225815,-0.021,1.015,-0.021,-0.1,-1.3,0.4,75,140,0
L,,2225875,0.023,0.992,-0.039,-0.4,0.2,0.3,78,142,0
L,,2225935,0.006,0.968,-0.040,-1.1,0.0,0.8,79,140,0
L,,2225995,0.026,0.960,-0.025,-1.5,0.0,1.3,79,143,0
L,,2226055,0.033,0.955,0.008,-2.3,0.1,1.7,79,140,0
L,,2226115,0.037,0.988,0.013,-2.5,2.2,2.4,79,140,0
L,,2226174,0.051,1.042,0.012,-2.8,0.5,2.0,84,138,0
L,,2226235,0.049,1.063,0.010,-3.0,-0.5,1.2,84,139,0
L,,2226296,0.085,1.017,0.032,-2.1,-1.2,0.8,84,133,0
L,,2226355,0.070,1.009,-0.019,-1.4,-0.9,0.7,84,134,0
L,,2226415,0.075,0.987,0.020,-0.4,-1.0,0.5,86,136,0
L,,2226475,0.033,0.991,0.050,0.2,-1.3,0.0,86,135,0
L,,2226576,0.062,0.990,0.096,0.1,-0.6,-0.8,88,137,0
L,,2226595,0.089,0.980,0.144,0.2,-0.2,-1.1,87,135,0
L,,2226655,0.116,0.959,0.171,-0.6,-0.5,-0.9,83,133,0
L,,2226714,0.164,0.934,0.221,-1.4,-0.2,0.0,86,142,0
L,,2226805,0.197,0.958,0.237,-3.3,1.1,1.0,85,132,0
L,,2226895,0.050,1.041,0.104,-3.7,0.2,1.1,77,136,0
L,,2226955,-0.107,0.805,-0.012,-2.0,0.9,0.4,76,137,0
L,,2227015,-2.923,3.460,-3.684,18.6,7.2,-16.4,163,179,9
L,,2227077,-0.179,0.809,0.016,2.6,-11.0,-8.3,226,304,0
L,,2227165,-0.132,1.118,0.055,0.8,-1.3,-2.8,207,278,0
L,,2227225,-0.107,1.026,0.066,0.8,2.4,-2.4,200,337,0
L,,2227285,-0.143,0.954,0.072,0.0,0.6,-0.4,164,276,0
L,,2227345,-0.129,0.973,0.081,-1.0,0.5,0.3,175,300,0
L,,2227446,-0.102,1.013,0.119,-0.2,-0.2,0.3,173,342,0
L,,2227464,-0.102,1.027,0.075,-0.2,0.0,0.2,181,363,0
L,,2227525,-0.076,1.009,0.107,-0.2,-1.0,-0.6,197,362,0
L,,2227615,-0.130,1.010,0.127,0.9,-0.2,-0.5,161,328,0
L,,2227674,-0.119,0.999,0.069,1.6,-1.5,-1.1,131,184,0
L,,2227735,-0.099,0.977,0.011,1.0,-1.0,-0.6,214,241,0
L,,2227796,-0.129,0.977,0.035,0.1,-0.2,-0.1,154,270,0
L,,2227885,-0.094,0.998,0.047,0.9,-0.6,-0.2,207,307,0
L,,2227945,-0.125,0.983,0.030,1.2,-1.5,-0.1,177,325,0
L,,2228004,-0.162,0.980,0.020,0.6,-0.6,-0.2,168,325,0
L,,2228095,-0.142,0.996,0.055,0.4,-0.9,-0.2,236,298,0
L,,2228155,-0.151,0.993,0.042,0.2,-1.0,0.0,195,239,0
L,,2228214,-0.135,0.999,0.050,0.0,-0.7,-0.1,180,291,0
L,,2228275,-0.139,1.005,0.055,0.1,-1.2,-0.1,235,393,0
L,,2228334,-0.136,0.981,0.032,0.3,-1.0,-0.1,181,261,0
L,,2228395,-0.183,1.004,0.030,0.3,0.0,-0.1,168,273,0
L,,2228455,-0.202,0.995,0.041,0.3,0.9,-0.1,264,369,0
L,,2228544,-0.150,0.990,0.024,0.1,0.4,0.1,274,437,0
L,,2228636,-0.176,0.992,0.040,0.1,0.0,0.2,246,362,0
L,,2228695,-0.153,1.001,0.037,0.2,-0.4,0.2,254,368,0
L,,2228754,-0.170,0.995,0.063,0.5,-1.0,0.1,276,410,0
L,,2228845,-0.176,0.982,0.029,0.5,-0.7,0.1,249,386,0
L,,2228905,-0.182,0.994,0.035,0.5,-0.6,0.0,216,321,0
L,,2228964,-0.166,0.988,0.021,0.4,-0.2,0.0,256,383,0
L,,2229025,-0.168,0.959,0.000,-0.1,-0.4,0.4,224,354,0
L,,2229115,-0.197,1.015,0.038,0.1,-0.3,0.2,313,448,0
L,,2229175,-0.153,1.003,0.040,0.5,-0.5,0.2,316,448,0
L,,2229235,-0.162,0.995,0.016,1.2,-0.5,0.0,324,459,0
L,,2229294,-0.180,0.991,0.015,1.4,-0.2,0.0,308,454,0
L,,2229385,-0.178,0.993,-0.017,1.5,0.2,-0.1,272,396,0
L,,2229447,-0.131,1.007,-0.027,1.7,0.1,0.0,221,315,0
L,,2229504,-0.175,0.982,-0.040,2.1,-0.2,-0.1,30,50,0
L,,2229565,-0.191,1.006,-0.052,2.7,0.0,-0.1,33,51,0
L,,2229625,-0.186,1.028,-0.050,3.3,0.4,0.0,25,52,0
L,,2229685,-0.160,0.987,-0.094,4.3,0.8,-0.3,22,51,0
L,,2229745,-0.180,0.984,-0.142,5.3,1.0,-0.4,12,51,0
L,,2229805,-0.178,1.064,-0.157,6.6,1.0,-0.7,7,44,0
L,,2229865,-0.032,1.266,-0.199,10.1,1.8,-2.3,7,38,0
L,,2229925,-0.074,1.452,-0.099,13.3,0.2,-4.4,4,35,0
L,,2229985,0.023,1.139,-0.018,12.4,1.5,-4.3,5,37,0
L,,2230044,-0.266,0.914,-0.572,12.7,2.2,-5.0,13,69,0
L,,2230106,-0.339,0.773,0.199,7.2,1.1,-3.9,18,26,0
L,,2230165,0.024,0.282,0.095,-1.1,3.5,0.6,15,42,0
L,,2230225,0.067,0.271,-0.127,-11.3,2.8,5.9,14,32,0
L,,2230285,0.144,0.648,-0.166,-20.5,-1.8,9.1,12,36,0
L,,2230345,-0.126,1.213,-0.470,-23.1,-4.7,10.1,13,34,0
L,,2230435,-0.212,1.263,-0.390,-17.4,2.6,10.3,11,39,0
L,,2230495,0.077,1.227,-0.309,-15.7,3.1,7.8,11,41,0
L,,2230555,0.058,1.156,-0.224,-11.6,0.6,6.6,14,43,0
L,,2230615,0.002,0.999,-0.178,-7.0,-0.4,3.2,11,43,0
L,,2230675,0.104,1.034,-0.066,-1.4,-0.8,0.6,14,42,0
L,,2230735,0.191,0.928,0.085,1.2,-3.5,0.0,16,45,0
L,,2230794,0.151,0.941,0.203,0.9,-2.3,-0.2,15,43,0
L,,2230856,0.243,0.953,0.216,1.0,0.6,0.0,20,56,0
L,,2230915,0.271,0.951,0.202,0.8,0.2,0.0,15,47,0
L,,2230975,0.244,0.942,0.223,0.8,1.2,0.2,19,47,0
L,,2231035,0.243,0.920,0.219,0.6,2.8,0.1,20,50,0
L,,2231095,0.284,0.908,0.223,0.7,4.0,0.3,20,50,0
L,,2231155,0.204,0.862,0.229,0.2,3.8,0.2,14,49,0
L,,2231215,-0.106,0.881,0.342,0.1,7.4,-1.2,20,52,0
L,,2231275,-0.338,0.906,0.255,0.3,24.4,-3.2,19,50,0
L,,2231334,1.577,0.781,0.830,4.2,19.5,0.1,182,211,0
L,,2231395,0.134,1.242,0.422,6.8,-11.1,-7.8,286,324,0
L,,2231455,-0.049,0.934,-0.015,7.1,1.4,-2.7,246,295,0
L,,2231516,0.023,0.999,0.065,0.8,-4.7,-4.7,234,359,0
L,,2231575,-0.179,1.009,0.175,2.5,-0.6,-2.3,245,411,0
L,,2231635,-0.101,0.989,0.104,1.3,-1.0,-2.0,250,427,0
L,,2231695,-0.074,0.973,0.055,0.1,0.0,-1.5,276,432,0
L,,2231755,-0.146,0.991,0.099,-0.6,0.2,-1.3,332,444,0
L,,2231815,-0.176,0.994,0.129,-0.4,0.0,-1.4,326,447,0
L,,2231875,-0.168,1.076,0.169,0.8,0.6,-1.7,205,329,0
L,,2231935,-0.168,1.023,0.155,2.8,1.7,-1.6,298,414,0
L,,2231995,-0.179,1.018,0.125,4.5,2.0,-2.3,272,382,0
L,,2232055,-0.225,1.065,0.086,6.4,2.5,-2.9,187,280,0
L,,2232115,-0.291,1.108,0.041,8.1,3.3,-3.6,95,220,0
L,,2232175,-0.432,1.390,0.110,9.1,2.8,-5.0,41,111,0
L,,2232266,-0.185,1.189,0.040,8.7,14.3,-9.1,50,183,0
L,,2232325,-0.044,1.004,-0.160,7.8,27.9,-12.8,13,45,0
L,,2232385,-0.084,0.872,-0.516,7.8,28.3,-12.6,23,51,0
L,,2232445,0.189,0.332,0.307,-4.4,14.1,-11.2,21,44,0
L,,2232505,0.502,0.439,0.067,-13.1,17.9,-4.6,9,27,0
L,,2232565,0.440,0.557,0.024,-23.1,1.3,2.4,11,29,0
L,,2232625,-0.081,1.091,0.142,-29.6,1.9,5.7,29,66,0
L,,2232685,-0.188,1.693,0.125,-29.4,19.2,8.1,13,30,0
L,,2232745,0.298,1.585,-0.345,-27.8,39.4,3.4,11,29,0
L,,2232805,0.495,1.345,-1.154,-9.3,10.1,2.3,79,84,0
L,,2232865,0.528,1.668,-0.135,7.7,5.7,-2.2,261,343,0
L,,2232925,-0.177,0.768,0.189,10.2,-7.7,-3.3,221,372,0
L,,2232987,0.002,1.015,0.084,5.7,-1.2,-2.7,239,457,0
L,,2233075,-0.138,1.013,0.137,3.7,0.7,-1.5,255,432,0
L,,2233135,-0.193,1.000,0.113,2.6,0.7,-0.9,237,444,0
L,,2233195,-0.180,0.983,0.087,2.4,1.9,-0.5,160,419,0
L,,2233255,-0.162,0.989,0.062,2.6,1.7,-0.6,181,347,0
L,,2233315,-0.173,0.987,0.047,1.8,1.2,-0.8,204,345,0
L,,2233375,-0.184,1.033,0.053,2.2,1.8,-0.5,152,278,0
L,,2233435,-0.140,1.017,0.045,3.0,1.5,-0.9,127,255,0
L,,2233495,-0.192,1.022,0.027,5.1,1.6,-2.0,102,220,0
L,,2233554,-0.218,1.059,-0.004,7.4,0.9,-2.4,59,304,0
L,,2233615,-0.155,1.054,-0.112,9.3,2.7,-2.5,54,302,0
L,,2233676,-0.096,1.369,-0.128,10.6,2.9,-3.9,52,235,0
L,,2233735,-0.095,1.340,-0.006,12.6,2.6,-5.7,43,129,0
L,,2233795,-0.171,1.211,-0.073,13.5,16.0,-8.0,35,103,0
L,,2233855,-0.421,1.024,-0.217,15.0,17.9,-7.0,14,38,0
L,,2233915,-0.430,-0.116,-0.813,6.1,19.5,-4.8,69,96,0
L,,2233975,0.181,0.288,0.300,-9.4,8.8,-2.8,66,127,0
L,,2234035,0.404,0.471,-0.098,-19.8,-6.3,3.1,96,130,0
L,,2234095,-0.033,0.881,0.149,-28.9,-6.3,9.2,104,136,0
L,,2234155,0.033,1.488,0.183,-29.9,6.5,11.5,96,131,0
L,,2234215,0.057,1.808,-0.151,-30.9,9.5,10.9,86,128,0
L,,2234275,0.240,1.520,-0.911,-27.0,-0.1,6.2,63,129,0
L,,2234335,-0.738,1.469,-0.875,-5.5,-10.0,0.0,97,134,0
L,,2234397,0.841,1.578,1.921,10.0,-1.2,-0.4,229,299,0
L,,2234455,-0.365,0.915,-0.205,11.1,-6.0,-8.3,151,423,0
L,,2234515,-0.162,0.901,0.040,9.5,-2.8,-3.7,236,401,0
L,,2234575,0.003,0.904,0.087,3.1,-4.0,-4.4,253,405,0
L,,2234635,-0.133,1.013,0.159,2.7,-1.6,-3.1,279,443,0
L,,2234695,-0.105,1.028,0.131,3.4,-1.0,-2.3,233,411,0
L,,2234755,-0.077,1.021,0.107,4.1,-0.4,-1.9,165,369,0
L,,2234815,-0.014,0.917,-0.021,4.5,1.0,-2.0,149,259,0
L,,2234875,-0.154,0.973,-0.021,3.9,0.7,-1.8,119,256,0
L,,2234935,-0.181,0.987,-0.041,3.7,1.2,-1.6,131,249,0
L,,2234995,-0.141,1.011,-0.075,4.2,1.0,-2.0,55,287,0
L,,2235055,-0.220,1.068,-0.069,6.2,1.6,-2.5,46,135,0
L,,2235117,-0.153,1.121,-0.136,9.1,2.2,-2.7,54,170,0
L,,2235175,-0.133,1.337,-0.146,12.1,1.1,-2.6,40,131,0
L,,2235235,-0.026,1.751,0.145,16.2,2.7,-5.5,50,116,0
L,,2235295,0.078,1.441,0.043,19.2,18.6,-8.5,29,75,0
L,,2235355,-0.343,0.901,-0.785,13.1,11.1,-8.0,27,70,0
L,,2235416,0.011,0.531,-0.486,8.1,-0.4,-4.2,62,97,0
L,,2235475,0.227,-0.046,-0.133,-3.4,-3.3,1.1,87,114,0
L,,2235535,-0.119,0.076,-0.184,-15.0,-10.3,8.1,76,108,0
L,,2235595,-0.168,0.735,-0.009,-23.4,-10.0,13.0,76,111,0
L,,2235655,-0.307,1.134,-0.022,-27.2,-4.8,15.1,77,119,0
L,,2235715,-0.082,1.438,-0.007,-32.6,2.0,13.9,66,94,0
L,,2235777,0.037,1.661,0.060,-31.7,5.0,8.8,80,116,0
L,,2235835,0.342,1.422,-0.432,-22.9,0.1,8.5,57,114,0
L,,2235895,-0.073,1.205,-0.467,-1.5,3.2,-0.4,66,122,0
L,,2235956,0.137,1.187,-0.264,10.8,-14.4,-3.8,78,105,0
L,,2236015,0.174,1.115,0.816,11.7,-6.5,-6.3,191,252,0
L,,2236075,0.301,1.018,0.168,18.2,2.2,-9.0,253,363,0
L,,2236135,-0.516,1.179,-0.136,16.3,-8.7,-12.8,181,353,0
L,,2236195,-0.470,0.975,0.149,14.1,-1.7,-9.7,165,285,0
L,,2236255,-0.308,0.955,-0.265,6.0,-1.2,-5.4,152,299,0
L,,2236315,-0.331,1.007,-0.234,0.0,0.1,0.1,66,220,0
L,,2236375,-0.181,1.184,-0.061,-3.9,3.2,3.1,69,273,0
L,,2236435,-0.038,0.903,-0.050,-2.7,7.1,2.6,68,291,0
L,,2236527,-0.307,0.630,-0.232,0.9,1.0,0.5,50,187,0
L,,2236585,-0.284,0.796,0.029,3.0,-0.5,-2.9,61,201,0
L,,2236645,0.001,1.208,-0.116,3.8,-4.2,-4.8,55,215,0
L,,2236706,0.035,1.420,-0.249,4.5,0.6,-3.2,51,167,0
L,,2236765,-0.230,1.426,-0.011,8.8,2.5,-3.1,51,146,0
L,,2236825,-0.130,1.222,-0.063,12.2,3.0,-4.3,36,110,0
L,,2236885,0.081,1.331,0.125,16.5,4.5,-7.0,39,88,0
L,,2236945,0.183,1.532,-0.391,23.8,11.6,-8.7,32,76,0
L,,2237005,-0.365,0.994,-0.277,14.2,6.1,-5.0,12,34,0
L,,2237065,0.055,0.420,-0.345,3.5,-0.8,-1.4,67,91,0
L,,2237125,0.057,-0.172,0.199,-12.7,9.1,5.2,15,27,0
L,,2237185,0.205,0.231,0.014,-29.2,2.6,7.2,17,27,0
L,,2237247,0.359,0.841,0.143,-39.7,-14.9,12.3,13,28,0
L,,2237305,-0.176,1.748,-0.007,-35.6,-1.3,15.4,14,31,0
L,,2237365,0.040,1.571,-0.094,-31.0,3.2,10.2,15,34,0
L,,2237425,-0.102,1.750,-0.311,-24.6,-3.8,6.5,16,33,0
L,,2237484,-0.304,1.514,-0.332,-5.0,7.5,0.9,14,33,0
L,,2237545,0.123,1.061,-0.396,9.0,-2.5,-4.6,15,31,0
L,,2237605,0.043,0.942,-0.173,12.6,-10.5,-5.3,86,112,0
L,,2237666,0.325,2.041,-1.244,12.7,5.0,-2.4,274,363,0
L,,2237725,-0.482,1.739,-0.434,13.0,-16.1,-11.6,202,420,0
L,,2237786,0.087,0.987,-0.054,6.5,0.4,-2.5,243,449,0
L,,2237845,-0.066,0.962,0.141,1.0,-1.7,-2.2,241,402,0
L,,2237907,0.034,1.009,0.117,1.9,0.0,-1.2,213,371,0
L,,2237965,-0.105,1.024,0.171,3.5,0.4,-0.9,169,368,0
L,,2238025,-0.092,0.999,0.090,3.1,1.0,-1.7,178,351,0
L,,2238085,-0.081,0.984,0.041,3.3,0.9,-1.9,167,343,0
L,,2238145,-0.098,1.007,0.025,3.3,0.2,-1.4,154,246,0
L,,2238206,-0.131,1.004,0.005,3.1,0.2,-1.3,131,285,0
L,,2238265,-0.175,1.029,0.011,3.4,0.9,-1.1,101,294,0
L,,2238326,-0.181,1.049,-0.016,4.2,1.4,-1.2,60,263,0
L,,2238416,-0.087,0.982,-0.125,5.9,1.1,-1.5,41,120,0
L,,2238475,-0.183,1.022,-0.114,7.1,1.9,-1.9,53,191,0
L,,2238536,-0.125,1.142,-0.147,9.2,1.9,-2.4,60,300,0
L,,2238595,0.010,1.413,-0.131,12.6,0.8,-3.0,43,126,0
L,,2238687,0.262,1.425,0.077,17.0,17.0,-7.0,32,87,0
L,,2238746,-0.388,0.693,-0.365,15.4,12.3,-3.8,30,72,0
L,,2238805,-0.264,-0.098,-0.120,3.5,5.1,-3.6,68,104,0
L,,2238865,0.061,0.032,0.172,-8.7,2.7,-1.3,68,115,0
L,,2238925,0.127,0.391,-0.213,-20.4,-5.3,5.4,82,129,0
L,,2238985,-0.153,1.068,0.106,-27.1,-11.6,10.5,70,110,0
L,,2239045,-0.135,1.574,0.159,-30.4,-0.1,11.4,66,108,0
L,,2239105,-0.124,1.814,0.122,-28.6,4.4,9.4,59,104,0
L,,2239166,0.117,1.601,-0.088,-24.6,6.2,1.6,55,102,0
L,,2239255,-0.155,1.135,-0.222,-7.5,-5.3,1.8,61,123,0
L,,2239315,-0.133,0.903,-0.177,1.3,-0.9,-2.4,73,128,0
L,,2239376,-0.049,0.767,-0.129,6.1,-0.4,-3.9,51,91,0
L,,2239435,-0.032,0.805,-0.152,4.0,-3.0,-3.6,16,34,0
L,,2239496,-0.151,0.939,-0.307,9.4,3.6,-3.0,103,127,0
L,,2239555,-0.044,2.401,0.400,4.4,-19.4,-7.4,248,435,0
L,,2239616,-0.893,0.974,0.153,10.0,-6.1,-3.6,254,444,0
L,,2239675,0.195,0.820,-0.094,5.5,-2.6,-4.0,265,395,0
L,,2239735,-0.269,0.963,0.218,3.0,-1.4,-2.9,212,482,0
L,,2239795,-0.057,1.033,0.155,1.6,-1.1,-2.1,224,468,0
L,,2239854,-0.135,0.977,0.112,1.6,0.1,-1.5,110,221,0
L,,2239916,-0.174,0.993,0.132,1.4,0.5,-1.4,191,435,0
L,,2239975,-0.147,1.004,0.119,1.5,0.4,-1.4,199,316,0
L,,2240036,-0.211,1.004,0.110,2.0,1.3,-1.8,190,253,0
L,,2240097,-0.194,1.054,0.106,2.5,1.7,-2.2,216,254,0
L,,2240156,-0.253,1.024,0.076,3.8,2.5,-2.5,161,267,0
L,,2240215,-0.230,1.021,0.018,4.5,3.0,-2.7,70,244,0
L,,2240305,-0.219,1.038,-0.044,5.6,4.3,-4.4,58,281,0
L,,2240366,-0.312,1.138,-0.060,7.0,5.0,-5.6,48,221,0
L,,2240425,-0.285,1.410,-0.029,9.8,6.2,-7.0,38,128,0
L,,2240515,-0.124,1.322,0.227,11.8,38.7,-11.4,7,23,0
L,,2240576,-0.267,1.176,-0.547,11.0,26.6,-11.9,9,29,0
L,,2240635,-0.048,0.042,-0.481,1.9,19.4,-12.4,45,64,0
L,,2240695,0.215,0.131,0.099,-7.2,13.6,-5.8,13,31,0
L,,2240755,0.330,0.334,-0.339,-17.7,0.4,-1.7,13,30,0
L,,2240815,0.375,0.772,0.016,-26.1,-10.5,4.3,15,30,0
L,,2240876,0.000,1.105,0.096,-31.1,-4.7,9.1,60,103,0
L,,2240935,0.121,1.781,0.089,-31.7,1.7,13.3,72,137,0
L,,2240996,0.021,1.902,-0.101,-29.4,10.4,10.9,71,140,0
L,,2241055,0.095,1.345,-0.487,-18.8,3.5,7.3,58,115,0
L,,2241116,-0.281,1.065,-0.354,-2.4,2.0,2.4,70,136,0
L,,2241175,-0.222,0.949,-0.459,8.6,-0.7,-0.2,73,134,0
L,,2241235,0.208,0.478,2.493,1.8,1.3,-1.5,184,216,0
L,,2241295,-0.339,1.716,-0.262,11.1,-0.7,-5.8,175,414,0
L,,2241355,-0.500,0.905,0.266,8.4,-6.7,-3.2,187,439,0
L,,2241416,0.037,0.884,0.138,5.0,-2.7,-3.5,180,383,0
L,,2241475,-0.184,0.963,0.223,4.0,0.2,-1.8,213,362,0
L,,2241537,-0.205,0.976,0.238,2.8,0.2,-0.9,178,343,0
L,,2241595,-0.087,1.000,0.160,2.9,0.8,-1.2,184,324,0
L,,2241656,-0.111,0.978,0.127,3.0,0.3,-1.6,206,345,0
L,,2241715,-0.159,1.000,0.128,3.2,-0.2,-1.4,216,339,0
L,,2241775,-0.152,1.010,0.072,2.9,0.0,-1.6,201,265,0
L,,2241835,-0.209,1.022,0.085,3.0,1.0,-1.5,190,239,0
L,,2241895,-0.207,1.035,0.112,4.1,2.3,-1.7,185,232,0
L,,2241956,-0.236,1.113,0.013,5.3,2.7,-3.0,106,183,0
L,,2242015,-0.313,1.024,-0.047,5.4,2.2,-2.7,56,230,0
L,,2242105,-0.325,1.129,-0.098,5.7,3.2,-4.3,39,141,0
L,,2242166,-0.367,1.296,0.003,7.4,6.2,-5.3,46,147,0
L,,2242225,-0.514,1.373,0.212,8.5,15.0,-9.3,31,106,0
L,,2242287,0.051,1.330,0.162,9.7,42.4,-12.8,9,31,0
L,,2242375,-0.135,0.551,-0.304,4.0,22.5,-15.8,16,37,0
L,,2242435,0.508,0.415,0.059,0.0,18.2,-10.6,52,102,0
L,,2242525,0.431,0.397,-0.233,-16.8,-6.5,0.6,74,108,0
L,,2242585,0.146,0.741,-0.232,-23.7,-13.3,5.4,17,31,0
L,,2242645,-0.096,1.257,-0.078,-23.4,4.5,8.3,13,26,0
L,,2242736,0.400,1.548,0.012,-20.8,15.9,9.6,12,30,0
L,,2242795,0.254,1.381,-0.124,-18.2,5.9,5.1,66,112,0
L,,2242855,0.157,1.145,-0.157,-9.9,-0.5,4.9,81,127,0
L,,2242916,0.045,0.881,0.075,-4.9,-7.4,3.9,77,125,0
L,,2242975,-0.082,0.799,0.123,-3.7,-5.0,1.9,89,123,0
L,,2243065,0.002,0.850,-0.453,2.3,-1.7,-3.0,80,115,0
L,,2243126,1.049,1.928,-0.982,8.2,19.2,-3.3,89,167,0
L,,2243185,-0.119,1.200,0.184,4.8,-6.2,-8.9,201,437,0
L,,2243246,0.040,1.013,0.114,9.5,2.5,-1.9,209,418,0
L,,2243305,-0.062,1.099,0.107,3.6,-7.4,-5.9,229,470,0
L,,2243366,0.120,1.014,0.135,4.8,-1.2,-2.4,169,359,0
L,,2243425,-0.062,1.001,0.120,3.3,-0.5,-1.2,160,422,0
L,,2243486,-0.040,0.985,0.123,2.5,-0.1,-0.7,182,450,0
L,,2243545,-0.012,0.990,0.110,3.2,0.0,-1.3,191,390,0
L,,2243605,-0.042,1.003,0.079,3.7,-0.3,-1.4,237,433,0
L,,2243666,-0.068,1.005,0.017,3.7,-0.4,-0.5,202,415,0
L,,2243725,-0.078,1.033,0.029,3.8,0.1,0.0,243,403,0
L,,2243787,-0.038,1.021,0.002,4.9,0.8,0.0,176,224,0
L,,2243845,-0.040,1.037,-0.037,6.6,0.6,-0.2,95,179,0
L,,2243906,-0.056,1.026,-0.124,7.8,0.0,-0.4,64,163,0
L,,2243965,-0.053,1.049,-0.174,8.1,-0.3,0.0,55,278,0
L,,2244026,-0.069,1.076,-0.241,9.5,-2.0,0.1,43,172,0
L,,2244085,-0.082,1.348,-0.152,11.3,-1.2,1.0,36,111,0
L,,2244145,-0.089,1.616,0.137,14.5,-0.1,-2.3,38,97,0
L,,2244206,-0.143,1.308,-0.209,17.6,9.3,-6.0,44,108,0
L,,2244264,-0.376,0.691,-0.216,11.6,5.3,-3.5,48,125,0
L,,2244326,0.053,0.321,-0.116,-1.9,-10.1,-3.6,69,102,0
L,,2244385,0.081,0.123,-0.098,-8.6,-4.7,-0.7,49,91,0
L,,2244446,0.527,0.368,-0.329,-20.3,-2.6,0.3,68,92,0
L,,2244507,0.625,1.046,-0.191,-28.0,-4.0,12.5,14,30,0
L,,2244566,0.521,1.666,-0.422,-27.9,7.9,19.0,15,28,0
L,,2244625,0.522,1.848,-0.615,-24.6,13.9,18.6,45,85,0
L,,2244685,0.199,1.319,-0.519,-17.7,-0.3,11.6,53,130,0
L,,2244746,-0.039,0.942,-0.286,-8.6,-6.6,8.6,63,125,0
L,,2244805,-0.130,0.731,-0.137,0.3,-3.7,5.3,15,32,0
L,,2244866,-0.074,0.745,-0.064,3.3,-0.2,1.2,78,122,0
L,,2244925,-0.101,0.935,-0.139,6.5,-2.7,-2.7,67,106,0
L,,2244986,1.992,0.860,3.544,1.2,-2.3,4.0,116,152,9
L,,2245045,-0.849,1.505,-0.193,9.4,-8.8,-18.7,272,395,0
L,,2245135,0.010,1.051,-0.240,3.2,-2.0,-6.7,183,349,0
L,,2245196,0.022,0.966,0.008,-0.5,-0.6,-4.8,162,321,0
L,,2245257,0.197,0.979,0.099,-0.4,2.4,-2.9,213,391,0
L,,2245316,0.046,1.020,0.076,0.4,1.4,-2.4,158,327,0
L,,2245375,0.065,1.020,0.045,0.8,0.2,-3.0,97,231,0
L,,2245435,0.025,1.033,0.029,1.7,-0.1,-2.5,147,299,0
L,,2245496,-0.003,1.026,0.021,2.6,0.1,-2.0,39,114,0
L,,2245555,-0.019,1.006,-0.015,3.2,0.7,-0.7,44,114,0
L,,2245616,-0.006,0.974,-0.055,3.9,1.6,-0.4,31,67,0
L,,2245675,0.068,0.922,-0.058,4.8,0.3,0.6,18,28,0
L,,2245736,-0.030,1.023,-0.113,5.3,0.2,0.0,8,28,0
L,,2245795,0.043,0.997,-0.183,5.6,0.1,0.4,5,24,0
L,,2245856,0.014,0.949,-0.211,6.6,-0.5,1.0,4,23,0
L,,2245917,0.048,0.980,-0.280,6.5,-0.4,1.7,5,22,0
L,,2245975,-0.049,1.009,-0.275,5.9,-0.5,2.7,7,20,0
L,,2246066,0.126,1.199,-0.232,8.4,-2.8,3.9,8,23,0
L,,2246125,0.109,1.668,0.057,12.7,-2.5,2.7,10,20,0
L,,2246185,0.037,1.355,0.199,14.5,3.3,-1.1,12,20,0
L,,2246276,0.464,0.684,-0.751,7.4,0.7,-2.3,27,37,0
L,,2246335,0.303,0.231,-0.020,-0.4,-8.9,-1.9,27,37,0
L,,2246396,0.339,0.231,-0.332,-10.3,-8.1,2.8,22,41,0
L,,2246456,0.216,0.524,-0.456,-13.9,-2.6,6.9,13,25,0
L,,2246515,0.316,0.743,-0.613,-15.8,-0.7,10.2,12,22,0
L,,2246576,0.109,0.980,-0.499,-17.9,-5.0,10.2,14,20,0
L,,2246635,0.112,1.056,-0.444,-13.5,-1.1,9.6,14,23,0
L,,2246697,0.262,1.052,-0.303,-13.4,2.2,7.2,14,24,0
L,,2246755,0.331,1.099,-0.238,-13.2,0.4,5.5,15,23,0
L,,2246816,0.276,1.046,-0.177,-9.8,-2.5,4.7,16,23,0
L,,2246875,0.316,0.896,-0.025,-4.9,3.6,3.9,18,24,0
L,,2246936,0.318,0.768,0.008,-3.3,1.6,1.8,18,27,0
L,,2246996,0.261,0.718,0.062,-4.6,4.0,0.0,20,31,0
L,,2247055,0.243,0.806,0.121,-3.0,3.4,0.1,17,19,0
L,,2247115,0.025,0.999,-0.126,4.9,2.8,-3.7,13,22,0
L,,2247175,-0.362,1.830,-2.207,14.6,13.0,-10.6,284,396,0
L,,2247236,-0.753,0.538,-0.021,12.7,-10.1,-13.8,148,309,0
L,,2247295,0.193,0.828,-0.262,4.7,-6.4,-7.4,100,223,0
L,,2247357,0.084,0.940,-0.102,0.7,-0.9,-4.2,168,403,0
L,,2247416,-0.015,0.993,0.009,-0.7,1.2,-2.3,58,154,0
L,,2247475,0.053,0.996,0.006,-1.3,1.9,-2.2,50,125,0
L,,2247536,0.004,1.019,0.013,-0.4,1.6,-2.2,40,162,0
L,,2247595,0.016,1.039,0.034,0.2,1.5,-1.5,40,187,0
L,,2247656,0.005,1.008,0.013,1.2,1.5,-0.9,51,171,0
L,,2247715,-0.032,1.034,-0.002,2.0,1.5,-0.6,40,104,0
L,,2247776,-0.007,1.033,0.010,2.9,1.8,-0.4,13,53,0
L,,2247835,0.025,1.019,-0.020,4.7,2.3,-0.5,8,30,0
L,,2247896,-0.024,1.013,-0.099,5.9,1.1,-0.4,6,25,0
L,,2247956,0.026,0.994,-0.150,6.2,1.3,0.0,7,23,0
L,,2248015,-0.021,0.938,-0.223,6.1,0.3,0.2,2,30,0
L,,2248077,0.020,1.021,-0.244,6.2,0.4,1.3,4,27,0
L,,2248135,-0.016,1.114,-0.199,8.1,-0.6,2.5,2,30,0
L,,2248196,0.086,1.215,-0.202,11.7,-0.9,2.0,6,26,0
L,,2248255,0.217,1.635,-0.011,14.9,-1.6,-0.4,5,24,0
L,,2248345,-0.504,1.203,-0.752,18.9,14.6,0.6,5,24,0
L,,2248405,-0.096,0.042,-0.517,7.6,1.6,0.0,26,45,0
L,,2248465,0.339,0.036,0.234,-6.0,-14.7,-0.1,35,62,0
L,,2248526,0.155,0.330,-0.033,-18.9,-16.0,3.8,27,30,0
L,,2248585,-0.109,0.872,-0.157,-23.6,-9.4,13.4,17,20,0
L,,2248675,0.203,1.596,-0.427,-27.0,4.0,12.8,14,22,0
L,,2248736,0.136,1.540,-0.278,-25.1,1.9,10.4,11,24,0
L,,2248795,0.243,1.444,-0.333,-22.2,2.4,7.9,15,30,0
L,,2248857,0.262,1.108,-0.366,-9.1,4.1,6.3,20,30,0
L,,2248916,0.322,0.957,-0.375,1.3,3.7,3.2,22,32,0
L,,2248976,0.431,0.804,-0.069,6.9,-3.5,2.3,20,30,0
L,,2249036,0.242,0.795,0.180,3.9,-4.5,2.9,25,35,0
L,,2249095,0.087,0.811,0.318,1.6,7.3,3.5,18,34,0
L,,2249156,0.088,0.814,0.280,1.0,14.8,3.1,15,29,0
L,,2249215,-0.018,0.960,0.063,3.7,12.5,0.7,13,23,0
L,,2249276,0.679,1.456,1.819,2.9,25.4,-0.9,170,243,0
L,,2249335,0.019,1.082,0.025,7.0,-1.0,-7.5,215,408,0
L,,2249396,-0.150,1.099,0.060,7.9,0.9,-3.9,256,412,0
L,,2249456,0.115,1.016,0.248,2.1,-1.7,-5.3,245,438,0
L,,2249517,0.018,0.967,0.263,5.6,1.1,-2.2,278,392,0
L,,2249576,0.063,0.960,0.258,4.6,-3.2,-4.5,268,374,0
L,,2249666,0.032,0.961,0.066,3.5,-2.3,-3.5,220,310,0
L,,2249726,0.000,1.004,0.075,3.2,-0.2,0.0,259,438,0
L,,2249786,-0.027,1.013,0.071,3.0,0.6,-1.7,138,315,0
L,,2249845,-0.059,0.992,0.044,3.6,0.4,-1.4,156,320,0
L,,2249906,-0.045,1.009,0.032,4.2,1.1,-0.9,111,315,0
L,,2249965,-0.038,1.000,-0.015,4.6,1.2,-0.6,19,40,0
L,,2250026,-0.070,1.041,-0.032,5.2,1.2,-0.8,12,29,0
L,,2250085,-0.037,0.966,-0.083,6.0,1.8,-1.1,14,21,0
L,,2250146,-0.082,0.965,-0.173,6.5,2.4,-1.1,7,20,0
L,,2250206,-0.108,0.991,-0.198,6.6,2.2,-0.2,7,25,0
L,,2250267,-0.035,1.026,-0.226,7.9,2.1,0.5,6,23,0
L,,2250326,-0.039,1.179,-0.259,10.6,0.0,0.1,6,24,0
L,,2250385,0.006,1.489,-0.096,13.4,-1.1,-1.5,5,25,0
L,,2250446,-0.106,1.280,0.343,14.6,7.7,-7.5,8,24,0
L,,2250505,-0.525,0.983,-0.677,12.0,16.0,-5.7,10,23,0
L,,2250566,0.216,0.203,-0.428,7.0,11.5,-6.1,57,104,0
L,,2250625,0.588,0.085,0.063,-5.4,-11.2,0.3,20,39,0
L,,2250686,0.253,0.179,-0.057,-16.7,-9.5,4.9,15,18,0
L,,2250746,0.226,0.759,-0.078,-25.2,-0.9,12.7,12,19,0
L,,2250806,0.320,1.393,-0.327,-27.9,7.7,15.3,14,22,0
L,,2250866,0.218,1.758,-0.073,-29.0,1.8,11.4,11,23,0
L,,2250925,0.068,1.487,-0.186,-21.1,3.3,8.8,13,24,0
L,,2250987,0.116,1.238,-0.178,-13.1,4.9,3.3,12,25,0
L,,2251045,0.300,1.013,-0.167,-3.3,-1.2,0.4,13,25,0
L,,2251106,0.257,0.720,0.096,-2.5,-10.9,0.0,28,50,0
L,,2251166,0.023,0.709,0.219,-4.8,-7.2,0.3,27,40,0
L,,2251226,0.002,0.784,0.055,-3.9,1.8,-0.8,20,32,0
L,,2251286,0.081,0.927,-0.210,2.6,3.3,-2.6,14,27,0
L,,2251346,1.974,0.770,2.780,1.5,-0.9,1.2,166,161,0
L,,2251406,0.137,1.478,-0.128,14.9,0.6,-10.1,242,423,0
L,,2251465,-0.369,1.021,0.246,9.5,-4.7,-5.9,259,403,0
L,,2251525,0.269,0.905,-0.041,6.0,-1.1,-6.7,220,387,0
L,,2251585,-0.128,0.964,0.256,3.9,-2.9,-5.2,230,405,0
L,,2251647,0.093,0.987,0.076,2.3,-0.4,-3.4,215,337,0
L,,2251706,-0.078,1.002,0.157,2.7,0.8,-2.5,288,396,0
L,,2251766,-0.029,0.994,0.059,1.2,-0.6,-2.4,209,310,0
L,,2251826,-0.036,1.002,0.057,0.4,-0.5,-1.6,224,395,0
L,,2251885,-0.106,0.985,0.100,0.0,-0.1,-1.3,176,364,0
L,,2251946,-0.096,1.003,0.095,0.4,0.5,-0.8,192,375,0
L,,2252005,-0.101,1.024,0.115,1.7,1.6,-0.3,176,346,0
L,,2252066,-0.041,0.993,0.098,3.5,1.9,-0.4,64,172,0
L,,2252125,-0.082,1.018,0.037,4.7,1.6,-0.7,68,180,0
L,,2252186,-0.063,1.000,-0.045,5.6,2.3,-1.5,12,30,0
L,,2252246,-0.120,1.033,-0.081,6.6,1.5,-1.8,10,19,0
L,,2252306,-0.169,1.077,-0.084,7.3,1.4,-2.0,6,22,0
L,,2252368,-0.138,1.211,-0.137,8.5,1.8,-1.2,7,23,0
L,,2252425,-0.044,1.349,-0.083,10.4,2.1,-1.0,6,25,0
L,,2252486,-0.113,1.225,0.041,11.4,6.4,-3.3,6,23,0
L,,2252545,-0.029,1.179,-0.134,13.3,20.2,-7.4,9,23,0
L,,2252606,-0.352,0.950,-0.267,10.1,13.5,-6.7,9,28,0
L,,2252666,0.169,0.197,-0.515,2.7,7.7,-2.9,27,37,0
L,,2252726,0.657,0.106,0.002,-4.5,-1.6,2.6,24,45,0
L,,2252786,0.267,0.358,-0.208,-14.4,-9.6,7.7,30,51,0
L,,2252846,0.146,0.784,0.024,-22.2,-3.1,12.0,15,26,0
L,,2252906,0.290,1.430,0.036,-25.0,5.4,13.8,30,47,0
L,,2252996,0.110,1.628,-0.373,-24.4,11.0,6.8,53,74,0
L,,2253056,0.025,1.153,-0.423,-14.9,-6.8,2.3,62,91,0
L,,2253118,0.145,1.179,0.049,-1.4,-4.6,1.8,17,27,0
L,,2253176,0.161,1.007,-0.267,3.1,-5.9,-1.7,21,31,0
L,,2253236,0.294,0.968,0.024,7.4,-9.4,-2.8,25,30,0
L,,2253295,0.350,0.775,0.045,4.0,-4.6,-1.0,23,35,0
L,,2253356,0.258,0.776,0.179,0.8,-5.9,2.9,29,43,0
L,,2253416,-0.013,0.888,0.243,-2.0,6.4,0.7,55,76,0
L,,2253476,-0.011,1.041,0.130,-0.3,14.5,-3.5,53,85,0
L,,2253536,-0.291,1.055,0.080,5.4,24.2,-5.0,44,72,0
L,,2253596,0.120,0.940,0.379,2.4,8.0,-9.2,34,58,0
L,,2253656,-1.126,2.272,1.345,-4.9,-5.4,-10.1,93,160,0
L,,2253715,-0.399,1.090,0.117,2.3,1.0,-1.3,126,191,0
L,,2253778,0.006,1.002,0.076,-1.6,-3.6,-4.1,93,169,0
L,,2253835,0.019,0.976,0.130,0.1,1.3,-1.6,178,315,0
L,,2253896,-0.059,0.999,0.181,0.2,1.1,-1.5,209,435,0
L,,2253956,-0.015,1.009,0.167,0.7,2.1,-1.9,206,396,0
L,,2254016,-0.051,0.994,0.109,1.4,1.4,-2.6,73,173,0
L,,2254076,-0.071,0.974,0.101,0.6,0.7,-2.8,88,212,0
L,,2254136,-0.138,1.003,0.119,0.2,1.1,-2.2,93,214,0
L,,2254196,-0.117,0.992,0.094,0.1,1.7,-1.8,68,212,0
L,,2254255,-0.185,1.003,0.131,0.3,3.0,-1.0,73,221,0
L,,2254316,-0.146,1.031,0.132,1.8,4.3,-0.9,70,154,0
L,,2254375,-0.132,1.026,0.087,2.9,3.9,-1.9,24,28,0
L,,2254436,-0.157,1.004,0.035,3.2,3.3,-2.5,20,23,0
L,,2254498,-0.281,1.011,0.075,3.2,4.8,-2.8,14,25,0
L,,2254556,-0.286,0.988,0.035,3.1,6.8,-3.5,11,46,0
L,,2254616,-0.299,0.986,-0.028,3.1,9.7,-4.6,37,138,0
L,,2254676,-0.014,1.012,-0.215,3.8,6.7,-4.5,42,195,0
L,,2254736,-0.501,1.143,-0.066,5.1,2.8,-4.6,37,158,0
L,,2254795,-0.149,1.265,-0.081,7.0,5.6,-5.3,9,37,0
L,,2254856,-0.087,1.117,-0.042,9.3,12.7,-6.7,8,27,0
L,,2254916,-0.158,1.257,-0.445,12.4,19.8,-4.8,35,64,0
L,,2254976,-0.236,1.077,-0.386,8.8,18.1,-10.1,5,17,0
L,,2255036,0.097,0.600,-0.213,2.4,3.4,-2.4,38,55,0
L,,2255096,0.510,0.445,-0.462,0.3,7.5,8.7,6,19,0
L,,2255158,0.249,0.821,-0.796,-1.0,-9.8,14.4,7,21,0
L,,2255216,0.039,0.959,-0.677,0.2,-16.5,17.9,12,22,0
L,,2255276,-0.109,0.768,-0.350,2.1,-14.1,19.7,9,20,0
L,,2255335,-0.049,0.495,-0.133,-2.1,-12.3,20.2,8,22,0
L,,2255396,-0.063,0.524,0.085,-10.2,-13.0,20.0,13,24,0
L,,2255456,0.104,1.021,-0.083,-14.7,-25.0,20.4,13,20,0
L,,2255516,-1.803,1.964,-2.659,-1.9,-38.6,12.4,11,30,0
L,,2255576,-1.550,0.771,0.098,-6.1,-11.6,0.5,7,28,0
L,,2255636,0.198,1.159,-0.292,-9.0,5.4,-0.3,10,27,0
L,,2255726,-0.225,0.997,-0.127,-8.8,-2.8,-0.5,14,30,0
L,,2255786,0.000,0.973,-0.220,-7.9,-2.2,-0.6,11,35,0
L,,2255846,0.132,1.034,-0.172,-7.4,-2.5,-0.9,15,32,0
L,,2255908,-0.124,1.164,0.049,-5.0,-2.6,-1.3,20,40,0
L,,2255966,-0.107,1.028,-0.022,-1.9,-2.1,-0.6,112,187,0
L,,2256026,-0.110,0.973,-0.080,-1.7,-1.6,-0.2,109,163,0
L,,2256085,-0.073,0.982,-0.044,-2.2,-0.6,0.0,29,46,0
L,,2256146,-0.040,1.017,-0.023,-2.6,-1.7,0.2,143,266,0
L,,2256206,-0.118,1.003,0.063,-2.4,-1.9,-0.2,208,407,0
L,,2256266,-0.117,1.006,0.045,-2.2,-2.7,-0.8,89,156,0
L,,2256326,-0.106,0.986,0.039,-1.9,-2.1,-0.4,156,268,0
L,,2256386,-0.122,1.030,0.099,-1.8,-1.9,0.5,199,361,0
L,,2256446,-0.105,0.996,0.089,-1.6,-1.7,1.0,229,425,0
L,,2256506,-0.096,0.981,0.112,-1.6,-0.8,1.3,204,367,0
L,,2256566,-0.103,0.986,0.118,-1.7,-0.4,1.4,224,404,0
L,,2256627,-0.079,0.997,0.128,-2.3,-0.4,1.9,256,445,0
L,,2256686,-0.070,1.001,0.157,-2.8,0.1,3.0,264,440,0
L,,2256746,-0.011,0.971,0.185,-3.8,0.6,3.2,261,443,0
L,,2256806,-0.021,1.008,0.206,-4.6,2.3,3.2,260,423,0
L,,2256896,-0.132,1.096,0.086,-4.9,0.9,2.3,292,355,0
L,,2256956,0.018,1.078,0.183,-6.0,1.5,1.9,213,303,0
L,,2257016,0.266,1.070,0.272,-5.6,3.9,2.4,124,128,0
L,,2257076,0.322,1.125,-0.569,4.6,2.4,0.8,23,37,0
