side,stage,device_ms,ax,ay,az,gx,gy,gz,toe,heel,phase
L,,203671,0.423,1.200,0.623,104.7,5.3,6.0,444,572,0
L,,203681,0.529,1.494,0.245,127.5,9.7,-0.2,461,578,0
L,,203691,0.196,1.511,0.412,207.6,22.2,13.5,481,597,0
L,,203701,-0.135,1.785,0.084,209.3,20.7,-18.7,488,607,0
L,,203711,-0.081,1.340,-0.128,180.0,-28.7,-37.8,492,617,0
L,,203721,0.171,1.260,0.058,143.5,-65.2,-31.2,492,618,0
L,,203731,0.232,0.991,0.206,122.4,-84.7,-39.0,493,624,0
L,,203741,-0.051,0.880,0.013,105.6,-61.0,-39.8,477,627,0
L,,203751,-0.502,0.924,-0.248,94.7,-56.0,-55.4,491,634,0
L,,203761,-0.293,0.895,-0.022,72.3,-82.9,-41.2,498,648,0
L,,203771,-0.397,0.810,0.201,62.3,-74.8,-25.9,505,652,0
L,,203781,-0.615,1.060,0.170,81.2,-34.5,-18.2,515,661,0
L,,203791,-0.303,0.716,0.072,68.9,-16.2,-11.8,517,662,0
L,,203801,-0.332,1.003,0.076,68.6,-7.0,-0.7,521,671,0
L,,203811,-0.412,1.008,0.172,61.2,15.4,-5.7,523,676,0
L,,203821,-0.288,0.958,0.161,59.5,35.6,3.7,525,678,0
L,,203831,-0.244,0.967,0.185,62.1,57.7,10.3,527,678,0
L,,203841,-0.140,0.853,0.096,44.9,57.5,6.3,527,680,0
L,,203851,-0.018,0.892,0.051,35.2,45.7,5.7,531,684,0
L,,203861,-0.017,0.917,0.084,25.9,18.7,1.5,530,683,0
L,,203871,-0.120,0.963,0.131,20.2,29.6,-3.1,531,683,0
L,,203881,-0.124,0.981,0.058,16.5,24.8,-3.1,533,685,0
L,,203891,-0.094,0.981,0.123,7.1,10.2,-5.1,535,687,0
L,,203901,-0.168,0.892,0.119,6.3,-7.2,2.5,535,688,0
L,,203911,-0.276,0.950,0.163,9.0,-7.8,5.3,534,687,0
L,,203921,-0.291,0.955,0.185,11.1,-4.2,8.9,536,688,0
L,,203931,-0.233,0.966,0.187,12.9,-4.3,11.5,537,687,0
L,,203941,-0.216,0.986,0.166,14.4,1.8,13.1,538,687,0
L,,203951,-0.192,0.976,0.142,11.2,6.5,12.4,538,689,0
L,,203961,-0.230,0.967,0.165,8.0,10.2,13.3,542,688,0
L,,203971,-0.240,0.964,0.151,9.5,14.9,9.1,540,690,0
L,,203981,-0.126,0.981,0.094,0.0,13.8,10.3,541,688,0
L,,203991,-0.061,1.025,0.162,0.0,12.3,7.8,541,688,0
L,,204001,-0.067,0.976,0.188,0.6,8.7,4.2,542,690,0
L,,204011,-0.094,0.998,0.190,4.2,2.1,1.6,543,691,0
L,,204021,-0.235,0.912,0.257,6.1,7.7,11.9,543,691,0
L,,204031,-0.293,1.364,0.096,12.8,29.1,-2.1,544,693,0
L,,204041,0.076,0.773,0.130,4.9,-3.7,8.8,545,692,0
L,,204051,-0.255,1.035,0.183,16.3,4.4,0.0,546,692,0
L,,204061,-0.121,1.056,0.301,-0.4,2.6,6.4,544,693,0
L,,204071,-0.122,1.049,0.082,18.4,7.2,-0.3,545,693,0
L,,204081,-0.151,0.848,0.124,13.5,-4.9,2.8,546,692,0
L,,204091,-0.192,0.932,0.159,15.1,-0.9,8.1,546,693,0
L,,204101,-0.255,1.026,0.181,15.1,14.9,5.7,544,691,0
L,,204111,-0.227,1.017,0.168,16.4,24.9,5.0,544,690,0
L,,204121,-0.207,1.055,0.189,20.7,25.6,6.5,544,692,0
L,,204131,-0.284,1.020,0.249,21.8,28.9,7.4,545,693,0
L,,204141,-0.106,1.010,0.198,27.0,28.4,12.6,543,691,0
L,,204151,-0.126,1.014,0.244,33.3,30.8,14.2,546,691,0
L,,204161,-0.219,1.050,0.256,39.9,32.0,13.5,546,692,0
L,,204171,-0.211,1.035,0.272,45.5,33.1,14.9,547,692,0
L,,204181,-0.190,1.066,0.300,53.6,38.7,12.8,548,693,0
L,,204191,-0.177,1.057,0.274,65.5,40.7,13.0,548,696,0
L,,204201,-0.107,1.072,0.228,70.3,35.9,12.6,549,698,0
L,,204211,-0.122,1.097,0.235,77.7,32.4,9.8,548,698,0
L,,204221,-0.120,1.105,0.256,87.4,35.5,9.4,548,700,0
L,,204231,-0.104,1.117,0.242,96.8,32.4,11.1,544,700,0
L,,204241,-0.232,1.138,0.163,103.8,33.0,14.7,542,704,0
L,,204251,-0.217,1.099,0.168,109.4,36.8,18.8,527,700,0
L,,204261,-0.182,1.104,0.187,120.5,33.3,13.5,408,714,0
L,,204271,-0.238,1.152,0.154,128.4,35.7,16.3,365,718,0
L,,204281,-0.302,1.202,0.078,130.4,46.9,24.7,382,710,0
L,,204291,-0.226,1.190,0.087,139.3,59.6,25.6,366,714,0
L,,204301,-0.198,1.204,0.081,142.5,59.3,23.3,364,696,0
L,,204311,-0.160,1.196,0.020,141.4,58.5,25.9,312,704,0
L,,204321,-0.161,1.166,0.003,138.6,48.5,16.5,185,720,0
L,,204331,-0.022,1.274,-0.015,149.9,51.1,24.7,164,721,0
L,,204341,-0.003,1.715,0.037,149.8,58.2,1.4,152,717,0
L,,204351,0.119,1.374,-0.105,138.3,36.9,-2.9,148,731,0
L,,204361,-0.046,1.690,0.114,160.0,29.2,-8.3,155,730,0
L,,204371,0.022,1.746,0.055,168.2,29.6,-13.7,159,728,0
L,,204381,0.026,1.871,0.135,177.1,26.8,-18.1,157,730,0
L,,204391,-0.008,1.952,0.190,190.8,23.3,-30.8,156,724,0
L,,204401,-0.079,2.001,0.358,199.9,13.4,-39.9,145,720,0
L,,204411,-0.409,2.132,0.542,220.0,24.9,-49.2,145,706,0
L,,204421,-0.595,2.020,0.810,223.6,47.1,-66.0,151,690,0
L,,204431,-0.710,2.009,0.767,208.7,69.2,-82.1,148,664,0
L,,204441,-0.618,1.958,0.649,207.9,95.7,-77.2,144,635,0
L,,204451,-0.595,1.897,0.310,199.6,128.0,-69.0,146,633,0
L,,204461,-0.510,1.673,0.149,193.7,163.5,-73.8,142,632,0
L,,204471,-0.325,1.203,0.098,171.6,144.2,-85.6,146,600,0
L,,204481,-0.313,0.887,0.336,149.8,115.4,-82.3,119,468,0
L,,204491,-0.361,0.613,0.382,127.5,107.4,-84.4,104,353,0
L,,204501,-0.275,0.209,0.676,91.7,130.4,-79.8,188,417,0
L,,204511,-0.262,0.070,0.479,92.1,163.1,-45.2,205,452,0
L,,204521,-0.174,0.077,0.081,100.3,219.0,-31.9,220,448,0
L,,204531,0.244,0.126,0.630,-15.8,205.8,-40.3,250,441,0
L,,204541,0.325,0.508,0.892,-47.8,194.6,-60.1,252,439,0
L,,204551,0.519,0.377,0.634,-71.1,140.5,-66.4,281,441,0
L,,204561,0.671,0.240,0.465,-66.0,112.0,-51.3,281,441,0
L,,204571,0.619,0.243,0.301,-91.9,80.6,-61.1,282,438,0
L,,204581,0.552,0.182,0.320,-113.7,53.6,-65.1,288,442,0
L,,204591,0.481,0.215,0.370,-148.8,26.8,-75.9,285,445,0
L,,204603,0.446,0.360,0.370,-177.1,-8.7,-78.6,291,453,0
L,,204613,0.405,0.493,0.367,-199.9,-24.9,-74.4,293,456,0
L,,204623,0.384,0.552,0.367,-225.8,-35.9,-72.8,292,458,0
L,,204633,0.413,0.729,0.373,-248.0,-38.9,-65.3,298,468,0
L,,204643,0.397,0.714,0.379,-261.5,-38.6,-56.3,296,465,0
L,,204653,0.441,0.757,0.295,-266.8,-30.9,-48.7,294,464,0
L,,204663,0.514,0.739,0.278,-287.9,-33.0,-40.4,298,472,0
L,,204673,0.512,0.952,0.276,-310.5,-31.6,-33.1,295,469,0
L,,204683,0.488,1.064,0.246,-324.8,-30.9,-23.2,297,474,0
L,,204693,0.426,1.157,0.268,-331.8,-21.2,-11.5,296,474,0
L,,204703,0.363,1.234,0.239,-341.0,-8.6,0.2,294,479,0
L,,204713,0.296,1.355,0.217,-346.9,6.0,5.1,289,479,0
L,,204723,0.245,1.515,0.164,-346.9,42.2,15.6,296,471,0
L,,204733,0.281,1.689,0.048,-339.2,72.1,23.9,299,471,0
L,,204743,0.318,1.751,-0.058,-329.7,99.0,31.2,301,473,0
L,,204753,0.376,1.788,-0.089,-329.4,115.9,30.7,297,472,0
L,,204763,0.404,1.921,-0.142,-326.9,128.3,26.3,299,470,0
L,,204773,0.352,2.108,-0.193,-336.7,127.6,15.6,297,477,0
L,,204783,0.225,2.385,-0.317,-342.3,132.8,6.5,296,476,0
L,,204793,0.470,2.427,-0.629,-312.0,138.7,25.0,295,473,0
L,,204803,0.427,2.286,-0.816,-306.5,128.7,17.7,289,477,0
L,,204813,0.613,2.098,-1.035,-279.0,104.0,6.6,293,480,0
L,,204823,0.785,2.013,-1.281,-227.5,74.1,10.5,290,487,0
L,,204833,0.604,2.038,-1.453,-182.7,20.5,6.3,290,489,0
L,,204843,0.645,1.850,-1.561,-135.4,-9.3,32.6,299,489,0
L,,204853,0.478,1.613,-1.634,-100.3,-26.1,21.5,295,490,0
L,,204863,-0.170,1.553,-1.532,-66.6,-28.0,13.3,302,501,0
L,,204873,-0.293,1.566,-1.238,-30.3,-6.6,0.3,325,501,0
L,,204883,-0.301,1.694,-1.716,30.3,-36.4,-5.6,343,530,0
L,,204893,-0.108,1.494,-1.606,73.7,-23.1,-5.1,418,522,0
L,,204903,0.104,1.032,-0.037,31.5,-5.0,44.1,441,546,0
L,,204913,0.713,0.943,3.239,87.2,97.7,53.6,449,557,0
L,,204923,0.050,1.713,1.222,126.7,79.9,10.2,464,576,0
L,,204933,0.233,1.187,-0.156,179.0,41.5,0.0,464,574,0
L,,204943,0.224,1.594,0.315,152.6,14.2,-14.9,466,594,0
L,,204953,-0.075,2.023,0.255,180.8,-1.5,-36.2,485,603,0
L,,204963,0.079,1.238,-0.033,191.2,-47.1,-42.2,489,610,0
L,,204973,0.101,1.121,0.009,160.9,-83.2,-52.5,493,619,0
L,,204983,0.124,1.105,-0.014,146.4,-93.9,-52.2,492,620,0
L,,204993,0.009,1.035,-0.012,126.7,-82.7,-41.1,484,622,0
L,,205003,-0.479,1.005,0.165,82.8,-67.1,-52.7,487,622,0
L,,205013,-0.595,0.853,0.027,85.8,-58.0,-45.8,485,626,0
L,,205023,-0.520,0.777,-0.006,68.3,-68.1,-28.6,495,638,0
L,,205033,-0.360,0.875,0.131,65.4,-49.6,-16.2,505,649,0
L,,205043,-0.309,1.056,0.097,74.2,-22.8,-10.2,509,655,0
L,,205053,-0.292,1.028,0.245,66.4,-8.2,-2.8,513,661,0
L,,205063,-0.319,1.074,0.191,61.8,11.0,-0.1,516,669,0
L,,205073,-0.214,0.970,0.121,58.8,29.6,1.3,520,672,0
L,,205083,-0.146,0.966,0.175,57.8,50.4,4.9,521,675,0
L,,205128,-0.044,0.950,0.079,11.9,20.5,-14.6,528,682,0
L,,205188,-0.246,0.994,0.195,6.7,-3.4,8.8,535,687,0
L,,205249,-0.151,0.976,0.160,1.0,22.7,6.5,539,685,0
L,,205352,-0.259,1.032,0.274,25.2,20.6,8.0,548,698,0
L,,205369,-0.113,1.067,0.209,30.2,17.1,6.0,551,697,0
L,,205437,-0.145,1.108,0.221,56.7,40.9,8.8,555,709,0
L,,205518,-0.213,1.057,0.132,111.0,24.3,9.9,497,708,0
L,,205609,-0.045,1.455,0.040,156.3,40.1,7.1,162,734,0
L,,205668,-0.141,1.898,0.284,200.4,24.0,-40.3,157,670,0
L,,205728,-0.420,1.732,0.148,199.8,146.7,-72.1,150,624,0
L,,205789,-0.390,0.373,-0.030,80.1,88.4,-36.1,200,419,0
L,,205848,0.356,0.086,0.338,-73.0,78.2,-32.1,277,421,0
L,,205909,0.279,0.611,0.264,-231.0,-37.8,-50.4,293,439,0
L,,205968,0.193,1.026,0.273,-325.9,-31.9,-17.0,299,457,0
L,,206058,0.395,2.275,-0.400,-330.7,79.3,38.2,288,453,0
L,,206118,0.465,1.954,-1.893,-159.3,-29.0,17.5,280,432,0
L,,206178,-0.317,1.505,-1.003,78.5,-82.8,-19.2,390,490,0
L,,206239,0.000,1.666,0.282,149.8,-31.5,-40.8,470,583,0
L,,206329,-0.243,1.001,0.040,85.6,2.5,-19.3,504,647,0
L,,206418,-0.004,0.971,0.118,30.9,5.8,-4.1,533,685,0
L,,206478,-0.244,0.972,0.128,17.4,4.2,6.9,539,691,0
L,,206539,0.040,0.984,0.097,11.1,33.1,9.0,542,694,0
L,,206598,-0.079,1.143,0.076,21.0,-3.3,-15.5,545,699,0
L,,206659,-0.147,0.981,0.117,29.0,18.2,10.5,547,705,0
L,,206718,-0.111,1.103,0.178,55.5,31.9,10.5,533,717,0
L,,206779,-0.081,1.143,0.140,107.4,22.7,5.8,478,708,0
L,,206838,-0.268,1.331,0.069,145.5,39.4,1.4,167,727,0
L,,206899,-0.071,1.973,0.184,198.2,46.4,-14.1,163,724,0
L,,206958,-0.584,2.007,0.583,213.5,95.3,-68.2,141,575,0
L,,207018,0.093,-0.007,0.353,137.4,122.2,-3.2,197,419,0
L,,207079,0.284,0.072,0.325,-48.6,31.7,-26.6,277,424,0
L,,207138,0.205,0.343,0.238,-195.3,-35.2,-43.4,286,443,0
L,,207229,0.278,1.027,0.149,-316.4,-47.0,12.6,297,462,0
L,,207289,0.189,1.896,-0.048,-335.9,53.6,21.6,294,462,0
L,,207348,0.311,2.131,-0.994,-252.7,41.0,14.7,293,469,0
L,,207409,-0.036,1.472,-1.553,-24.6,-38.2,-3.0,305,485,0
L,,207468,0.183,1.504,1.303,84.4,41.6,-6.3,449,553,0
L,,207529,0.128,1.080,-0.271,121.9,-101.2,-78.6,468,621,0
L,,207588,-0.309,0.939,0.096,84.3,0.2,-16.5,493,658,0
L,,207678,0.031,0.969,0.050,16.3,3.2,-17.7,533,688,0
L,,207769,-0.186,0.923,0.151,13.7,21.2,11.1,547,698,0
L,,207859,-0.001,0.803,0.225,31.5,11.0,12.3,550,704,0
L,,207918,-0.165,0.997,0.150,32.5,28.7,6.0,479,719,0
L,,207979,-0.159,1.067,0.173,55.4,42.3,0.4,381,722,0
L,,208039,-0.150,1.128,0.070,88.1,39.7,-16.5,347,700,0
L,,208128,-0.137,1.321,0.031,131.0,39.2,3.0,153,585,0
L,,208189,-0.153,1.806,0.273,183.6,21.9,-26.2,147,731,0
L,,208249,-0.382,1.945,0.388,207.8,107.8,-58.6,152,613,0
L,,208338,-0.419,-0.130,-0.458,69.8,90.0,-0.7,260,382,0
L,,208399,0.266,0.049,0.217,-116.6,58.8,12.1,275,389,0
L,,208458,0.185,0.581,0.203,-245.0,-24.5,-19.6,282,412,0
L,,208527,0.118,1.141,0.265,-357.2,-82.3,-4.6,286,426,0
L,,208609,-0.072,2.572,-0.579,-327.2,-7.7,66.5,259,400,0
L,,208668,0.065,1.856,-1.928,-119.2,-11.0,-23.7,273,405,0
L,,208729,0.806,0.609,1.058,67.4,-20.5,20.7,433,534,0
L,,208789,-0.437,1.493,-0.158,163.6,-65.5,-115.9,480,597,0
L,,208848,-0.394,0.551,0.153,92.8,-31.5,-30.7,489,621,0
L,,208909,0.100,0.993,0.026,59.8,24.2,-12.6,523,672,0
L,,208972,-0.169,0.950,0.102,26.5,-2.7,-13.5,537,687,0
L,,209029,-0.223,0.961,0.069,14.2,13.9,6.3,547,697,0
L,,209088,-0.067,0.981,0.071,-2.5,3.2,-4.2,551,701,0
L,,209149,-0.110,1.016,0.122,6.8,5.9,-2.7,549,700,0
L,,209208,-0.172,1.007,0.145,18.3,9.8,0.2,557,706,0
L,,209269,-0.110,1.077,0.179,47.3,30.4,3.7,547,705,0
L,,209329,-0.214,1.128,0.182,94.5,32.5,5.3,354,711,0
L,,209388,-0.218,1.138,0.046,120.6,41.6,12.9,302,692,0
L,,209449,-0.048,1.680,0.055,151.4,33.8,-7.4,135,599,0
L,,209508,-0.462,1.886,0.674,214.8,47.1,-57.6,145,595,0
L,,209569,-0.406,0.814,0.183,157.4,96.4,-69.3,151,449,0
L,,209628,0.248,0.391,0.539,-14.0,170.8,-37.5,283,414,0
L,,209689,0.488,0.325,0.311,-151.4,22.8,-64.8,296,423,0
L,,209749,0.482,0.775,0.215,-269.6,-47.2,-44.1,306,440,0
L,,209809,0.402,1.305,0.111,-329.6,-36.3,-3.2,300,439,0
L,,209869,0.122,2.091,-0.155,-307.7,107.5,35.3,291,456,0
L,,209928,0.235,1.897,-1.156,-173.9,95.4,7.4,293,472,0
L,,209989,-0.014,1.390,-1.236,38.4,21.2,5.2,296,467,0
L,,210048,0.180,1.230,0.234,105.9,5.1,-16.4,460,570,0
L,,210109,0.008,1.099,-0.041,110.6,-80.6,-31.9,488,628,0
L,,210168,-0.333,0.985,0.111,63.9,-3.0,-11.7,504,643,0
L,,210229,-0.041,0.960,0.094,24.2,16.8,-5.6,512,658,0
L,,210289,-0.209,0.963,0.138,6.3,-7.8,-1.6,518,663,0
L,,210378,-0.199,0.984,0.244,0.8,4.0,-1.1,518,662,0
L,,210439,-0.270,0.974,0.179,18.2,12.0,6.5,524,666,0
L,,210499,-0.145,1.026,0.213,33.5,24.7,3.1,536,678,0
L,,210559,-0.191,1.064,0.210,65.1,43.7,3.6,540,688,0
L,,210619,-0.214,1.098,0.188,109.2,50.3,7.6,442,691,0
L,,210678,-0.321,1.318,0.113,153.5,77.4,-0.9,166,706,0
L,,210739,-0.015,2.007,0.169,199.0,52.9,-38.9,145,719,0
L,,210798,-0.471,2.009,0.500,194.1,120.4,-103.8,136,599,0
L,,210859,-0.329,0.039,1.218,64.8,199.5,-76.3,205,394,0
L,,210918,1.019,0.232,0.341,-93.5,123.9,-46.2,217,402,0
L,,210979,0.431,0.526,0.433,-264.8,-40.6,-61.5,226,420,0
L,,211039,0.320,1.128,0.304,-355.3,-25.5,-13.8,231,429,0
L,,211099,0.236,1.905,-0.301,-315.1,136.5,58.1,228,442,0
L,,211159,0.853,2.021,-1.381,-225.1,88.8,13.4,227,435,0
L,,211218,-0.401,1.588,-1.509,25.5,-6.7,2.2,314,542,0
L,,211279,0.166,1.462,0.193,155.8,6.7,-29.6,487,606,0
L,,211337,-0.677,1.002,0.032,77.3,-65.4,-48.0,496,636,0
L,,211399,-0.112,1.046,-0.038,70.4,60.6,-5.3,516,666,0
L,,211458,-0.209,0.966,0.050,21.7,22.1,-13.7,540,688,0
L,,211519,-0.208,0.961,0.143,13.3,0.2,1.6,549,693,0
L,,211579,-0.124,0.996,0.093,1.7,6.7,0.4,552,698,0
L,,211639,-0.214,1.017,0.171,7.1,13.7,2.6,544,696,0
L,,211699,-0.196,1.003,0.125,14.1,15.5,0.0,404,716,0
L,,211758,-0.189,1.064,0.167,34.5,32.6,0.9,386,714,0
L,,211827,-0.202,1.092,0.136,75.4,42.2,1.4,400,697,0
L,,211878,-0.278,1.196,0.078,102.9,52.6,-2.5,166,706,0
L,,211968,-0.095,1.630,0.097,171.4,40.9,-22.2,138,681,0
L,,212059,-0.261,1.457,0.031,196.4,202.5,-71.2,136,500,0
L,,212119,-0.184,-0.135,0.583,69.5,163.3,-14.9,175,368,0
L,,212179,0.640,0.063,0.336,-91.9,62.7,-22.9,216,389,0
L,,212239,0.258,0.430,0.183,-225.2,-28.0,-32.7,237,402,0
L,,212298,0.138,0.959,0.264,-322.7,-56.4,-16.5,249,403,0
L,,212358,0.234,1.730,0.042,-349.5,26.0,28.9,251,406,0
L,,212418,-0.009,2.499,-0.634,-310.4,52.8,33.6,245,388,0
L,,212479,0.283,1.616,-1.741,-58.1,-57.1,-2.8,252,400,0
L,,212539,0.336,0.758,1.788,-11.1,-45.1,5.6,434,528,0
L,,212628,0.251,1.230,0.250,97.5,-112.9,-65.5,482,607,0
L,,212718,-0.040,0.962,0.056,56.3,64.1,-0.5,513,654,0
L,,212779,-0.135,0.940,0.145,16.2,-9.8,-10.7,528,670,0
L,,212838,-0.246,0.968,0.130,13.7,18.6,5.6,540,681,0
L,,212929,-0.195,1.022,0.183,20.4,19.8,2.5,541,685,0
L,,212989,-0.127,1.008,0.109,28.7,25.8,6.2,433,707,0
L,,213048,-0.117,1.062,0.122,46.7,35.8,5.6,457,694,0
L,,213109,-0.108,1.125,0.129,84.4,33.1,3.2,389,681,0
L,,213168,-0.055,1.221,0.007,106.8,33.1,2.8,180,715,0
L,,213229,-0.170,1.513,0.104,143.2,29.4,-1.3,140,669,0
L,,213289,-0.335,1.971,0.625,199.2,22.8,-52.5,139,578,0
L,,213349,-0.405,1.417,0.179,199.3,224.7,-58.2,135,447,0
L,,213409,-0.006,0.107,-0.541,62.6,110.8,-17.0,213,421,0
L,,213469,0.354,0.088,0.236,-135.7,-2.1,-16.6,231,439,0
L,,213529,0.111,0.512,0.348,-255.9,-76.0,-38.0,240,440,0
L,,213588,0.161,1.166,0.284,-351.6,-72.9,-15.6,252,452,0
L,,213649,0.086,2.230,-0.123,-359.3,-14.4,21.0,254,436,0
L,,213708,-0.064,2.210,-1.466,-215.8,12.7,0.8,250,427,0
L,,213769,0.143,1.488,-1.739,62.0,-65.6,-6.6,257,466,0
L,,213829,0.569,1.263,-0.101,180.2,-30.8,-26.5,465,574,0
L,,213889,0.102,1.264,0.203,94.9,-115.5,-54.0,467,614,0
L,,213949,-0.242,0.944,0.108,82.0,13.3,-10.7,480,643,0
L,,214009,0.023,1.005,0.084,34.4,25.5,-15.4,514,660,0
L,,214069,-0.300,0.968,0.133,10.0,-5.6,-3.5,525,671,0
L,,214128,-0.166,0.982,0.184,5.8,14.1,5.6,518,680,0
L,,214188,-0.111,0.969,0.195,12.1,24.9,5.8,538,681,0
L,,214249,-0.165,1.051,0.149,29.6,24.1,6.4,540,684,0
L,,214309,-0.113,1.037,0.206,51.8,38.1,6.8,536,694,0
L,,214369,-0.117,1.107,0.146,101.1,34.0,7.1,487,693,0
L,,214429,-0.207,1.329,0.125,148.3,37.3,8.4,222,701,0
L,,214489,-0.110,1.779,0.115,186.5,40.6,-17.0,155,707,0
L,,214548,-0.423,2.211,0.899,237.7,32.8,-92.4,123,452,0
L,,214609,-0.031,0.567,0.179,155.8,100.7,-35.4,99,275,0
L,,214668,0.157,0.439,0.711,-55.0,94.7,-19.2,272,404,0
L,,214737,0.135,0.223,0.256,-199.7,-24.1,-30.2,310,440,0
L,,214789,0.280,0.743,0.242,-287.8,-48.6,-18.6,314,444,0
L,,214849,0.107,1.416,0.237,-360.1,-29.7,8.8,315,455,0
L,,214909,0.130,2.278,-0.145,-330.6,142.8,30.8,305,453,0
L,,214969,0.260,1.925,-1.304,-190.6,89.6,-34.2,311,467,0
L,,215029,-0.212,1.389,-0.945,42.9,20.7,-1.6,253,514,0
L,,215088,0.402,1.655,-0.089,173.3,17.7,-10.5,481,597,0
L,,215151,-0.623,0.765,0.164,91.7,-99.5,-49.3,487,617,0
L,,215208,-0.353,1.065,0.172,73.6,49.5,-3.9,505,653,0
L,,215299,-0.201,0.918,0.118,14.0,2.3,-6.5,520,675,0
L,,215389,-0.122,0.969,0.114,-0.7,5.9,5.8,529,682,0
L,,215478,-0.297,0.977,0.244,17.0,17.0,16.4,537,685,0
L,,215539,-0.126,1.020,0.136,23.3,27.8,15.9,541,692,0
L,,215599,-0.187,1.055,0.230,47.9,37.5,11.4,530,704,0
L,,215689,-0.206,1.137,0.134,102.9,34.9,11.6,480,694,0
L,,215749,-0.182,1.197,0.000,112.4,42.7,0.0,157,711,0
L,,215809,-0.138,1.864,0.240,173.1,44.5,-31.1,170,717,0
L,,215869,-0.730,1.907,0.832,201.8,114.8,-74.5,135,476,0
L,,215929,-0.238,0.464,0.463,122.8,137.1,-69.4,255,386,0
L,,216019,0.315,0.269,0.362,-151.5,8.6,-85.4,323,446,0
L,,216079,0.391,0.714,0.311,-259.5,-23.8,-55.7,342,465,0
L,,216139,0.383,1.265,0.204,-332.5,0.7,-7.6,345,479,0
L,,216199,0.276,2.107,-0.141,-313.4,159.8,9.3,330,477,0
L,,216259,0.675,1.858,-1.256,-196.4,74.4,0.5,331,488,0
L,,216349,-0.114,1.047,1.391,-73.0,-51.7,-28.0,429,531,0
L,,216409,0.222,1.506,-0.216,166.7,-87.4,-13.4,472,626,0
L,,216469,-0.266,0.934,0.073,85.6,-5.3,1.5,491,651,0
L,,216529,-0.222,1.000,0.121,48.5,17.0,-1.4,526,673,0
L,,216589,-0.260,0.957,0.185,23.3,-1.3,0.0,539,686,0
L,,216649,-0.223,0.931,0.124,8.9,13.5,2.8,549,692,0
L,,216708,-0.172,0.974,0.155,6.3,3.2,1.6,547,699,0
L,,216769,-0.227,0.981,0.151,11.6,20.0,3.2,438,717,0
L,,216829,-0.239,1.034,0.192,19.7,29.0,4.3,505,700,0
L,,216889,-0.199,1.044,0.184,50.6,46.9,4.6,491,697,0
L,,216949,-0.233,1.131,0.148,90.2,43.4,-4.0,373,682,0
L,,217009,-0.127,1.211,0.015,113.1,50.9,-0.4,158,715,0
L,,217069,-0.197,1.665,0.120,162.9,47.3,-23.5,157,679,0
L,,217129,-0.804,2.012,0.919,198.3,107.0,-99.6,153,583,0
L,,217189,-0.353,1.040,0.440,142.6,161.7,-98.4,131,403,0
L,,217249,0.662,0.344,0.723,-16.1,215.1,-60.9,228,407,0
L,,217308,0.426,0.077,0.186,-173.5,-38.9,-98.9,258,429,0
L,,217369,0.297,0.893,0.216,-280.5,-21.7,-51.0,261,448,0
L,,217429,0.486,1.364,0.008,-310.5,56.1,4.5,266,458,0
L,,217489,0.340,1.795,-0.073,-308.8,204.0,42.2,260,441,0
L,,217549,0.782,1.894,-1.173,-188.2,115.1,21.9,247,451,0
L,,217609,0.286,1.631,-1.667,19.1,-32.0,-12.8,313,483,0
L,,217668,0.305,1.085,0.007,133.5,-100.2,-36.4,485,599,0
L,,217759,-0.172,0.846,0.037,64.1,17.7,-2.6,502,642,0
L,,217819,-0.057,0.953,0.061,24.7,19.0,-3.4,515,660,0
L,,217879,-0.263,0.988,0.121,8.7,6.2,4.6,521,665,0
L,,217939,-0.214,0.987,0.112,0.2,15.5,12.4,527,669,0
L,,217999,-0.058,0.982,0.185,7.9,19.2,13.5,531,671,0
L,,218059,-0.194,1.057,0.186,25.2,21.2,14.5,536,679,0
L,,218119,-0.179,1.034,0.140,49.4,29.7,12.8,546,695,0
L,,218187,-0.128,1.097,0.177,91.6,34.6,8.3,376,712,0
L,,218239,-0.324,1.141,0.122,111.1,39.9,16.1,392,688,0
L,,218299,-0.183,1.368,0.166,149.1,24.2,13.6,144,661,0
L,,218359,-0.457,1.891,0.476,210.2,49.0,-48.2,140,549,0
L,,218419,-0.314,1.327,0.110,193.9,168.9,-71.0,132,486,0
L,,218479,0.355,0.120,0.216,-4.9,131.1,-35.6,287,439,0
L,,218539,0.211,0.227,0.424,-140.1,27.5,-63.4,301,454,0
L,,218599,0.340,0.676,0.272,-254.5,-22.1,-50.4,305,460,0
L,,218659,0.198,1.141,0.274,-330.7,17.9,-12.6,313,479,0
L,,218719,0.204,2.011,-0.002,-338.0,96.7,3.6,303,474,0
L,,218779,0.381,2.122,-1.403,-232.3,54.8,7.3,292,481,0
L,,218839,0.164,1.565,-1.525,29.8,-69.6,-6.3,299,479,0
L,,218899,0.872,0.901,0.282,229.2,34.7,31.2,460,577,0
L,,218959,-0.188,1.473,-0.101,114.3,-72.7,-31.5,490,628,0
L,,219019,-0.292,0.920,0.083,52.0,5.8,-7.8,514,663,0
L,,219079,-0.086,0.887,0.079,17.2,26.8,0.2,521,672,0
L,,219138,-0.273,0.925,0.195,6.2,-6.6,9.8,526,673,0
L,,219199,-0.128,0.967,0.210,2.6,22.9,16.5,526,674,0
L,,219259,-0.127,0.921,0.197,19.0,5.8,7.6,535,680,0
L,,219319,-0.110,1.037,0.238,37.6,29.8,16.1,541,687,0
L,,219409,-0.171,1.168,0.250,112.3,37.1,13.7,443,711,0
L,,219469,-0.229,1.233,0.092,151.2,26.6,9.5,178,722,0
L,,219529,-0.092,1.903,0.216,191.4,30.7,-20.6,174,727,0
L,,219619,-0.342,1.520,0.283,208.9,236.6,-54.0,173,650,0
L,,219709,0.398,0.452,0.712,-59.2,56.9,-12.1,254,446,0
L,,219769,-0.012,0.271,0.407,-200.6,-83.3,-32.2,267,447,0
L,,219829,0.159,0.731,0.358,-291.7,-46.7,-6.0,270,449,0
L,,219889,0.137,1.421,0.307,-378.7,-80.0,23.3,266,439,0
L,,219949,-0.231,2.965,-0.539,-354.3,-50.5,56.9,243,399,0
L,,220009,-0.270,1.785,-2.171,-81.3,-99.6,-29.1,249,421,0
L,,220069,0.882,1.047,1.779,12.5,-79.6,42.3,439,546,0
L,,220129,-0.611,1.601,-0.447,200.9,-14.2,-153.3,472,607,0
L,,220189,-0.529,0.777,0.155,89.4,-59.7,-38.7,483,625,0
L,,220250,-0.028,0.977,0.076,59.6,38.3,-10.3,505,657,0
L,,220309,-0.061,0.934,0.087,21.9,-1.4,-5.7,521,674,0
L,,220369,-0.129,0.989,0.135,16.5,7.0,6.1,508,683,0
L,,220429,-0.068,1.050,0.146,17.0,23.0,4.2,512,688,0
L,,220489,-0.113,0.998,0.169,35.7,16.9,11.9,265,723,0
L,,220549,-0.052,1.069,0.087,51.7,32.6,7.4,307,718,0
L,,220609,-0.035,1.104,0.153,88.9,23.5,12.1,348,695,0
L,,220669,0.019,1.249,0.021,122.6,16.4,5.6,151,622,0
L,,220729,-0.045,1.708,0.159,170.0,13.5,12.0,183,721,0
L,,220790,-0.288,2.230,0.856,219.4,20.0,-32.1,160,687,0
L,,220849,-0.369,1.539,0.156,209.0,173.8,-11.5,187,516,0
L,,220939,0.128,0.153,0.318,-67.7,18.7,25.6,297,406,0
L,,221000,-0.125,0.324,0.309,-205.7,-118.9,26.3,308,423,0
L,,221110,-0.156,1.337,0.196,-349.9,-89.2,61.1,306,416,0
L,,221120,-0.207,1.511,0.096,-348.5,-75.4,60.2,300,412,0
L,,221179,-0.442,2.579,-0.525,-323.3,-114.5,42.7,280,377,0
L,,221269,-0.451,1.553,-1.464,0.7,-128.5,-44.3,290,414,0
L,,221329,0.849,0.790,0.477,92.8,-59.0,-6.2,448,553,0
L,,221389,-0.195,1.252,-0.088,109.9,-65.8,-149.8,479,608,0
L,,221449,-0.003,0.968,-0.058,76.6,7.0,-41.8,476,618,0
L,,221513,0.083,1.026,0.082,45.2,26.8,-22.6,506,657,0
L,,221569,-0.144,1.003,0.105,24.0,-12.8,-13.1,518,686,0
L,,221629,-0.032,0.976,0.051,14.9,11.9,-0.7,274,726,0
L,,221689,-0.011,0.993,0.135,15.6,11.8,-2.0,302,723,0
L,,221750,-0.081,1.035,0.109,28.5,10.2,6.1,347,709,0
L,,221839,0.001,1.050,0.108,54.6,18.2,13.0,297,709,0
L,,221899,0.026,1.168,0.057,88.6,13.6,11.5,161,716,0
L,,221959,-0.002,1.202,-0.006,115.0,5.1,16.9,153,730,0
L,,222019,0.093,1.525,0.148,155.8,-15.0,15.8,176,728,0
L,,222080,-0.169,2.242,0.972,213.2,61.5,7.2,172,678,0
L,,222139,-0.115,0.024,0.143,151.6,11.0,28.6,129,286,0
L,,222199,-0.284,0.801,0.798,-62.2,-31.9,8.8,215,408,0
L,,222258,-0.059,-0.076,0.289,-124.5,-92.8,38.1,231,419,0
L,,222319,-0.514,0.571,0.289,-273.8,-108.8,54.2,239,426,0
L,,222409,-0.417,1.851,-0.149,-323.5,-14.3,22.7,229,399,0
L,,222469,-0.080,1.978,-0.610,-302.2,-162.8,-10.2,239,398,0
L,,222529,-0.666,1.786,-0.998,-133.9,-246.5,-38.7,244,412,0
L,,222589,0.622,1.664,-1.031,72.3,-120.8,-41.2,287,459,0
L,,222679,-0.268,1.158,-0.061,146.5,10.4,-143.5,461,604,0
L,,222769,-0.029,1.029,0.160,57.3,13.7,-44.4,495,632,0
L,,222830,0.130,1.038,0.091,34.9,-3.1,-34.4,524,666,0
L,,222889,-0.097,0.965,0.073,20.7,-7.0,-10.4,543,687,0
L,,222979,-0.035,1.028,0.110,5.0,3.8,1.1,545,699,0
L,,223040,-0.008,1.027,0.090,4.9,7.5,4.8,472,709,0
L,,223099,0.003,1.029,0.123,20.6,12.5,9.8,489,707,0
L,,223159,0.026,1.090,0.178,55.8,14.9,9.4,447,708,0
L,,223250,0.055,1.126,0.054,117.1,5.6,24.0,166,730,0
L,,223309,0.005,1.379,0.101,151.6,-3.2,26.1,175,729,0
L,,223370,-0.011,2.197,0.582,209.1,-23.1,9.7,171,704,0
L,,223429,-0.375,1.688,-0.209,203.0,94.2,4.0,168,619,0
L,,223519,-0.044,0.344,0.448,-50.0,-69.3,44.9,267,390,0
L,,223580,-0.340,0.271,0.306,-178.4,-130.4,56.7,282,388,0
L,,223639,-0.594,0.854,0.265,-279.7,-101.8,56.3,295,400,0
L,,223743,-0.721,2.123,-0.117,-329.4,-87.5,-5.6,266,344,0
L,,223790,-0.245,1.965,-0.670,-267.2,-131.8,-27.9,269,349,0
L,,223892,-0.028,1.395,-0.973,34.2,-161.0,-69.5,301,397,0
L,,223995,-0.207,1.360,-0.178,147.6,12.9,-117.3,453,595,0
L,,224005,0.275,1.320,-0.014,123.2,-65.0,-116.6,473,600,0
L,,224059,-0.424,0.966,0.003,65.3,-12.7,-38.7,486,621,0
L,,224120,0.020,0.917,0.238,44.5,2.9,-25.7,509,653,0
L,,224179,-0.030,0.987,0.109,25.1,-22.1,-26.1,523,672,0
L,,224239,-0.126,1.053,0.010,23.0,-6.5,-8.6,536,681,0
L,,224299,-0.073,1.003,0.088,15.0,1.2,0.8,548,701,0
L,,224402,-0.038,1.032,0.065,25.4,5.1,8.4,486,707,0
L,,224449,-0.051,1.054,0.062,33.8,10.7,19.4,450,708,0
L,,224509,0.072,1.126,0.110,65.9,6.4,16.7,296,723,0
L,,224613,-0.006,1.297,0.047,131.2,-6.2,31.7,172,733,0
L,,224637,0.124,1.497,0.089,146.0,-10.7,29.6,167,735,0
L,,224689,-0.116,1.903,0.603,199.2,1.4,21.4,168,706,0
L,,224750,-0.439,2.003,-0.020,201.7,103.0,23.9,167,633,0
L,,224809,0.353,0.144,-0.333,30.3,-181.8,72.1,231,428,0
L,,224870,-0.198,0.136,0.219,-115.2,-181.6,66.7,290,439,0
L,,224959,-0.703,0.858,0.269,-252.0,-103.8,84.1,295,444,0
L,,225019,-0.631,1.322,0.232,-317.9,-52.2,60.3,292,436,0
L,,225080,-0.285,2.162,-0.262,-302.3,-44.3,-9.0,284,399,0
L,,225182,-0.132,1.528,-1.390,-19.5,-134.1,-61.5,280,403,0
L,,225259,0.565,1.471,0.045,175.4,-24.0,-31.4,458,566,0
L,,225349,-0.199,0.756,0.000,39.7,-41.0,-75.4,485,643,0
L,,225410,-0.106,0.936,0.108,51.8,29.5,-14.2,505,655,0
L,,225469,0.058,0.981,0.049,18.9,-7.8,-7.2,518,671,0
L,,225529,-0.111,1.014,0.111,7.9,-6.7,-4.2,528,678,0
L,,225589,-0.080,1.099,0.248,13.0,3.1,-2.4,537,688,0
L,,225649,-0.081,1.035,0.178,30.7,11.0,2.2,536,699,0
L,,225709,-0.071,1.058,0.133,58.6,28.4,10.2,463,710,0
L,,225769,-0.054,1.077,0.114,98.3,24.6,17.9,392,710,0
L,,225859,-0.001,1.357,0.021,145.2,6.3,13.3,165,732,0
L,,225919,0.079,1.998,0.328,197.1,-14.9,5.8,150,729,0
L,,225979,-0.386,1.733,0.140,221.2,113.3,-15.4,168,681,0
L,,226040,-0.175,0.145,-0.226,113.4,-8.1,51.8,204,382,0
L,,226099,0.085,-0.148,0.107,-74.5,-7.2,50.2,226,420,0
L,,226160,-0.147,0.329,0.238,-203.1,-140.6,27.2,234,435,0
L,,226219,-0.293,0.825,0.328,-292.1,-117.6,44.1,241,438,0
L,,226279,-0.443,1.522,0.259,-346.8,-25.2,50.4,234,434,0
L,,226339,-0.290,2.476,-0.363,-322.9,50.5,2.1,231,422,0
L,,226399,-0.033,1.759,-1.552,-137.6,-76.2,-10.0,238,425,0
L,,226459,1.480,0.616,0.522,68.4,-55.7,72.7,434,535,0
L,,226562,-0.618,0.820,0.039,80.0,-88.8,-81.4,489,623,0
L,,226580,-0.499,0.893,0.030,86.0,-65.5,-33.8,497,634,0
L,,226639,0.062,0.929,0.076,58.5,40.1,-11.4,520,671,0
L,,226729,-0.252,0.972,0.154,26.3,-9.2,2.6,521,684,0
L,,226790,0.045,0.971,0.086,4.5,14.8,-5.2,529,688,0
L,,226849,-0.193,1.085,0.220,14.8,-1.1,1.8,531,693,0
L,,226910,-0.104,1.018,0.146,30.4,23.1,3.2,542,700,0
L,,226969,-0.085,1.112,0.243,59.9,38.7,11.9,446,704,0
L,,227029,-0.039,1.110,0.184,118.7,30.5,15.1,444,704,0
L,,227089,0.087,1.327,0.092,159.5,27.3,16.7,132,642,0
L,,227149,0.136,1.869,0.198,201.7,32.4,-7.2,167,721,0
L,,227209,-0.368,2.000,0.545,225.6,76.4,-55.0,155,606,0
L,,227312,0.223,0.282,0.797,-76.8,59.5,0.3,230,450,0
L,,227359,0.100,0.035,0.211,-126.2,-18.7,-8.2,239,453,0
L,,227419,0.055,0.502,0.253,-256.0,-53.9,-17.9,248,467,0
L,,227509,0.144,1.576,0.180,-367.8,-46.8,19.9,243,443,0
L,,227569,-0.142,2.686,-0.585,-331.0,-35.5,50.4,229,412,0
L,,227637,-0.242,1.606,-1.853,-46.4,-79.3,-23.5,239,431,0
L,,227689,0.594,0.508,1.486,41.6,-88.2,0.4,422,514,0
L,,227750,-0.527,1.261,0.018,213.6,-26.6,-153.0,477,601,0
L,,227809,-0.699,0.905,0.240,95.3,-36.1,-57.7,497,640,0
L,,227870,0.010,0.851,0.060,49.1,45.9,-11.0,519,675,0
L,,227929,0.010,0.918,0.049,20.5,-13.1,-13.2,522,694,0
L,,228019,-0.042,1.001,0.103,12.3,21.7,6.0,527,699,0
L,,228082,-0.303,0.832,0.171,20.3,-5.2,14.8,540,699,0
L,,228139,-0.086,1.017,0.111,26.8,20.0,4.2,385,719,0
L,,228200,-0.053,1.100,0.148,46.8,22.7,3.8,321,717,0
L,,228290,-0.065,1.164,0.092,116.8,27.0,17.2,290,711,0
L,,228349,-0.053,1.418,0.039,146.6,16.2,19.6,161,575,0
L,,228439,-0.143,2.128,0.720,216.3,-17.1,-34.0,177,665,0
L,,228530,-0.272,0.263,-0.001,98.7,58.9,24.9,197,440,0
L,,228589,0.180,0.077,0.381,-75.7,5.1,19.3,244,456,0
L,,228649,-0.003,0.392,0.232,-196.2,-66.2,2.6,285,454,0
L,,228709,-0.038,0.763,0.282,-294.4,-84.4,13.7,290,467,0
L,,228799,0.084,1.941,-0.148,-336.0,-87.5,45.9,283,425,0
L,,228859,-0.316,2.196,-0.974,-241.9,-130.0,-0.7,253,393,0
L,,228919,-0.526,1.489,-1.459,3.5,-93.3,-34.5,277,353,0
L,,228979,-0.308,1.896,0.235,138.9,-31.9,-85.1,454,558,0
L,,229040,0.910,1.079,0.343,84.9,-124.4,-97.7,451,596,0
L,,229099,-0.153,0.876,0.164,63.8,16.3,-30.6,481,642,0
L,,229160,0.021,1.011,0.077,37.5,13.2,-23.1,527,680,0
L,,229219,-0.140,0.968,0.105,21.4,-9.9,-5.5,542,697,0
L,,229280,-0.067,1.016,0.118,15.7,8.6,3.8,544,701,0
L,,229339,-0.030,0.991,0.108,15.8,5.4,4.9,519,706,0
L,,229399,-0.076,1.005,0.114,18.3,10.8,3.0,489,704,0
L,,229490,-0.041,1.085,0.175,50.6,18.0,15.4,462,710,0
L,,229580,-0.040,1.170,0.075,114.6,1.8,24.9,198,735,0
L,,229639,0.032,1.460,0.070,153.5,5.6,26.3,168,737,0
L,,229700,0.184,2.001,0.428,212.6,-36.7,8.7,171,663,0
L,,229759,-0.548,1.560,-0.012,208.8,88.2,15.4,192,656,0
L,,229849,-0.129,0.645,0.900,-52.9,-30.8,16.3,239,453,0
L,,229910,-0.209,0.434,0.435,-169.2,-119.8,46.2,249,459,0
L,,229969,-0.356,0.683,0.326,-279.5,-97.5,57.4,253,464,0
L,,230059,-0.255,1.803,-0.060,-330.3,-38.4,33.8,247,431,0
L,,230149,-0.592,1.879,-1.169,-167.0,-198.2,-8.7,239,400,0
L,,230209,-0.546,1.446,-1.155,47.3,-62.6,-54.8,263,419,0
L,,230299,0.400,1.524,-0.070,150.2,-51.6,-63.4,459,591,0
L,,230389,-0.094,0.686,0.092,34.3,4.1,-59.2,488,634,0
L,,230450,0.007,0.943,0.208,47.0,8.9,-16.5,515,663,0
L,,230540,-0.113,0.987,0.169,15.0,-4.4,-2.8,540,692,0
L,,230642,-0.079,1.008,0.125,26.6,3.7,0.3,477,716,0
L,,230660,-0.045,1.026,0.107,29.4,8.4,3.0,506,715,0
L,,230719,-0.021,1.023,0.087,38.9,20.5,11.2,490,714,0
L,,230780,0.020,1.083,0.153,66.9,16.8,14.5,383,724,0
L,,230839,0.034,1.164,0.075,106.1,11.4,20.0,200,735,0
L,,230900,0.096,1.308,0.032,140.7,7.9,23.5,179,664,0
L,,230959,0.064,2.018,0.420,194.9,-9.1,25.4,163,692,0
L,,231019,-0.340,1.847,0.182,221.2,130.6,12.9,178,667,0
L,,231079,-0.101,-0.311,-0.670,156.8,-82.0,119.8,244,397,0
L,,231139,0.038,0.150,0.244,-70.8,-115.5,50.8,276,419,0
L,,231200,-0.418,0.403,0.385,-206.0,-149.3,59.9,288,443,0
L,,231268,-0.403,0.924,0.256,-314.9,-101.9,60.9,288,440,0
L,,231320,-0.244,1.871,-0.110,-326.5,-82.7,46.9,271,409,0
L,,231379,-0.273,2.217,-0.975,-301.0,-206.8,11.9,267,392,0
L,,231439,-0.622,1.641,-1.509,-60.7,-136.6,-31.1,273,400,0
L,,231500,1.183,0.437,1.226,85.3,-53.9,17.2,438,532,0
L,,231559,-0.120,1.609,-0.906,133.2,-70.2,-116.9,465,597,0
L,,231620,-0.181,0.614,-0.016,42.7,-50.7,-69.1,494,635,0
L,,231709,0.081,1.022,0.081,19.3,-1.2,-8.4,521,670,0
L,,231769,-0.073,0.966,0.115,4.2,-5.7,1.0,533,683,0
L,,231830,0.124,1.021,0.171,11.9,20.9,5.6,532,683,0
L,,231889,-0.058,1.001,0.164,25.2,11.2,-1.8,478,706,0
L,,231950,-0.041,1.073,0.126,47.0,24.9,7.7,436,711,0
L,,232009,0.014,1.056,0.125,74.6,19.3,10.9,395,715,0
L,,232070,0.107,1.144,0.006,105.3,1.8,14.7,193,736,0
L,,232129,0.100,1.214,-0.054,134.3,4.6,17.0,174,669,0
L,,232190,0.163,1.851,0.329,182.7,-29.9,14.0,168,694,0
L,,232250,-0.055,1.804,0.210,216.3,73.5,6.1,183,679,0
L,,232309,-0.183,0.099,0.563,110.9,-16.9,64.3,266,390,0
L,,232370,0.018,0.097,0.362,-58.5,-35.7,42.2,316,409,0
L,,232459,-0.287,0.524,0.194,-238.7,-123.9,49.5,333,427,0
L,,232519,-0.407,1.047,0.270,-311.7,-88.4,58.5,331,429,0
L,,232580,-0.320,2.106,0.041,-345.2,-51.3,27.3,323,407,0
L,,232639,0.122,2.071,-1.090,-274.6,-94.9,-14.8,315,402,0
L,,232730,-0.274,1.685,-0.720,85.7,-47.2,-72.0,348,443,0
L,,232790,0.565,1.245,-0.117,232.6,-51.8,-45.2,476,593,0
L,,232849,-0.072,1.469,-0.049,100.6,-79.8,-105.3,469,622,0
L,,232909,-0.097,0.966,0.101,68.5,16.2,-12.5,514,660,0
L,,232969,0.035,0.927,0.044,31.0,4.2,-14.7,534,681,0
L,,233059,-0.160,0.981,0.132,13.6,-6.0,-2.4,527,702,0
L,,233120,-0.064,1.088,0.144,8.1,0.6,-9.3,520,711,0
L,,233209,-0.091,1.040,0.082,27.4,16.3,3.7,492,717,0
L,,233269,-0.027,1.101,0.106,51.2,18.9,9.6,482,711,0
L,,233330,-0.070,1.136,0.110,91.7,16.6,16.5,376,713,0
L,,233419,-0.018,1.440,0.025,145.8,13.7,10.8,169,739,0
L,,233480,0.013,1.991,0.431,208.8,-12.1,6.7,167,718,0
L,,233583,-0.196,0.099,0.386,123.9,44.3,-34.7,209,386,0
L,,233599,-0.200,0.768,-0.667,131.8,1.1,45.8,254,429,0
L,,233660,0.129,-0.052,0.175,-87.5,-98.7,29.1,275,457,0
L,,233719,-0.142,0.398,0.329,-219.1,-123.0,15.8,281,466,0
L,,233809,-0.202,1.190,0.256,-332.8,-43.4,48.5,284,478,0
L,,233870,0.058,2.290,-0.196,-345.7,-26.3,30.7,279,446,0
L,,233959,-0.438,1.523,-1.811,-74.9,-132.3,-12.0,292,426,0
L,,234020,1.007,0.286,2.117,72.9,-21.5,47.2,430,538,0
L,,234080,-0.234,1.195,-0.487,167.0,-41.5,-137.2,460,606,0
L,,234139,-0.543,0.706,-0.066,62.0,-64.4,-58.5,475,636,0
L,,234200,-0.141,0.959,0.146,60.4,35.2,-3.0,509,659,0
L,,234268,-0.038,0.935,0.054,20.7,-2.4,-5.5,523,679,0
L,,234320,-0.112,0.969,0.084,1.4,-6.3,3.3,519,687,0
L,,234410,-0.041,1.019,0.152,5.3,6.0,-1.2,522,690,0
L,,234469,-0.063,1.039,0.167,21.3,13.5,8.6,538,691,0
L,,234560,-0.029,1.078,0.228,72.4,29.1,13.5,305,724,0
L,,234620,-0.082,1.189,0.141,127.9,10.0,17.7,437,702,0
L,,234679,0.116,1.236,-0.103,160.9,9.6,22.6,171,734,0
L,,234744,0.260,1.898,0.213,202.4,-19.0,-8.8,175,721,0
L,,234846,-0.464,0.815,0.438,120.7,85.3,-88.1,150,376,0
L,,234860,-0.274,-0.391,0.400,112.2,64.0,44.2,233,409,0
L,,234919,0.091,0.101,0.266,-70.7,-16.3,20.2,300,445,0
L,,234980,-0.156,0.282,0.273,-201.8,-112.7,4.7,320,463,0
L,,235040,-0.210,0.744,0.162,-296.1,-87.9,27.0,325,467,0
L,,235099,-0.189,1.705,0.364,-345.8,-15.0,36.2,331,468,0
L,,235160,-0.111,2.577,-0.481,-327.9,11.4,30.8,298,407,0
L,,235219,-0.037,1.752,-1.640,-111.5,-102.8,-25.6,307,423,0
L,,235280,0.969,0.736,-0.342,109.2,-66.7,3.2,421,511,0
L,,235339,-0.583,1.516,-0.321,227.1,10.4,-141.3,472,597,0
L,,235443,-0.144,1.030,0.141,68.5,28.7,-3.4,513,659,0
L,,235459,-0.011,0.944,0.165,56.6,30.2,-2.4,521,667,0
L,,235520,-0.028,0.937,0.133,26.1,-12.9,-12.2,532,682,0
L,,235580,-0.143,0.967,0.099,19.3,0.9,8.8,542,693,0
L,,235639,0.025,1.001,0.079,8.4,-0.2,0.2,546,694,0
L,,235700,-0.052,1.017,0.119,17.2,-2.5,3.0,548,700,0
L,,235759,-0.071,1.006,0.070,25.1,11.6,4.8,441,721,0
L,,235820,-0.044,1.095,0.167,46.6,21.5,13.5,465,714,0
L,,235910,-0.131,1.189,0.086,107.3,19.4,16.8,283,722,0
L,,235969,-0.024,1.451,0.058,146.2,12.3,28.7,180,733,0
L,,236030,0.090,1.921,0.342,200.6,-16.8,5.1,199,721,0
L,,236089,-0.453,1.552,0.093,226.5,133.0,-4.6,190,653,0
L,,236150,-0.268,0.089,-0.731,151.1,-39.5,60.7,277,437,0
L,,236209,0.101,-0.093,0.209,-49.3,-26.6,22.3,326,458,0
L,,236270,-0.148,0.429,0.333,-204.0,-88.8,5.9,329,462,0
L,,236330,0.087,0.753,0.288,-308.2,-73.2,26.2,333,465,0
L,,236389,0.201,1.624,0.046,-349.1,-28.5,50.1,327,458,0
L,,236450,-0.184,2.440,-0.968,-337.6,-140.9,27.1,304,397,0
L,,236509,-0.782,1.699,-1.682,-50.4,-161.7,-22.8,316,417,0
L,,236570,0.916,0.817,1.823,62.0,-28.9,29.0,436,555,0
L,,236629,0.129,1.166,-0.302,149.3,-49.8,-120.2,474,616,0
L,,236719,-0.102,0.955,0.190,49.7,32.6,-28.0,514,681,0
L,,236780,0.013,1.026,0.033,25.8,-6.4,-18.4,550,704,0
L,,236839,-0.100,0.959,0.084,7.8,-11.9,-1.7,553,713,0
L,,236929,-0.016,0.975,0.120,6.5,1.3,8.6,507,726,0
L,,237020,0.010,1.029,0.156,31.9,20.0,13.6,473,724,0
L,,237080,-0.039,1.069,0.151,61.0,9.5,13.0,423,730,0
L,,237140,0.025,1.129,0.069,90.0,7.2,18.4,299,722,0
L,,237243,0.093,1.447,0.071,142.3,-7.5,28.9,179,739,0
L,,237259,0.135,1.570,0.106,161.0,-18.4,34.2,189,735,0
L,,237319,-0.199,1.953,0.826,207.4,27.7,17.9,196,687,0
L,,237379,-0.254,0.246,0.274,147.2,-9.5,12.3,156,403,0
L,,237440,-0.168,0.589,0.887,-38.6,-40.3,24.2,256,410,0
L,,237530,-0.307,0.462,0.316,-207.9,-137.7,50.4,271,438,0
L,,237589,-0.410,0.877,0.240,-290.5,-73.7,55.3,277,445,0
L,,237650,-0.403,1.687,0.059,-335.7,-24.7,41.7,272,427,0
L,,237718,0.040,2.114,-0.990,-292.4,-161.4,-27.7,260,393,0
L,,237770,-0.516,1.682,-1.422,-94.6,-239.3,-43.9,258,390,0
L,,237830,1.306,1.134,-0.427,105.4,-120.4,-20.7,412,499,0
L,,237890,-0.065,1.829,-0.032,163.5,-2.3,-108.3,471,592,0
L,,237950,-0.277,0.926,0.237,71.0,-78.1,-83.3,480,610,0
L,,238009,-0.029,0.942,0.094,52.0,23.8,-19.9,514,659,0
L,,238070,0.048,0.977,0.078,16.0,-8.6,-15.0,537,686,0
L,,238129,-0.145,0.991,0.129,11.4,2.3,1.6,550,703,0
L,,238190,0.018,1.005,0.154,12.4,4.2,1.6,558,705,0
L,,238250,-0.061,1.071,0.123,24.2,7.9,0.4,555,716,0
L,,238339,-0.019,1.017,0.095,35.6,23.5,11.5,511,713,0
L,,238400,0.033,1.084,0.132,65.5,19.6,16.1,451,697,0
L,,238459,0.111,1.170,0.032,109.2,5.5,14.7,197,686,0
L,,238563,0.141,1.813,0.254,177.8,-20.6,17.5,179,700,0
L,,238580,0.192,2.034,0.458,193.4,-25.0,13.7,180,689,0
L,,238640,-0.255,1.427,-0.399,205.8,54.3,21.9,196,661,0
L,,238700,-0.378,-0.152,-0.780,124.0,-67.2,45.6,288,411,0
L,,238759,0.020,0.101,0.227,-81.6,-114.0,80.8,317,427,0
L,,238820,-0.246,0.431,0.315,-200.4,-164.5,95.4,318,415,0
L,,238878,-0.902,0.992,0.407,-281.8,-125.5,74.6,305,392,0
L,,238940,-0.887,1.799,0.057,-323.6,-95.9,28.9,304,385,0
L,,239030,-0.309,1.981,-0.876,-226.2,-91.0,8.5,288,384,0
L,,239089,-0.012,1.516,-1.547,-42.4,-85.4,-56.2,294,392,0
L,,239150,1.329,1.267,1.773,44.2,-101.4,16.1,447,541,0
L,,239209,0.165,1.351,-0.035,117.9,-59.4,-121.1,479,605,0
L,,239270,-0.161,1.086,-0.035,70.5,-24.0,-45.0,500,635,0
L,,239330,0.047,1.016,0.017,52.6,19.6,-8.1,515,660,0
L,,239433,-0.173,1.024,0.119,11.9,-7.0,-0.2,535,682,0
L,,239450,0.004,0.961,0.061,7.0,-0.2,2.2,540,686,0
L,,239540,-0.170,1.040,0.132,23.7,4.9,10.9,381,720,0
L,,239629,-0.032,1.086,0.124,46.4,22.5,17.9,464,715,0
L,,239690,0.050,1.126,0.141,83.3,16.6,22.3,324,717,0
L,,239750,0.125,1.312,0.038,139.7,1.7,21.2,174,736,0
L,,239810,0.150,1.640,0.214,180.7,-15.8,26.1,183,736,0
L,,239870,-0.249,2.074,1.140,224.1,66.7,1.1,175,662,0
L,,239930,-0.305,-1.023,0.058,142.3,7.8,20.5,143,391,0
L,,239990,-0.108,0.732,0.842,-38.9,-11.9,10.7,289,423,0
L,,240049,-0.214,0.193,0.345,-156.7,-155.6,34.9,305,432,0
L,,240110,-0.418,0.553,0.297,-276.2,-119.9,49.3,311,436,0
L,,240169,-0.412,1.349,0.217,-335.6,-55.7,59.0,314,432,0
L,,240230,-0.268,2.483,-0.430,-347.4,-59.0,10.2,302,401,0
L,,240290,-0.283,1.894,-1.273,-164.7,-158.3,-10.7,281,396,0
L,,240350,-0.360,1.476,-0.985,50.8,-64.8,-67.3,314,420,0
L,,240410,0.376,1.790,-0.014,169.8,-77.0,-52.9,469,579,0
L,,240470,-0.077,1.285,-0.358,84.0,-104.4,-114.5,480,609,0
L,,240530,-0.197,1.082,0.140,64.0,15.2,-22.4,513,661,0
L,,240628,-0.139,0.954,0.103,22.8,-16.8,-7.9,548,699,0
L,,240680,-0.099,1.000,0.123,14.8,1.1,2.0,551,702,0
L,,240740,-0.017,1.001,0.152,14.4,4.4,-3.6,554,709,0
L,,240799,-0.045,0.981,0.089,31.5,8.9,2.8,475,728,0
L,,240860,-0.071,1.028,0.074,40.1,19.7,4.2,471,722,0
L,,240919,0.010,1.118,0.150,69.4,26.3,6.3,431,706,0
L,,241010,0.001,1.324,0.064,134.8,20.2,12.8,198,719,0
L,,241074,0.123,1.892,0.228,200.8,5.1,9.8,160,735,0
L,,241160,-0.362,1.618,-0.253,233.7,157.0,-7.2,171,639,0
L,,241220,-0.349,0.644,-0.520,87.7,-11.6,-11.3,254,428,0
L,,241280,0.081,-0.045,0.141,-112.4,-47.9,20.9,269,454,0
L,,241339,-0.050,0.279,0.221,-234.6,-105.9,12.0,267,452,0
L,,241400,-0.179,0.904,0.274,-339.9,-124.0,31.2,295,450,0
L,,241459,-0.057,2.000,0.077,-348.6,-38.9,43.4,305,431,0
L,,241520,-0.054,2.345,-1.004,-280.2,-6.9,34.7,293,417,0
L,,241580,-0.250,1.609,-1.832,-20.5,-57.9,-22.8,303,445,0
L,,241669,-0.067,1.703,0.073,213.0,-9.7,-93.3,449,589,0
L,,241760,-0.136,0.992,0.085,93.4,-0.7,-20.8,504,646,0
L,,241820,0.079,0.983,0.055,48.7,24.9,-10.5,527,676,0
L,,241879,-0.181,0.907,0.106,22.2,-5.5,-0.8,541,692,0
L,,241940,-0.075,0.976,0.118,6.7,5.4,2.2,543,694,0
L,,242000,-0.103,1.087,0.202,9.5,5.6,-11.1,542,700,0
L,,242060,-0.142,1.054,0.140,24.9,16.6,-0.8,411,723,0
L,,242120,-0.078,0.992,0.093,41.5,22.9,8.3,479,710,0
L,,242180,-0.033,1.066,0.147,75.1,25.1,8.1,348,680,0
L,,242240,-0.144,1.218,0.057,126.4,38.1,24.2,292,710,0
L,,242300,-0.017,1.580,0.080,159.0,16.9,8.4,161,624,0
L,,242360,-0.278,1.981,0.562,223.0,20.5,-23.7,157,594,0
L,,242419,-0.300,1.324,0.200,185.0,101.2,-52.0,166,555,0
L,,242480,0.234,0.238,0.532,-28.4,37.7,2.3,260,463,0
L,,242540,-0.005,0.087,0.343,-129.4,-53.6,-35.7,270,468,0
L,,242600,0.072,0.574,0.219,-246.5,-41.3,-34.7,278,485,0
L,,242660,0.146,1.136,0.236,-317.5,-50.9,0.2,285,497,0
L,,242720,0.033,2.000,0.142,-332.2,122.0,5.5,284,498,0
L,,242780,0.585,2.092,-0.986,-232.1,175.3,21.1,292,481,0
L,,242840,0.497,1.428,-1.562,-14.0,38.4,7.0,304,479,0
L,,242900,0.651,1.542,1.092,106.9,11.6,-22.9,473,586,0
L,,242959,-0.213,0.972,0.200,128.5,-54.4,-21.9,497,622,0
L,,243020,-0.369,0.999,0.161,68.9,18.9,10.9,511,655,0
L,,243080,-0.053,0.977,0.130,28.6,27.5,-9.8,522,667,0
L,,243169,-0.255,0.947,0.153,4.4,5.8,15.8,536,678,0
L,,243230,-0.022,0.979,0.177,-10.1,-2.8,-0.3,539,680,0
L,,243290,-0.270,0.970,0.217,5.6,7.2,8.5,544,684,0
L,,243350,-0.154,0.993,0.205,21.2,36.0,17.0,541,683,0
L,,243410,-0.189,0.998,0.275,56.0,44.1,23.1,528,689,0
L,,243500,-0.282,1.072,0.195,119.2,37.8,14.7,358,679,0
L,,243560,-0.325,1.498,0.171,174.2,30.6,4.2,167,685,0
L,,243620,-0.414,2.199,0.448,196.9,106.2,-59.8,157,616,0
L,,243680,-0.273,1.341,0.088,161.5,170.8,-97.0,132,419,0
L,,243740,0.533,0.239,0.338,35.9,280.9,-51.3,240,455,0
L,,243800,0.456,0.326,0.379,-117.9,39.8,-97.9,264,479,0
L,,243860,0.342,0.692,0.321,-238.4,3.2,-77.0,259,489,0
L,,243919,0.175,1.268,0.143,-297.7,72.3,-40.1,278,484,0
L,,244010,0.679,2.004,-0.283,-259.2,217.0,-19.2,269,487,0
L,,244079,0.810,1.573,-0.992,-111.2,84.0,13.5,295,502,0
L,,244130,0.518,1.229,-0.955,36.6,-11.5,11.5,279,494,0
L,,244233,0.017,1.760,0.021,101.2,-38.9,-2.1,484,602,0
L,,244280,-0.285,0.838,0.054,61.7,-18.2,-9.5,438,576,0
L,,244340,-0.290,0.955,0.154,54.6,34.3,12.6,517,653,0
L,,244400,-0.152,1.001,0.096,26.8,13.7,6.2,523,661,0
L,,244459,-0.228,0.931,0.092,7.0,7.6,16.1,532,669,0
L,,244550,-0.210,0.996,0.167,-6.7,1.4,7.2,541,675,0
L,,244640,-0.200,1.009,0.191,10.5,28.8,17.7,543,681,0
L,,244730,-0.163,1.059,0.175,62.3,31.8,20.3,545,685,0
L,,244790,-0.198,1.124,0.125,93.3,24.5,20.0,392,706,0
L,,244850,-0.358,1.397,0.063,79.9,44.1,-45.0,352,684,0
L,,244910,-0.137,1.673,0.084,156.3,36.7,-7.5,199,715,0
L,,245000,-0.456,1.654,0.291,179.3,141.4,-78.2,170,571,0
L,,245060,-0.020,0.244,0.325,104.4,203.8,-32.6,226,452,0
L,,245120,0.363,0.208,0.248,-94.5,7.4,-68.1,262,477,0
L,,245180,0.166,0.601,0.360,-219.7,-10.6,-73.1,287,490,0
L,,245240,0.196,1.081,0.212,-293.7,25.4,-48.7,289,498,0
L,,245300,0.033,1.779,0.122,-318.7,114.0,-23.2,289,494,0
L,,245360,0.996,2.032,-0.646,-235.4,213.5,4.4,284,484,0
L,,245420,0.641,1.636,-1.185,-74.2,8.0,-11.1,294,503,0
L,,245510,0.130,1.753,0.149,135.5,-33.6,3.3,475,617,0
L,,245600,-0.298,1.007,0.106,55.6,-10.9,-8.7,519,656,0
L,,245660,-0.088,0.973,0.108,25.6,18.2,4.7,527,671,0
L,,245720,-0.317,0.951,0.162,3.7,-13.4,1.8,516,675,0
L,,245780,-0.202,1.000,0.220,14.1,24.9,10.3,529,688,0
L,,245840,-0.186,1.008,0.220,41.4,39.8,23.4,529,695,0
L,,245900,-0.192,0.974,0.013,18.9,19.8,10.4,539,707,0
L,,245960,-0.244,1.029,0.162,16.8,27.7,10.7,387,720,0
L,,246050,-0.150,1.141,0.166,81.8,37.3,15.1,388,700,0
L,,246110,-0.141,1.074,-0.034,119.4,41.5,-9.7,164,721,0
L,,246170,-0.215,1.618,0.105,171.7,31.0,0.0,158,729,0
L,,246230,-0.868,2.017,1.122,212.7,108.1,-83.2,127,447,0
L,,246290,-0.157,0.875,0.496,146.8,218.6,-61.4,147,322,0
L,,246350,0.747,0.486,0.789,-41.5,118.0,-19.3,252,451,0
L,,246410,0.173,0.290,0.439,-183.5,-100.2,-65.8,308,454,0
L,,246470,0.055,0.681,0.362,-291.6,-61.1,-17.5,309,469,0
L,,246560,0.037,1.947,-0.042,-334.5,93.8,40.3,292,468,0
L,,246620,0.696,2.284,-1.422,-266.0,95.4,-26.1,277,453,0
L,,246710,1.015,0.698,2.750,-49.3,-111.0,44.9,437,560,0
L,,246770,0.708,1.355,-0.040,149.5,-155.2,-40.6,473,621,0
L,,246830,-0.126,0.846,0.070,84.3,8.5,-6.4,495,658,0
L,,246920,-0.120,0.991,0.071,16.1,0.2,-13.1,519,688,0
L,,246980,-0.329,0.945,0.221,20.2,9.5,12.8,548,691,0
L,,247040,-0.128,1.018,0.147,8.4,12.0,3.7,538,697,0
L,,247100,-0.080,0.954,0.141,26.7,8.6,8.0,487,714,0
L,,247168,-0.134,1.123,0.117,38.8,26.1,7.9,492,709,0
L,,247220,-0.174,1.074,0.110,57.3,31.9,6.7,287,716,0
L,,247280,-0.142,1.105,0.082,91.6,24.8,7.5,287,708,0
L,,247340,-0.021,1.252,-0.014,122.2,25.5,5.4,148,514,0
L,,247430,-0.157,1.818,0.453,202.7,13.7,-21.0,171,705,0
L,,247490,-0.290,1.549,0.087,213.2,180.1,-46.7,179,643,0
L,,247550,-0.501,0.537,-0.002,122.2,81.8,12.0,236,396,0
L,,247612,0.313,0.145,0.267,-83.2,28.9,-8.4,278,441,0
L,,247670,0.156,0.365,0.336,-214.0,-45.9,-15.6,286,441,0
L,,247760,0.271,1.117,0.324,-354.7,-51.3,18.6,301,460,0
L,,247850,-0.349,2.742,-0.999,-339.4,-56.7,44.5,258,427,0
L,,247954,0.814,1.580,-0.141,11.9,25.3,10.8,400,498,0
L,,247970,1.266,0.869,2.730,101.8,27.0,78.8,444,571,0
L,,248030,0.028,1.327,-0.330,120.1,-146.9,-135.5,471,622,0
L,,248090,-0.228,0.893,0.086,84.2,-0.9,-16.1,488,625,0
L,,248150,0.046,0.985,0.067,37.3,32.9,-17.9,510,664,0
L,,248210,-0.250,0.917,0.151,12.6,-19.9,-14.9,522,678,0
L,,248313,-0.070,0.981,0.176,8.8,7.6,-3.5,524,692,0
L,,248331,-0.084,0.904,0.188,11.7,3.5,4.3,524,689,0
L,,248390,-0.072,0.942,0.130,26.8,8.4,1.6,511,702,0
L,,248480,-0.140,1.096,0.220,74.7,38.8,7.4,410,710,0
L,,248570,-0.071,1.227,0.033,143.5,35.2,15.4,178,725,0
L,,248630,-0.017,1.684,0.147,189.9,27.9,7.2,175,726,0
L,,248690,-0.351,2.404,0.948,230.7,34.5,-51.0,172,598,0
L,,248780,-0.799,0.144,-0.083,121.6,108.7,-50.6,209,468,0
L,,248840,0.357,0.009,0.206,-96.3,39.4,-16.2,231,463,0
L,,248900,0.203,0.396,0.325,-237.0,-40.1,-35.4,252,484,0
L,,248960,0.182,0.912,0.363,-343.8,-73.7,-8.8,285,487,0
L,,249020,0.264,1.967,0.076,-376.0,-38.0,24.7,287,477,0
L,,249081,-0.176,2.730,-1.068,-294.8,23.0,8.1,268,431,0
L,,249140,-0.242,1.584,-1.875,17.7,-41.5,-15.4,306,449,0
L,,249200,-0.162,1.941,0.079,195.3,-45.4,-12.3,466,576,0
L,,249260,0.186,1.303,-0.126,108.8,-113.7,-87.3,478,619,0
L,,249320,-0.290,1.073,0.007,95.3,39.1,-9.9,488,654,0
L,,249380,-0.013,1.065,0.127,30.3,26.8,-20.0,512,679,0
L,,249440,-0.288,0.968,0.122,9.8,-10.7,-7.3,523,697,0
L,,249500,-0.068,1.020,0.152,4.1,22.6,6.0,522,695,0
L,,249560,0.026,1.061,0.129,13.9,7.7,-0.2,487,710,0
L,,249621,-0.021,0.978,0.070,21.9,-0.2,-1.6,529,710,0
L,,249680,-0.157,1.123,0.190,41.2,27.0,8.0,503,720,0
L,,249740,-0.065,1.173,0.235,91.2,33.1,4.4,324,727,0
L,,249800,-0.156,1.180,0.089,134.8,35.0,13.2,326,694,0
L,,249860,-0.014,1.608,0.044,164.0,33.8,-3.9,168,723,0
L,,249920,-0.217,1.983,0.577,224.7,21.7,-46.4,180,703,0
L,,249980,-0.290,1.321,0.098,191.2,169.2,-52.7,162,606,0
L,,250041,0.140,-0.016,0.109,37.3,114.1,9.2,239,452,0
L,,250130,0.175,0.380,0.294,-190.8,-28.4,-57.5,271,493,0
L,,250220,0.403,1.108,0.280,-341.8,-49.5,-10.6,326,497,0
L,,250280,0.255,1.957,-0.077,-337.8,68.6,22.6,321,493,0
L,,250340,0.380,2.224,-1.195,-248.5,107.5,-6.7,324,493,0
L,,250400,-0.108,1.481,-1.490,1.1,25.4,10.5,338,515,0
L,,250460,-0.128,1.399,0.657,88.2,73.5,-24.0,471,580,0
L,,250520,0.202,1.254,-0.061,124.9,-103.7,-42.2,480,630,0
L,,250581,-0.304,1.030,0.081,82.8,-10.2,0.4,511,651,0
L,,250649,-0.036,1.017,0.067,27.4,16.5,-12.6,520,664,0
L,,250700,-0.293,0.956,0.174,14.0,-8.5,-6.5,528,673,0
L,,250760,-0.145,0.967,0.108,0.0,3.8,3.8,536,683,0
L,,250820,-0.195,0.994,0.242,-3.2,12.2,6.3,546,695,0
L,,250880,-0.135,0.988,0.167,10.9,17.8,8.1,558,707,0
L,,250940,-0.124,1.031,0.188,28.3,29.4,9.3,559,715,0
L,,251000,-0.148,1.049,0.244,63.9,36.5,5.4,504,718,0
L,,251060,-0.196,1.091,0.149,98.1,29.1,7.7,458,704,0
L,,251121,-0.176,1.153,0.034,125.8,44.6,8.9,181,720,0
L,,251180,-0.127,1.708,0.150,161.2,40.3,-18.7,179,727,0
L,,251240,-0.721,1.882,0.851,201.6,93.0,-67.2,182,617,0
L,,251300,-0.101,0.770,-0.010,145.6,172.8,-64.9,175,502,0
L,,251360,0.645,0.142,0.889,-34.9,251.9,-36.4,287,433,0
L,,251420,0.450,0.387,0.321,-150.9,13.0,-81.2,302,459,0
L,,251480,0.210,0.699,0.392,-266.9,-17.6,-73.0,331,469,0
L,,251570,0.122,1.690,0.075,-319.3,123.4,-13.7,335,491,0
L,,251629,0.626,2.061,-0.665,-260.6,236.7,-11.0,313,492,0
L,,251690,0.472,1.465,-1.390,-65.8,44.5,3.0,321,500,0
L,,251750,-0.688,1.464,2.490,27.3,-42.2,-22.0,457,568,0
L,,251840,-0.470,0.837,0.162,76.4,-25.6,-8.2,493,650,0
L,,251900,-0.087,0.974,0.014,52.9,30.3,4.4,519,687,0
L,,251960,-0.190,0.976,0.086,15.4,2.7,-6.4,536,706,0
L,,252020,-0.272,0.986,0.126,5.2,2.8,8.2,564,709,0
L,,252081,-0.229,0.966,0.141,2.7,1.1,3.8,548,715,0
L,,252140,-0.238,1.017,0.183,9.5,15.8,5.2,544,717,0
L,,252230,-0.196,1.039,0.159,26.0,31.2,6.0,490,713,0
L,,252291,-0.173,1.049,0.148,55.7,42.8,7.2,471,704,0
L,,252350,-0.196,1.078,0.086,85.1,36.1,6.9,315,707,0
L,,252411,-0.103,1.286,0.000,104.7,42.2,0.8,164,615,0
L,,252470,-0.178,1.587,0.155,154.3,33.7,-8.0,155,731,0
L,,252530,-0.587,1.887,0.615,183.4,69.4,-70.9,165,682,0
L,,252590,-0.073,0.967,0.258,147.5,179.6,-72.5,135,347,0
L,,252650,0.308,0.059,0.554,-49.4,173.6,-45.9,284,414,0
L,,252741,0.367,0.451,0.248,-200.7,-38.5,-75.6,317,464,0
L,,252800,0.284,0.985,0.233,-295.8,-35.9,-38.9,320,472,0
L,,252904,0.325,2.157,-0.170,-304.9,136.2,13.3,306,484,0
L,,252951,0.544,1.933,-1.293,-223.5,123.8,0.3,306,477,0
L,,253010,0.027,1.758,-1.342,27.2,-41.1,-23.0,317,517,0
L,,253070,0.735,1.179,-0.085,139.5,-21.2,-3.2,440,593,0
L,,253130,-0.609,1.028,-0.391,140.8,-22.3,-30.8,489,618,0
L,,253190,-0.144,0.957,0.058,50.2,22.0,-2.7,512,657,0
L,,253293,-0.254,0.988,0.118,15.8,3.5,5.7,529,678,0
L,,253310,-0.150,0.987,0.084,12.6,-0.7,9.6,532,685,0
L,,253371,-0.171,0.982,0.118,3.5,14.1,19.0,548,700,0
L,,253430,-0.135,1.035,0.127,3.2,15.0,18.4,549,701,0
L,,253520,-0.122,0.988,0.090,18.3,13.3,13.0,538,713,0
L,,253588,-0.066,1.062,0.189,38.8,30.1,20.7,523,706,0
L,,253640,-0.040,1.089,0.204,80.4,12.8,9.4,463,693,0
L,,253701,-0.227,1.317,0.142,119.4,26.1,11.9,351,695,0
L,,253760,-0.088,1.514,0.079,175.0,12.4,19.1,158,726,0
L,,253820,-0.412,1.968,0.685,213.5,11.9,-38.8,164,675,0
L,,253880,-0.035,1.021,0.273,166.8,117.3,-27.7,165,540,0
L,,253940,0.180,0.291,0.479,-66.6,52.5,21.4,257,449,0
L,,254004,-0.056,0.263,0.226,-138.1,-92.9,-42.6,281,473,0
L,,254060,-0.078,0.588,0.272,-265.5,-105.4,-35.2,290,486,0
L,,254150,0.082,1.586,0.222,-325.8,31.2,8.3,315,500,0
L,,254241,0.429,1.993,-1.124,-212.8,2.5,-19.0,307,486,0
L,,254300,-0.102,1.661,-1.116,6.7,-86.8,-49.7,320,475,0
L,,254360,0.346,1.202,0.048,107.0,-66.9,-45.0,469,582,0
L,,254420,0.077,0.804,0.539,125.9,-113.0,-48.3,477,626,0
L,,254510,-0.090,1.009,0.132,69.4,41.7,5.8,510,673,0
L,,254571,-0.102,0.950,0.047,24.2,-2.5,-7.2,521,690,0
L,,254661,-0.122,0.961,0.086,16.5,21.6,16.3,545,696,0
L,,254720,-0.078,1.017,0.113,4.6,7.9,4.0,553,702,0
L,,254781,-0.138,1.009,0.104,12.6,15.3,13.0,551,698,0
L,,254840,-0.118,1.016,0.133,13.3,17.5,14.9,553,702,0
L,,254930,-0.042,1.043,0.242,78.2,21.1,19.3,515,707,0
L,,254991,-0.201,1.204,0.136,125.0,32.5,31.7,442,696,0
L,,255050,-0.088,1.634,0.245,139.9,3.8,19.2,187,729,0
L,,255110,-0.228,1.879,0.532,207.2,8.2,-9.3,175,674,0
L,,255201,-0.180,-0.284,-0.081,100.3,95.2,-12.5,229,386,0
L,,255260,0.042,0.315,0.506,-35.1,35.0,-32.4,310,466,0
L,,255321,-0.171,0.365,0.289,-181.5,-89.4,-57.5,330,493,0
L,,255411,0.070,1.076,0.263,-318.5,-49.3,-21.8,341,503,0
L,,255470,0.153,1.971,0.053,-327.3,31.2,-4.0,320,495,0
L,,255531,0.283,2.057,-1.151,-221.0,-5.7,-15.9,321,476,0
L,,255633,0.615,1.641,2.064,63.6,-59.2,26.8,443,569,0
L,,255650,0.335,1.065,-0.186,126.6,-53.9,-19.1,471,583,0
L,,255710,-0.004,0.857,0.376,111.4,-109.9,-51.3,471,618,0
L,,255770,-0.172,0.965,-0.043,91.2,11.7,6.0,493,652,0
L,,255831,0.032,1.031,0.069,29.1,17.1,-9.5,502,668,0
L,,255890,-0.193,0.969,0.150,5.6,-20.5,-9.3,509,677,0
L,,255951,-0.143,0.984,0.103,5.2,13.5,16.8,510,674,0
L,,256010,-0.141,1.053,0.212,1.6,14.2,-1.1,509,672,0
L,,256100,-0.124,0.988,0.089,17.7,17.0,11.5,514,677,0
L,,256161,-0.073,1.045,0.170,33.2,25.3,19.2,530,680,0
L,,256220,-0.017,1.086,0.171,84.4,20.4,22.7,516,686,0
L,,256281,-0.112,1.144,0.084,132.3,29.4,42.4,483,681,0
L,,256340,0.083,1.692,0.061,133.5,18.9,23.0,145,506,0
L,,256401,-0.352,1.700,0.531,208.0,29.5,-4.8,169,665,0
L,,256460,-0.214,1.034,0.244,167.3,107.1,-38.9,154,475,0
L,,256550,-0.108,0.146,0.268,-68.1,-35.3,-37.2,279,442,0
L,,256611,-0.073,0.414,0.299,-189.8,-43.8,-50.4,280,474,0
L,,256670,-0.017,0.908,0.149,-268.0,-3.7,-37.3,234,504,0
L,,256760,0.105,1.956,-0.006,-272.2,138.1,-45.7,295,488,0
L,,256821,0.914,1.596,-0.849,-159.6,129.4,-7.7,303,500,0
L,,256880,0.774,1.329,-0.959,-21.3,24.3,-2.9,311,526,0
L,,256940,-0.524,1.244,1.811,45.9,-33.6,-15.7,439,547,0
L,,257000,0.160,0.995,0.217,116.1,-67.2,-3.0,491,633,0
L,,257060,-0.243,0.867,0.034,48.3,-18.9,-4.6,440,674,0
L,,257159,-0.175,0.959,0.112,2.9,1.4,-2.6,532,676,0
L,,257210,-0.312,0.954,0.178,-0.7,-3.1,8.6,529,668,0
L,,257270,-0.128,0.990,0.207,-2.5,4.6,7.4,529,664,0
L,,257361,-0.204,0.980,0.186,7.9,9.6,8.2,534,672,0
L,,257451,-0.180,1.025,0.238,33.4,39.4,25.4,535,674,0
L,,257541,-0.119,1.083,0.177,81.6,31.0,24.9,544,689,0
L,,257600,-0.228,1.394,0.288,84.0,46.4,-45.7,509,685,0
L,,257661,-0.038,1.751,0.143,177.5,37.8,11.9,180,692,0
L,,257720,-0.438,1.789,0.555,215.9,98.3,-39.4,177,619,0
L,,257781,-0.377,0.635,0.202,124.8,112.9,-64.2,236,409,0
L,,257840,0.415,0.230,0.298,-53.0,75.1,-69.2,334,476,0
L,,257930,0.362,0.682,0.251,-203.0,10.9,-75.1,236,501,0
L,,257991,0.172,1.139,0.225,-277.9,31.9,-42.7,307,498,0
L,,258050,0.250,1.766,0.047,-275.3,159.9,-22.1,294,495,0
L,,258111,0.783,1.795,-0.905,-197.6,157.3,-7.5,327,509,0
L,,258170,0.486,1.478,-1.195,-10.7,-20.5,3.7,336,525,0
L,,258230,-0.633,1.091,1.105,39.4,-60.3,-39.3,430,544,0
L,,258321,-0.179,0.752,0.066,69.7,-7.5,-2.3,505,650,0
L,,258380,-0.294,1.011,0.107,40.1,10.5,2.2,525,665,0
L,,258441,-0.142,1.006,0.093,16.9,9.1,2.3,532,672,0
L,,258531,-0.300,0.976,0.173,0.2,2.7,10.5,553,696,0
L,,258590,-0.268,1.009,0.227,7.9,16.5,11.7,555,699,0
L,,258651,-0.168,0.995,0.122,17.2,9.6,9.8,563,707,0
L,,258710,-0.203,1.006,0.119,16.4,20.5,10.5,567,715,0
L,,258770,-0.142,1.058,0.239,45.5,38.2,14.3,489,725,0
L,,258831,-0.205,1.090,0.153,85.7,30.5,16.4,370,721,0
L,,258890,-0.132,0.984,-0.044,79.8,48.6,8.3,283,713,0
L,,258951,-0.090,1.619,0.097,154.9,24.5,6.4,182,608,0
L,,259010,-0.492,1.814,0.645,208.3,55.7,-45.6,156,605,0
L,,259071,-0.380,1.135,0.061,144.6,157.2,-65.3,185,563,0
L,,259130,0.207,0.007,0.521,-48.3,173.8,-18.7,301,432,0
L,,259191,0.201,0.345,0.274,-135.7,9.2,-63.0,326,464,0
L,,259250,0.043,0.652,0.296,-248.1,-43.4,-59.7,333,484,0
L,,259310,0.072,1.286,0.223,-311.9,5.5,-22.8,327,495,0
L,,259371,0.233,1.929,-0.234,-280.9,112.4,1.8,308,492,0
L,,259430,0.426,1.937,-1.257,-174.4,63.4,-25.9,319,509,0
L,,259491,0.111,1.757,-1.362,49.5,-59.9,-29.8,262,537,0
L,,259550,0.304,1.258,0.252,121.5,-18.4,-7.0,491,605,0
L,,259611,-0.392,0.899,-0.451,100.3,-32.2,-25.9,502,647,0
L,,259670,-0.149,0.964,0.113,47.4,11.9,1.9,515,677,0
L,,259731,-0.118,0.997,0.069,23.0,8.8,0.0,518,686,0
L,,259821,-0.178,0.976,0.080,16.1,9.8,13.4,532,700,0
L,,259880,-0.163,1.005,0.184,-5.3,16.1,13.7,538,704,0
L,,259941,-0.064,1.003,0.150,8.4,16.3,10.0,541,708,0
L,,260000,-0.141,1.019,0.132,16.8,16.1,11.8,550,717,0
L,,260060,-0.115,1.064,0.252,47.0,26.3,18.7,563,715,0
L,,260128,-0.140,1.101,0.179,101.6,8.5,12.6,516,707,0
L,,260180,-0.151,1.201,0.188,121.0,24.5,17.0,373,701,0
L,,260271,-0.156,2.022,0.514,220.4,52.3,-16.7,157,665,0
L,,260331,-0.697,1.554,0.260,190.2,192.9,-40.4,172,630,0
L,,260390,0.148,0.378,-0.801,50.6,100.8,-15.6,276,385,0
L,,260451,0.264,0.150,0.163,-103.6,-41.7,-46.7,328,445,0
L,,260510,0.017,0.471,0.281,-225.6,-95.8,-50.4,351,469,0
L,,260602,0.176,1.430,0.180,-310.5,24.2,13.3,355,483,0
L,,260661,0.197,2.243,-0.298,-286.3,72.8,3.2,333,486,0
L,,260720,0.169,1.817,-1.571,-105.1,-75.7,1.6,346,509,0
L,,260781,0.208,1.561,-1.410,90.5,-25.4,-18.3,391,531,0
L,,260840,-0.296,1.563,0.091,159.3,-25.5,-67.4,419,625,0
L,,260901,-0.471,0.594,0.116,71.1,-54.4,-26.6,430,644,0
L,,260960,-0.122,0.959,0.209,59.4,44.5,2.1,504,674,0
L,,261021,-0.155,0.984,0.061,22.1,4.4,-8.2,518,693,0
L,,261081,-0.278,0.963,0.106,9.1,7.9,14.7,531,706,0
L,,261140,-0.034,0.987,0.074,-13.0,2.1,2.3,527,703,0
L,,261201,-0.155,1.006,0.190,3.2,6.6,4.2,527,702,0
L,,261260,-0.140,0.994,0.110,19.8,12.5,4.3,533,705,0
L,,261321,-0.153,1.071,0.177,41.6,24.0,7.0,549,696,0
L,,261380,-0.204,1.080,0.210,88.2,34.8,15.1,511,711,0
L,,261441,-0.141,1.222,0.091,132.3,46.1,21.9,375,693,0
L,,261500,-0.061,1.652,0.080,162.6,27.5,1.1,182,729,0
L,,261561,-0.375,1.968,0.703,219.8,18.8,-39.2,165,612,0
L,,261621,-0.339,1.353,0.355,189.4,169.7,-38.7,181,546,0
L,,261680,-0.020,0.211,0.003,24.2,79.9,-17.0,293,417,0
L,,261771,-0.004,0.408,0.401,-215.6,-30.0,-46.4,326,467,0
L,,261831,0.201,0.893,0.342,-312.7,-46.1,-22.7,328,497,0
L,,261890,0.367,1.794,0.101,-368.7,-76.1,15.0,345,478,0
L,,261951,-0.381,2.601,-0.919,-307.8,-38.7,43.3,284,395,0
L,,262041,-0.167,1.797,-0.744,95.0,-62.3,-24.5,419,508,0
L,,262101,0.044,1.997,0.312,229.7,-35.0,-89.2,483,606,0
L,,262191,-0.334,0.900,0.167,75.5,-6.7,-19.8,488,667,0
L,,262250,-0.080,0.909,0.115,35.1,28.2,-6.9,505,685,0
L,,262311,-0.153,0.953,0.059,15.1,-7.8,3.4,518,694,0
L,,262371,-0.127,0.948,0.150,4.8,22.8,5.8,513,701,0
L,,262430,0.158,1.084,0.130,20.0,2.4,-0.1,542,699,0
L,,262491,-0.151,1.031,0.097,23.8,3.5,3.5,300,744,0
L,,262550,-0.136,1.071,0.177,36.3,23.5,9.1,472,718,0
L,,262611,-0.061,1.234,0.223,92.0,25.2,11.6,372,700,0
L,,262670,-0.203,1.268,0.104,141.6,33.1,24.9,225,658,0
L,,262731,-0.100,1.743,0.105,176.3,27.9,-4.1,162,729,0
L,,262791,-0.277,1.986,0.715,230.7,31.7,-37.5,174,659,0
L,,262851,-0.084,1.057,0.264,161.1,79.5,-40.6,157,458,0
L,,262941,0.238,-0.049,0.299,-102.6,20.0,-12.6,331,466,0
L,,263000,-0.005,0.372,0.226,-218.8,-75.0,-38.5,350,483,0
L,,263061,0.001,0.849,0.243,-322.9,-76.7,-16.9,353,489,0
L,,263121,0.018,1.817,0.027,-338.4,37.6,10.7,347,494,0
L,,263180,0.108,2.356,-0.697,-281.8,111.9,0.5,332,477,0
L,,263241,0.506,1.548,-1.514,-62.8,-1.7,-2.6,354,500,0
L,,263300,0.695,0.762,1.823,18.1,-38.7,39.9,434,541,0
L,,263361,0.133,1.243,-0.046,147.2,-45.2,-75.2,459,594,0
L,,263420,-0.449,0.927,0.000,82.5,-40.1,-16.8,492,651,0
L,,263481,-0.067,1.013,0.123,41.4,27.7,-5.7,466,685,0
L,,263579,-0.317,0.935,0.191,5.6,-9.5,2.5,511,695,0
L,,263630,-0.048,1.003,0.160,10.6,35.7,11.6,520,699,0
L,,263691,-0.220,0.961,0.210,20.7,3.7,4.7,477,712,0
L,,263750,-0.195,0.995,0.131,23.5,7.9,1.8,539,710,0
L,,263811,-0.187,1.059,0.214,33.7,27.8,0.2,544,719,0
L,,263871,-0.258,1.038,0.183,72.0,43.8,4.9,480,706,0
L,,263960,-0.141,1.054,0.016,115.6,50.4,12.0,190,722,0
L,,264021,-0.088,1.556,0.072,144.3,37.2,-7.7,175,730,0
L,,264081,-0.379,1.874,0.386,189.0,45.1,-52.2,176,649,0
L,,264141,-0.366,1.447,-0.022,175.2,158.4,-75.3,171,520,0
L,,264201,-0.655,0.244,-0.036,53.5,188.1,-39.2,293,422,0
L,,264260,0.664,0.197,0.208,-107.3,74.0,-55.0,300,423,0
L,,264351,0.129,0.796,0.418,-290.4,-20.7,-61.8,331,461,0
L,,264411,0.238,1.532,0.244,-349.5,71.9,-37.9,341,485,0
L,,264471,0.217,2.334,-0.224,-314.0,179.1,-11.6,336,489,0
L,,264531,1.374,1.615,-1.758,-136.6,126.1,-2.0,330,492,0
L,,264590,-0.070,1.767,-1.249,69.3,-109.1,-32.0,252,574,0
L,,264651,-0.493,1.890,0.385,124.3,-8.5,-32.1,497,618,0
L,,264710,-0.273,0.779,0.122,79.7,-10.5,-6.2,502,639,0
L,,264771,-0.225,0.933,0.062,54.7,18.5,4.6,520,669,0
L,,264831,-0.146,0.960,0.093,30.3,22.4,6.7,536,685,0
L,,264891,-0.216,0.969,0.069,5.6,5.2,11.4,543,695,0
L,,264951,-0.171,0.976,0.090,-10.9,8.2,10.3,544,693,0
L,,265010,-0.109,1.000,0.165,-8.4,6.4,8.8,541,689,0
L,,265071,-0.217,1.004,0.194,-3.5,12.8,10.1,548,692,0
L,,265130,-0.142,1.015,0.242,25.6,28.2,21.6,544,688,0
L,,265191,-0.102,1.077,0.210,71.1,31.0,19.3,544,688,0
L,,265281,-0.115,1.276,0.193,120.6,38.5,24.4,450,690,0
L,,265371,-0.220,1.982,0.203,198.4,66.8,-17.3,166,721,0
L,,265431,-0.412,1.723,0.423,190.1,86.7,-72.7,158,596,0
L,,265491,0.096,0.239,0.000,132.1,183.2,11.4,269,437,0
L,,265550,0.265,0.128,0.095,-91.1,-35.4,-54.1,319,454,0
L,,265611,0.086,0.402,0.218,-197.2,-46.9,-69.0,330,463,0
L,,265670,0.386,0.864,0.073,-251.6,17.7,-25.5,336,474,0
L,,265731,0.229,1.281,0.063,-283.7,102.6,0.0,336,488,0
L,,265791,0.297,2.077,-0.304,-291.2,71.7,-25.2,327,495,0
L,,265880,0.273,1.591,-1.062,-30.1,51.1,-6.4,321,502,0
L,,265940,-0.208,1.682,1.309,64.8,-11.2,-29.4,476,588,0
L,,266031,-0.528,0.747,0.157,72.4,-20.0,-8.7,513,648,0
L,,266090,-0.097,0.983,0.032,52.7,22.9,5.7,533,678,0
L,,266151,-0.194,0.933,0.113,8.5,-1.5,-4.9,537,686,0
L,,266210,-0.276,0.942,0.123,4.9,13.7,20.1,548,694,0
L,,266271,-0.142,0.980,0.148,-11.4,3.2,7.1,549,694,0
L,,266331,-0.243,1.038,0.191,7.1,14.0,12.8,553,696,0
L,,266391,-0.152,1.036,0.145,5.5,14.9,9.1,546,698,0
L,,266494,-0.130,1.106,0.213,70.9,30.1,14.8,482,715,0
L,,266519,-0.162,1.077,0.213,91.1,29.4,15.7,469,723,0
L,,266571,-0.282,1.186,0.090,120.4,46.9,24.2,443,690,0
L,,266630,0.180,1.385,-0.047,142.5,24.5,26.6,196,721,0
L,,266721,-0.437,1.835,0.646,206.0,32.8,-54.8,192,681,0
L,,266781,-0.156,0.916,0.197,156.1,131.1,-50.9,181,533,0
L,,266840,0.344,0.034,0.534,-71.2,93.3,0.0,270,387,0
L,,266931,0.135,0.477,0.267,-206.0,-37.1,-64.4,328,458,0
L,,266995,0.230,0.902,0.210,-298.9,-36.6,-38.0,303,440,0
L,,267051,0.127,1.638,0.097,-331.3,32.7,-4.8,297,438,0
L,,267111,0.098,2.312,-0.652,-284.5,90.7,26.2,318,488,0
L,,267170,0.284,1.654,-1.714,-63.1,-20.9,-19.3,319,492,0
L,,267231,0.073,1.204,2.634,5.7,-46.5,1.4,418,523,0
L,,267291,0.055,1.355,-0.301,123.9,-94.3,-62.0,489,616,0
L,,267351,-0.306,0.833,0.117,77.2,12.8,-11.9,515,656,0
L,,267411,-0.062,0.976,0.059,42.2,29.9,-1.8,536,681,0
L,,267471,-0.214,0.947,0.129,10.0,-9.9,-0.4,547,695,0
L,,267531,-0.204,0.975,0.117,-1.5,1.4,11.2,558,701,0
L,,267591,-0.192,0.967,0.232,-5.9,22.8,7.6,557,701,0
L,,267681,-0.092,1.043,0.183,26.2,30.2,18.2,538,710,0
L,,267741,-0.021,1.060,0.218,62.4,29.3,12.7,534,711,0
L,,267801,-0.187,1.091,0.157,116.4,17.4,18.3,353,717,0
L,,267861,-0.164,1.341,0.135,143.7,44.7,15.2,191,726,0
L,,267920,0.025,1.845,0.101,197.0,42.2,-2.0,157,728,0
L,,267981,-0.605,2.024,0.677,207.6,92.6,-48.3,175,652,0
L,,268041,-0.191,0.302,0.562,156.1,111.6,-41.5,221,369,0
L,,268130,0.277,0.150,0.239,-143.7,-27.8,-47.9,332,452,0
L,,268191,-0.015,0.565,0.326,-258.2,-66.7,-50.9,343,465,0
L,,268250,0.181,1.207,0.306,-356.8,-49.9,-28.2,339,470,0
L,,268311,0.068,2.159,-0.440,-322.2,38.2,33.2,294,423,0
L,,268371,0.097,2.095,-1.642,-173.3,23.3,-45.7,305,457,0
L,,268431,0.223,1.506,-0.931,94.6,-99.4,7.4,325,498,0
L,,268521,0.622,1.417,0.076,117.3,-145.2,-67.8,484,628,0
L,,268581,-0.231,0.842,0.115,66.3,3.5,-10.7,501,657,0
L,,268641,-0.068,0.994,0.101,28.0,20.6,-2.0,515,675,0
L,,268701,-0.158,0.952,0.120,0.0,-5.6,0.9,520,678,0
L,,268761,-0.215,0.994,0.190,-7.0,5.3,15.6,521,673,0
L,,268851,-0.152,0.995,0.215,3.7,-3.7,-3.0,521,668,0
L,,268911,-0.183,1.017,0.225,19.6,18.9,8.9,522,670,0
L,,269000,-0.113,1.093,0.232,88.2,26.2,10.7,528,677,0
L,,269061,-0.310,1.195,0.258,132.4,53.6,28.1,496,676,0
L,,269121,-0.171,1.323,-0.018,166.4,37.7,22.9,221,719,0
L,,269181,0.012,1.952,0.411,201.3,33.5,-28.9,209,720,0
L,,269241,-0.479,1.873,0.225,202.5,117.5,-63.0,199,635,0
L,,269301,-0.174,0.130,-0.162,109.6,125.0,-2.3,297,433,0
L,,269361,0.317,-0.016,0.361,-127.0,26.6,-37.7,319,443,0
L,,269421,0.174,0.506,0.396,-257.1,-25.4,-48.0,339,471,0
L,,269481,0.285,1.159,0.337,-354.3,-35.6,-21.7,343,481,0
L,,269541,0.190,2.246,-0.289,-328.7,60.3,23.3,332,482,0
L,,269600,0.059,1.891,-1.589,-175.5,134.4,3.5,348,510,0
L,,269661,0.033,1.472,-1.386,4.9,39.2,-20.4,276,568,0
L,,269721,-0.161,1.543,0.115,188.9,-28.5,-66.9,439,638,0
L,,269781,-0.659,0.585,-0.005,69.4,-44.3,-17.9,504,649,0
L,,269841,0.065,1.024,0.093,57.1,51.1,4.6,517,672,0
L,,269901,-0.186,0.905,0.099,9.8,-13.8,-14.6,513,683,0
L,,269969,-0.227,0.968,0.107,0.9,9.3,13.1,491,689,0
L,,270021,-0.010,1.001,0.169,-9.0,8.3,1.9,500,687,0
L,,270111,-0.142,0.983,0.173,12.3,12.8,6.3,519,695,0
L,,270171,-0.142,1.022,0.193,24.1,19.1,10.2,518,692,0
L,,270231,-0.162,1.034,0.285,66.7,31.8,13.9,535,682,0
L,,270321,-0.208,1.167,0.252,144.5,53.9,40.8,471,686,0
L,,270381,0.226,1.678,-0.143,186.5,50.7,16.3,181,722,0
L,,270441,-0.489,1.847,0.709,226.7,118.3,-64.2,177,494,0
L,,270500,-0.183,0.657,0.443,138.9,149.6,-82.3,180,431,0
L,,270591,0.303,0.181,0.442,-141.5,-3.2,-86.0,336,456,0
L,,270651,0.214,0.640,0.373,-262.7,7.7,-77.4,352,489,0
L,,270711,0.582,1.376,0.207,-330.1,14.2,-21.9,361,500,0
L,,270771,0.219,2.095,-0.194,-299.6,113.8,-2.5,270,499,0
L,,270831,0.687,1.809,-1.456,-165.6,62.5,6.7,331,471,0
L,,270921,-0.297,1.730,1.441,88.0,6.7,-24.5,475,586,0
L,,270981,-0.247,1.099,-0.026,134.9,-45.1,-37.4,502,639,0
L,,271041,-0.217,0.920,0.127,50.7,-14.1,4.6,509,672,0
L,,271101,-0.043,0.884,0.133,10.9,25.1,-7.9,535,684,0
L,,271161,-0.315,0.963,0.183,0.4,-16.1,3.2,544,694,0
L,,271221,-0.176,1.005,0.216,4.8,24.1,11.2,550,695,0
L,,271281,-0.171,1.018,0.240,20.5,23.3,12.8,552,700,0
L,,271341,-0.164,1.001,0.135,26.1,27.4,12.6,542,705,0
L,,271401,-0.122,1.020,0.162,36.4,38.5,11.8,540,705,0
L,,271461,-0.142,1.040,0.198,73.2,38.4,10.5,525,704,0
L,,271521,-0.334,1.192,0.220,109.9,31.5,8.2,476,707,0
L,,271581,0.079,1.349,-0.098,135.1,37.6,14.7,170,723,0
L,,271641,-0.229,1.875,0.257,186.3,58.8,-22.6,186,665,0
L,,271702,-0.566,1.763,0.409,185.5,129.2,-83.4,203,642,0
L,,271761,-0.202,0.395,0.324,107.2,149.3,-54.6,213,382,0
L,,271821,0.428,0.246,0.495,-99.2,129.0,-59.8,274,434,0
L,,271911,0.240,0.648,0.248,-247.3,-59.9,-73.6,298,469,0
L,,271971,0.067,1.105,0.267,-317.6,-32.4,-41.2,306,485,0
L,,272031,0.235,1.842,0.020,-310.7,132.3,5.1,298,480,0
L,,272091,0.548,2.046,-0.868,-231.0,101.7,-2.3,268,470,0
L,,272151,0.334,1.382,-1.350,0.7,-73.2,-11.6,285,506,0
L,,272211,0.468,1.233,0.473,124.4,6.9,-16.6,473,588,0
L,,272271,0.208,0.852,0.256,130.8,-58.5,-19.3,368,573,0
L,,272331,-0.301,0.939,0.077,64.4,-7.2,-3.0,442,673,0
L,,272391,-0.109,0.966,0.082,37.8,28.8,0.4,523,686,0
L,,272451,-0.211,0.939,0.097,12.2,-0.2,3.6,536,690,0
L,,272511,-0.241,0.965,0.122,2.3,10.7,9.7,545,692,0
L,,272601,-0.245,0.995,0.179,10.3,11.1,9.5,547,695,0
L,,272661,-0.127,0.988,0.142,19.6,24.4,8.8,544,700,0
L,,272720,-0.190,1.062,0.210,44.3,38.3,12.2,536,702,0
L,,272781,-0.199,1.127,0.183,89.7,31.9,10.1,409,707,0
L,,272841,-0.101,1.035,0.110,125.4,39.7,20.6,283,710,0
L,,272910,-0.105,1.651,0.113,172.4,30.3,3.2,183,734,0
L,,272961,-0.408,1.980,0.718,218.1,35.4,-53.0,204,696,0
L,,273051,-0.162,-0.512,0.738,82.5,101.0,-30.4,232,363,0
L,,273111,0.330,0.312,0.515,-77.8,74.3,-39.3,307,422,0
L,,273171,0.242,0.394,0.391,-207.4,-15.8,-46.8,306,415,0
L,,273231,0.417,0.877,0.386,-322.8,-38.6,-28.7,327,457,0
L,,273291,0.349,1.817,0.073,-380.4,-47.3,7.7,318,459,0
L,,273355,-0.298,2.558,-1.174,-300.0,40.7,19.5,288,425,0
L,,273411,-0.314,1.697,-1.818,-19.1,-23.5,-7.6,318,462,0
L,,273501,-0.165,1.493,0.255,231.2,-10.1,-98.9,418,637,0
L,,273561,-0.723,0.663,0.250,68.2,-55.1,-25.8,493,643,0
L,,273621,0.014,1.008,0.081,57.0,43.1,-8.6,516,673,0
L,,273681,-0.149,0.927,0.119,21.9,-5.1,-5.9,533,690,0
L,,273741,-0.170,0.978,0.062,12.5,10.3,11.6,540,701,0
L,,273801,0.043,1.028,0.062,-6.1,8.0,-1.4,533,701,0
L,,273861,-0.108,1.005,0.159,9.3,6.2,4.7,548,702,0
L,,273921,-0.134,1.018,0.143,23.9,21.9,9.3,542,710,0
L,,273981,-0.086,1.100,0.262,61.3,28.0,10.6,456,693,0
L,,274041,-0.118,1.143,0.138,107.5,15.7,12.6,450,708,0
L,,274101,0.059,1.334,0.048,139.3,35.2,22.7,174,724,0
L,,274161,0.004,1.717,0.112,180.9,16.0,10.1,174,725,0
L,,274221,-0.554,2.001,0.758,224.1,72.8,-24.5,186,649,0
L,,274281,-0.252,1.462,0.503,136.4,100.6,-167.0,135,415,0
L,,274341,0.126,0.646,0.802,-79.5,96.2,-21.6,298,427,0
L,,274401,0.179,0.288,0.344,-167.4,-37.8,-44.5,327,459,0
L,,274461,0.241,0.589,0.342,-278.6,-54.8,-38.8,344,483,0
L,,274521,0.170,1.326,0.258,-363.6,-15.7,-10.0,348,488,0
L,,274582,0.324,2.521,-0.208,-339.1,49.0,7.9,325,483,0
L,,274641,0.449,1.956,-1.551,-176.6,-56.0,4.2,325,492,0
L,,274701,-1.386,1.834,-1.152,73.5,34.0,-35.4,421,529,0
L,,274761,0.005,2.093,-0.048,236.6,39.0,-64.7,496,620,0
L,,274821,-0.573,0.745,-0.071,74.8,-116.5,-53.9,478,620,0
L,,274881,-0.182,1.032,0.081,66.6,45.2,3.2,509,657,0
L,,274941,-0.050,0.991,0.078,11.2,11.8,-18.2,528,680,0
L,,275001,-0.318,0.955,0.172,6.7,-18.9,1.2,535,682,0
L,,275061,-0.007,1.016,0.159,10.6,46.4,6.6,548,694,0
L,,275122,-0.097,1.109,0.264,29.1,6.8,6.4,540,694,0
L,,275211,-0.151,1.053,0.146,35.8,23.5,7.5,533,706,0
L,,275271,-0.124,1.121,0.196,67.4,28.4,5.0,538,692,0
L,,275332,-0.229,1.103,0.154,117.1,32.5,19.1,345,675,0
L,,275391,-0.157,1.388,0.023,150.5,50.0,12.5,193,712,0
L,,275481,-0.473,1.951,0.791,234.7,51.1,-43.2,180,672,0
L,,275541,-0.275,1.027,0.308,158.2,152.8,-67.9,146,436,0
L,,275631,0.510,0.014,0.149,-76.6,76.2,-46.1,321,446,0
L,,275691,0.298,0.400,0.325,-215.5,-34.7,-79.5,331,463,0
L,,275751,0.442,0.989,0.323,-316.7,-35.9,-49.0,341,489,0
L,,275811,0.329,1.691,0.130,-361.7,26.9,0.5,321,485,0
L,,275872,0.203,2.442,-0.588,-303.5,177.0,39.2,336,495,0
L,,275931,0.404,1.718,-1.711,-71.5,69.7,18.4,343,494,0
L,,275991,0.481,0.799,2.931,-10.5,141.2,60.9,464,575,0
L,,276051,0.088,1.172,-0.198,130.6,-79.4,-31.7,501,632,0
L,,276111,-0.374,0.871,0.201,76.7,-8.4,-6.8,512,651,0
L,,276171,-0.104,0.987,0.107,44.2,32.2,0.9,538,680,0
L,,276231,-0.242,0.949,0.107,10.9,-7.4,-5.3,545,688,0
L,,276330,-0.151,0.940,0.150,10.3,14.5,3.7,532,695,0
L,,276412,-0.165,0.971,0.156,18.4,25.2,2.8,558,696,0
L,,276471,-0.203,1.027,0.174,20.0,16.7,1.8,560,701,0
L,,276531,-0.208,1.055,0.210,42.6,41.7,6.7,555,702,0
L,,276591,-0.153,1.022,0.096,63.5,47.7,7.9,492,708,0
L,,276681,-0.248,1.159,0.054,106.2,37.1,6.0,238,704,0
L,,276741,-0.181,1.535,0.105,146.8,41.6,-4.2,208,723,0
L,,276801,-0.528,1.891,0.485,195.5,82.8,-63.4,169,554,0
L,,276891,-0.124,0.564,0.409,120.6,189.2,-79.2,168,394,0
L,,276952,0.584,0.575,0.593,-57.7,99.8,-55.6,301,443,0
L,,277041,0.097,0.547,0.244,-235.2,-54.7,-52.2,327,463,0
L,,277101,0.291,0.977,0.142,-289.7,18.1,-27.0,315,474,0
L,,277162,0.300,1.491,0.098,-307.7,122.9,-3.0,318,470,0
L,,277221,0.630,2.123,-0.669,-282.8,109.6,-11.6,291,475,0
L,,277281,0.040,1.750,-1.318,-75.1,-5.3,1.6,297,491,0
L,,277341,-0.584,1.897,2.255,5.3,26.6,-6.7,482,596,0
L,,277401,0.033,0.666,0.382,139.5,-15.8,-13.9,478,632,0
L,,277461,-0.307,1.022,0.057,69.5,4.7,7.0,511,677,0
L,,277521,-0.068,0.968,0.028,50.5,13.8,-2.1,529,696,0
L,,277582,-0.225,0.971,0.083,20.0,7.9,8.3,544,710,0
L,,277641,-0.179,0.957,0.023,4.0,11.8,19.1,550,716,0
L,,277702,-0.132,1.003,0.085,-13.3,-7.4,2.1,488,721,0
L,,277761,-0.200,0.973,0.142,-2.6,17.9,11.4,552,717,0
L,,277821,-0.142,1.008,0.190,11.9,21.5,10.9,546,713,0
L,,277881,-0.138,1.097,0.239,69.9,44.1,15.5,525,706,0
L,,277941,-0.219,1.144,0.193,96.4,14.9,6.0,437,713,0
L,,278001,-0.192,1.207,0.168,125.3,44.7,8.2,173,720,0
L,,278061,-0.034,1.741,0.087,192.1,33.5,3.3,179,726,0
L,,278122,-0.660,1.901,0.742,199.6,78.0,-60.9,181,653,0
L,,278211,-0.143,0.620,-0.218,172.3,213.4,-12.3,209,328,0
L,,278271,0.650,0.135,0.275,-108.7,16.3,-56.4,303,439,0
L,,278332,0.267,0.553,0.398,-241.2,-60.8,-74.4,317,465,0
L,,278391,0.095,1.029,0.433,-335.7,21.2,-43.3,324,474,0
L,,278481,0.441,2.487,-0.546,-309.3,109.9,-13.6,322,470,0
L,,278571,-0.055,1.711,-1.569,24.1,-87.8,-25.1,286,515,0
L,,278631,0.450,1.358,-0.078,155.4,-14.4,-22.3,492,608,0
L,,278691,-0.727,0.948,-0.042,100.5,-31.5,-42.4,499,635,0
L,,278751,-0.198,1.048,0.151,64.4,18.6,-8.6,515,662,0
L,,278854,-0.243,0.933,0.134,11.4,-7.8,-4.0,533,683,0
L,,278872,-0.260,0.954,0.124,9.9,-5.6,3.7,537,687,0
L,,278961,-0.137,1.006,0.166,-3.6,16.1,4.8,546,694,0
L,,279021,-0.213,0.995,0.171,16.1,15.4,10.7,553,694,0
L,,279082,-0.143,1.014,0.155,23.3,17.2,2.5,536,700,0
L,,279141,-0.183,1.069,0.194,53.5,33.9,6.8,533,706,0
L,,279202,-0.183,1.099,0.181,95.8,36.1,10.2,404,652,0
L,,279261,-0.185,1.133,0.076,123.8,51.8,15.8,319,697,0
L,,279330,-0.178,1.731,0.147,153.8,27.5,-5.9,204,721,0
L,,279381,-0.417,1.785,0.563,202.4,41.5,-51.1,181,689,0
L,,279441,-0.262,1.234,-0.036,176.5,210.2,-55.1,200,596,0
L,,279500,0.052,0.122,-0.219,71.8,157.4,-8.1,249,375,0
L,,279561,0.431,0.191,0.201,-108.7,29.4,-56.8,285,434,0
L,,279622,0.223,0.533,0.316,-228.9,-39.4,-74.0,306,462,0
L,,279681,0.315,1.105,0.327,-318.2,-31.9,-42.0,310,454,0
L,,279744,0.393,1.867,0.176,-322.9,70.1,-0.6,316,472,0
L,,279801,0.519,2.015,-1.016,-268.3,109.7,4.9,268,461,0
L,,279861,0.154,1.578,-1.628,-37.0,-49.0,0.0,308,477,0
L,,279921,0.027,1.134,2.126,18.6,-40.6,34.0,460,571,0
L,,279981,-0.040,1.106,0.000,134.6,-53.7,-62.3,500,629,0
L,,280041,-0.286,0.981,-0.003,91.1,10.2,-10.2,519,660,0
L,,280101,-0.088,0.981,0.029,48.5,41.8,-0.6,534,685,0
L,,280162,-0.190,0.915,0.113,15.7,-5.6,-0.7,544,693,0
L,,280221,-0.236,0.950,0.124,3.0,11.4,13.5,552,700,0
L,,280282,-0.079,1.011,0.161,-7.7,17.9,11.3,552,701,0
L,,280341,-0.200,1.021,0.159,6.8,12.9,9.2,555,704,0
L,,280401,-0.049,1.034,0.154,21.9,19.2,10.3,544,708,0
L,,280461,-0.128,1.051,0.229,62.1,27.1,14.3,546,717,0
L,,280521,-0.132,1.091,0.181,106.4,15.4,14.2,518,709,0
L,,280582,-0.129,1.195,0.076,142.6,18.3,23.5,315,704,0
L,,280641,-0.132,1.787,0.039,175.2,18.4,3.4,160,721,0
L,,280702,-0.345,1.972,0.742,219.1,17.3,-55.3,201,663,0
L,,280761,-0.360,1.416,0.528,164.5,143.0,-115.2,188,487,0
L,,280851,0.243,0.097,0.253,-109.4,2.1,-23.2,343,474,0
L,,280941,0.236,0.640,0.349,-272.6,-28.3,-23.0,355,483,0
L,,281001,0.237,1.277,0.301,-354.7,-89.5,6.3,360,481,0
L,,281061,0.127,2.301,-0.407,-346.5,-79.5,32.5,315,459,0
L,,281122,-0.520,1.951,-1.443,-141.8,-129.1,2.9,303,439,0
L,,281181,-0.232,1.579,-1.085,93.5,-59.5,-26.9,420,523,0
L,,281242,0.371,1.958,0.272,180.8,6.7,-46.2,489,610,0
L,,281301,-0.037,1.173,-0.671,76.2,-71.4,-95.6,417,635,0
L,,281391,0.064,0.903,0.076,45.6,27.7,-8.8,454,682,0
L,,281495,-0.149,1.037,0.165,6.3,0.7,1.6,517,697,0
L,,281511,-0.206,1.021,0.185,7.2,12.9,8.4,505,697,0
L,,281572,-0.098,0.981,0.255,20.3,15.5,12.3,525,700,0
L,,281662,-0.148,1.019,0.118,32.5,8.2,6.1,420,722,0
L,,281721,-0.049,1.067,0.159,45.3,21.9,12.0,429,703,0
L,,281825,-0.076,1.162,0.081,118.1,15.5,19.5,217,717,0
L,,281872,0.051,1.321,-0.008,140.8,3.0,24.4,174,698,0
L,,281931,0.011,1.977,0.298,194.6,-12.5,3.7,185,702,0
L,,281992,-0.231,1.593,0.150,208.1,105.7,-0.4,190,654,0
L,,282082,0.027,0.402,0.530,-32.5,-8.5,50.6,231,409,0
L,,282141,-0.060,0.262,0.330,-138.3,-103.6,44.0,247,458,0
L,,282202,-0.271,0.615,0.124,-235.0,-150.3,39.6,259,451,0
L,,282261,-0.719,1.153,0.220,-277.2,-102.1,64.6,256,448,0
L,,282351,-0.329,2.056,-0.640,-291.1,-114.0,-20.9,273,411,0
L,,282412,-0.415,1.726,-0.778,-152.3,-224.9,-26.6,280,412,0
L,,282471,-0.109,1.721,-0.731,4.4,-169.8,-75.1,302,429,0
L,,282532,0.084,1.077,0.321,77.6,-108.7,-61.6,454,560,0
L,,282591,-0.415,1.206,0.019,80.2,-53.0,-145.6,472,615,0
L,,282652,0.037,0.969,-0.111,71.0,22.2,-26.6,478,615,0
L,,282711,0.097,1.070,0.130,42.0,12.2,-31.2,507,655,0
L,,282780,-0.166,1.001,0.099,22.8,-30.2,-12.3,528,677,0
L,,282832,-0.014,0.986,0.095,14.7,-10.2,-0.3,533,684,0
L,,282891,-0.047,0.986,0.140,21.7,-5.6,1.8,360,708,0
L,,282952,-0.094,0.996,0.114,35.1,8.3,9.1,378,697,0
L,,283011,0.011,1.016,0.045,38.7,3.0,17.0,443,690,0
L,,283072,0.032,1.044,0.034,46.2,6.6,18.6,379,698,0
L,,283131,0.073,1.097,0.035,76.4,5.3,24.6,202,728,0
L,,283192,0.033,1.185,-0.020,104.6,2.5,36.1,172,720,0
L,,283251,0.259,1.378,-0.005,134.6,-25.4,43.7,178,715,0
L,,283311,-0.049,1.911,0.689,175.7,7.9,46.9,175,685,0
L,,283372,-0.372,1.113,0.159,134.8,-14.4,-3.4,170,530,0
L,,283431,-0.153,0.831,0.784,-76.1,-207.8,22.2,264,400,0
L,,283492,-0.469,0.343,0.359,-145.5,-180.3,60.7,315,446,0
L,,283551,-0.564,0.727,0.037,-211.8,-64.3,76.5,318,450,0
L,,283612,-0.516,1.197,-0.136,-257.5,-49.6,55.3,313,436,0
L,,283671,-0.477,1.586,-0.279,-284.9,-169.8,-26.7,311,442,0
L,,283732,-0.301,1.681,-0.325,-231.0,-229.6,-22.7,303,438,0
L,,283791,-0.549,1.437,-0.583,-128.6,-152.3,-43.7,288,416,0
L,,283851,-0.031,1.262,-0.770,5.0,-108.1,-52.5,310,435,0
L,,283911,1.003,0.767,0.067,86.1,-115.1,5.1,394,474,0
L,,283971,-0.083,1.356,0.065,131.4,-37.8,-77.0,451,563,0
L,,284032,-0.103,0.870,0.038,79.3,-31.0,-79.1,477,611,0
L,,284091,-0.092,0.993,0.085,40.7,12.7,-26.7,497,635,0
L,,284152,0.022,0.974,0.061,25.2,-11.2,-20.7,519,658,0
L,,284211,-0.090,1.011,0.039,14.7,-10.7,-7.7,536,681,0
L,,284271,-0.072,1.000,0.056,6.7,-10.7,-0.7,534,681,0
L,,284332,-0.022,1.030,0.099,11.4,1.4,0.5,337,725,0
L,,284391,-0.035,1.037,0.080,27.8,12.7,5.5,463,687,0
L,,284452,-0.060,1.027,0.041,37.7,18.3,11.3,438,686,0
L,,284511,0.018,1.081,0.076,61.1,19.6,14.9,356,692,0
L,,284572,0.019,1.188,0.027,93.4,10.4,18.1,177,604,0
L,,284631,-0.016,1.330,0.011,119.9,-4.1,28.8,163,703,0
L,,284692,0.075,1.824,0.345,175.5,-14.6,27.7,183,676,0
L,,284751,-0.155,1.647,0.061,201.6,72.8,18.0,191,676,0
L,,284811,0.255,-0.643,-0.018,123.9,-1.1,72.1,231,319,0
L,,284872,-0.054,0.383,0.347,-70.4,-119.4,57.6,245,424,0
L,,284931,-0.338,0.419,0.244,-190.3,-178.4,49.0,275,446,0
L,,284992,-0.262,0.821,0.237,-253.5,-94.4,62.5,277,445,0
L,,285051,-0.377,1.474,0.176,-313.5,-47.1,66.9,275,444,0
L,,285112,-0.270,2.118,-0.447,-307.9,-101.0,-10.6,267,412,0
L,,285171,-0.456,1.712,-1.117,-136.2,-137.7,8.8,294,351,0
L,,285261,1.033,0.661,0.072,108.4,-84.7,-16.3,418,505,0
L,,285322,-0.041,1.562,0.178,164.5,-58.8,-83.9,470,598,0
L,,285381,-0.301,0.950,0.367,63.4,-55.5,-69.4,479,635,0
L,,285442,0.041,1.008,0.272,60.6,30.1,-26.8,504,666,0
L,,285501,-0.067,0.915,0.052,29.6,-9.2,-9.5,527,693,0
L,,285570,-0.080,1.002,0.087,15.7,4.3,-4.6,547,701,0
L,,285622,-0.051,1.011,0.093,7.7,-0.4,-0.2,485,707,0
L,,285681,-0.064,1.042,0.107,14.7,5.3,1.0,456,708,0
L,,285741,-0.114,1.023,0.097,25.5,15.1,3.8,371,717,0
L,,285801,-0.023,1.075,0.113,42.0,24.0,11.2,385,715,0
L,,285862,-0.023,1.119,0.087,77.0,17.3,11.6,273,654,0
L,,285921,-0.027,1.250,0.011,104.1,9.3,11.2,176,687,0
L,,285985,0.040,1.323,0.014,130.1,6.0,24.9,186,730,0
L,,286041,-0.005,1.780,0.407,184.9,-10.8,12.0,175,668,0
L,,286101,-0.243,1.516,-0.032,214.8,109.7,12.6,180,663,0
L,,286162,-0.357,0.605,-0.383,131.3,-26.1,29.1,243,415,0
L,,286221,0.143,0.084,0.147,-82.8,-71.5,30.1,261,448,0
L,,286282,-0.296,0.405,0.315,-207.4,-119.4,35.2,260,449,0
L,,286341,-0.099,0.701,0.189,-283.4,-61.5,48.1,256,470,0
L,,286402,-0.187,1.624,0.164,-332.7,-21.1,28.7,253,460,0
L,,286492,-0.392,2.087,-1.151,-219.8,-190.9,-4.4,254,400,0
L,,286551,-0.502,1.665,-1.256,13.9,-69.0,-50.0,265,439,0
L,,286612,-0.158,1.706,0.293,133.9,-102.8,-56.9,470,582,0
L,,286671,-0.150,1.170,-0.578,105.0,-68.6,-115.7,454,595,0
L,,286732,-0.024,1.006,0.119,52.9,-6.5,-35.4,511,650,0
L,,286791,-0.122,0.956,0.088,30.8,-0.7,-20.3,521,662,0
L,,286852,-0.106,1.011,0.145,16.0,-0.4,-9.2,536,685,0
L,,286912,-0.071,1.022,0.094,2.3,-1.3,-0.8,443,704,0
L,,286971,-0.046,1.059,0.126,6.4,5.8,-11.2,409,704,0
L,,287031,-0.081,1.009,0.136,27.0,15.2,-0.3,355,715,0
L,,287091,-0.045,1.070,0.156,52.7,29.6,7.2,383,711,0
L,,287152,-0.039,1.134,0.112,87.7,24.7,10.8,306,599,0
L,,287211,0.031,1.203,-0.013,116.9,12.8,17.0,181,724,0
L,,287272,0.017,1.406,0.040,142.3,12.8,24.5,178,722,0
L,,287332,-0.027,1.844,0.477,187.8,-28.2,-13.5,186,686,0
L,,287391,-0.135,1.659,-0.211,205.7,94.9,-4.8,181,661,0
L,,287452,-0.184,-0.560,-0.861,128.2,48.6,47.6,271,403,0
L,,287511,0.023,0.114,-0.088,-73.9,-40.3,24.8,312,437,0
L,,287572,-0.047,0.348,0.189,-220.7,-136.7,10.2,329,452,0
L,,287631,-0.161,0.774,0.233,-303.5,-116.9,33.3,332,463,0
L,,287692,-0.155,1.545,0.250,-342.5,-29.1,51.3,335,469,0
L,,287751,-0.226,2.480,-0.509,-321.6,36.8,11.6,305,421,0
L,,287812,-0.312,1.626,-1.714,-98.9,-80.5,-8.1,315,450,0
L,,287872,1.048,0.581,0.260,104.9,-41.7,0.3,412,509,0
L,,287931,-0.145,1.594,0.066,168.6,-18.5,-111.2,467,602,0
L,,287992,-0.647,1.004,-0.009,96.3,-91.9,-62.6,481,616,0
L,,288095,0.090,1.015,0.027,20.5,9.7,-20.0,529,673,0
L,,288112,-0.046,0.916,0.073,13.4,-10.9,-17.0,529,679,0
L,,288171,-0.179,0.994,0.161,10.6,-5.8,5.5,535,685,0
L,,288232,-0.042,1.082,0.177,12.5,26.1,-5.1,538,691,0
L,,288322,-0.123,0.997,0.159,33.3,25.4,4.6,385,722,0
L,,288381,-0.119,1.045,0.163,51.5,34.3,6.9,340,715,0
L,,288471,-0.095,1.138,0.078,111.7,25.5,10.1,324,698,0
L,,288562,0.020,1.524,0.097,166.1,22.6,27.4,175,701,0
L,,288622,-0.112,1.959,0.573,206.3,1.3,-23.2,154,527,0
L,,288682,-0.275,1.451,0.167,208.6,160.3,-24.7,139,396,0
L,,288742,-0.091,-0.193,-0.460,74.7,7.7,18.2,216,431,0
L,,288801,0.150,0.158,0.129,-126.7,-42.9,-9.7,229,439,0
L,,288861,-0.125,0.488,0.250,-237.7,-101.6,-9.1,255,461,0
L,,288930,-0.315,0.942,0.267,-357.5,-70.7,21.9,247,481,0
L,,289011,0.033,3.057,-0.340,-366.2,-46.5,32.3,232,415,0
L,,289072,-0.439,1.781,-1.622,-149.1,-133.8,-43.1,235,414,0
L,,289131,1.017,1.092,-0.106,101.0,-86.3,15.0,432,529,0
L,,289192,-0.295,1.913,-0.029,192.6,-14.7,-111.2,467,609,0
L,,289251,-0.612,0.741,0.215,71.8,-89.1,-69.3,486,616,0
L,,289341,0.074,1.062,0.031,42.9,10.7,-11.0,525,667,0
L,,289432,-0.127,1.026,0.105,19.6,5.6,1.2,545,694,0
L,,289522,-0.044,0.990,0.135,18.6,7.1,4.2,430,711,0
L,,289612,-0.108,1.037,0.085,24.2,15.2,6.7,464,704,0
L,,289671,-0.035,1.087,0.130,42.0,29.8,14.7,439,706,0
L,,289732,-0.022,1.154,0.136,92.3,20.7,18.6,341,642,0
L,,289791,0.025,1.271,0.000,119.4,7.6,25.2,179,722,0
L,,289852,0.170,1.521,0.086,161.2,9.5,30.0,190,713,0
L,,289912,-0.202,2.088,0.758,213.5,18.5,-4.3,191,667,0
L,,289972,-0.381,1.450,0.291,170.2,80.2,-37.1,122,209,0
L,,290032,0.148,0.414,0.514,-61.2,-56.9,20.5,265,403,0
L,,290091,0.079,0.161,0.165,-113.6,-83.6,9.1,288,425,0
L,,290151,-0.319,0.537,0.248,-255.0,-134.2,32.4,289,432,0
L,,290242,-0.186,1.426,0.146,-335.7,-50.8,70.2,299,439,0
L,,290301,-0.386,2.727,-0.509,-328.7,-73.8,15.5,272,383,0
L,,290362,-0.555,1.705,-1.538,-107.7,-160.4,-26.5,275,391,0
L,,290452,0.531,1.510,0.373,87.3,-85.7,-63.3,461,565,0
L,,290541,-0.473,1.166,-0.129,86.7,-81.1,-83.7,457,602,0
L,,290602,-0.104,0.991,0.043,55.9,34.5,-22.6,483,632,0
L,,290662,-0.014,1.028,0.049,29.1,-13.4,-17.9,518,663,0
L,,290722,-0.076,1.059,0.112,19.0,3.2,-7.6,527,676,0
L,,290782,0.016,1.050,0.081,14.2,6.0,3.5,492,695,0
L,,290841,-0.021,1.003,0.036,20.1,10.8,2.7,346,714,0
L,,290902,-0.067,1.056,0.097,24.5,6.3,1.1,353,717,0
L,,290992,0.034,1.067,0.074,45.9,16.1,14.4,397,676,0
L,,291082,-0.051,1.168,0.005,90.0,8.1,24.3,186,718,0
L,,291185,0.206,1.453,0.115,136.7,-22.1,30.3,200,730,0
L,,291202,0.161,1.639,0.203,151.9,-28.4,25.4,211,725,0
L,,291291,-0.515,1.578,-0.025,190.8,115.5,3.4,210,633,0
L,,291381,-0.032,0.760,0.718,-55.3,-80.3,5.0,280,446,0
L,,291442,-0.193,0.491,0.386,-159.2,-159.6,32.0,299,461,0
L,,291501,-0.292,0.607,0.198,-258.4,-120.8,45.9,309,476,0
L,,291562,-0.364,1.268,0.088,-300.1,-29.5,54.7,308,474,0
L,,291652,0.168,2.017,-0.693,-302.2,-200.6,-26.9,291,407,0
L,,291711,-0.554,1.518,-1.034,-100.8,-224.7,-8.4,287,381,0
L,,291815,0.108,1.356,0.626,91.9,-33.5,-34.3,450,554,0
L,,291892,-0.043,1.358,-0.467,102.4,-92.1,-105.9,474,616,0
L,,291952,-0.210,0.930,0.209,49.7,-1.5,-30.6,497,649,0
L,,292055,-0.054,0.981,0.065,8.1,-11.3,-8.9,534,693,0
L,,292072,-0.077,0.983,0.110,2.9,-14.9,-8.8,539,696,0
L,,292170,0.013,0.995,0.148,6.3,-0.4,-1.6,538,700,0
L,,292222,-0.043,0.946,0.139,9.7,2.3,0.2,499,710,0
L,,292312,-0.044,1.041,0.158,27.3,22.8,11.6,487,713,0
L,,292372,0.018,1.084,0.202,69.2,20.7,12.1,466,709,0
L,,292475,0.065,1.196,0.030,128.1,7.9,31.7,182,722,0
L,,292492,0.037,1.288,0.018,128.8,-5.8,30.9,201,724,0
L,,292552,0.262,1.686,0.127,167.5,-17.1,25.1,180,721,0
L,,292614,-0.170,1.735,0.496,205.4,34.7,18.0,190,655,0
L,,292671,-0.259,0.575,0.354,122.2,37.0,-34.5,158,388,0
L,,292732,-0.163,0.639,0.605,-43.5,-42.7,15.4,300,429,0
L,,292791,-0.302,0.351,0.342,-163.9,-146.5,32.3,304,463,0
L,,292852,-0.447,0.724,0.216,-252.7,-60.8,41.7,317,447,0
L,,292942,-0.463,1.732,0.017,-333.8,-47.7,11.1,303,422,0
L,,293001,-0.105,2.270,-0.627,-275.8,-148.4,-32.2,301,404,0
L,,293062,-0.365,1.649,-1.158,-113.4,-189.0,-32.1,298,392,0
L,,293122,0.484,1.676,-1.146,104.3,-86.0,-35.9,272,493,0
L,,293225,0.275,1.214,0.035,95.3,-85.6,-122.5,478,605,0
L,,293242,0.009,1.168,-0.047,107.0,-71.2,-88.6,480,609,0
L,,293302,-0.130,1.024,0.098,50.1,0.4,-32.3,495,646,0
L,,293362,0.018,0.997,0.097,36.7,10.5,-16.1,511,665,0
L,,293452,-0.179,1.019,0.091,14.0,-5.7,-0.6,521,679,0
L,,293512,-0.014,1.004,0.121,7.0,0.2,0.3,526,682,0
L,,293572,-0.054,1.013,0.124,15.1,2.1,1.1,530,689,0
L,,293632,-0.077,1.035,0.167,26.8,19.3,11.7,505,707,0
L,,293692,-0.010,1.078,0.185,60.9,31.5,21.7,481,703,0
L,,293751,0.043,1.125,0.066,103.9,5.6,23.1,418,684,0
L,,293811,-0.016,1.343,0.043,117.6,-1.1,24.7,197,731,0
L,,293872,0.180,1.624,0.148,161.0,-18.8,25.6,192,718,0
L,,293961,-0.382,1.609,-0.052,203.1,65.3,5.8,191,637,0
L,,294022,0.179,0.041,-0.783,122.0,-50.5,36.5,263,447,0
L,,294082,-0.131,0.023,0.056,-83.8,-114.2,40.1,278,453,0
L,,294185,-0.270,0.831,0.097,-248.9,-78.8,27.3,312,464,0
L,,294232,-0.441,1.117,0.019,-278.2,-55.3,40.3,328,469,0
L,,294291,-0.394,1.908,0.043,-319.6,-11.4,-8.5,312,461,0
L,,294352,0.305,2.163,-1.092,-225.4,-20.0,-19.0,323,458,0
L,,294412,-0.068,1.557,-1.423,-53.9,-63.4,-56.1,324,476,0
L,,294472,0.682,1.895,1.350,95.5,-73.4,5.9,468,577,0
L,,294562,-0.719,0.941,-0.136,87.0,-77.9,-75.3,476,617,0
L,,294622,-0.075,0.988,0.161,80.3,44.8,1.1,515,662,0
L,,294682,0.046,0.881,0.055,30.8,5.6,-24.5,539,687,0
L,,294742,-0.193,1.009,0.105,26.5,0.4,7.8,554,700,0
L,,294802,-0.004,1.014,0.075,5.0,3.6,-2.1,539,696,0
L,,294862,-0.087,1.004,0.123,15.2,8.8,1.9,511,706,0
L,,294922,-0.074,0.993,0.083,19.7,8.3,4.2,466,707,0
L,,294982,-0.066,1.074,0.132,36.8,24.5,12.4,403,602,0
L,,295041,-0.059,1.097,0.192,90.2,26.8,19.0,390,655,0
L,,295132,-0.074,1.373,0.032,139.0,17.0,21.4,193,726,0
L,,295192,0.146,1.631,0.136,189.4,0.2,15.3,182,723,0
L,,295251,-0.347,1.758,0.475,211.9,102.6,-35.0,167,608,0
L,,295342,0.089,0.279,-0.319,27.6,-0.9,26.4,272,457,0
L,,295402,0.137,0.202,0.279,-140.4,-105.7,-13.1,308,469,0
L,,295461,-0.262,0.471,0.158,-242.4,-87.4,-7.9,310,475,0
L,,295522,0.023,1.246,0.261,-304.5,-28.0,5.8,326,489,0
L,,295612,0.032,2.371,-0.531,-320.9,35.7,5.1,314,467,0
L,,295723,-0.160,1.825,-1.075,74.2,-84.8,-58.5,316,517,0
L,,295733,0.045,1.502,-1.410,116.7,-115.2,-50.6,315,532,0
L,,295822,-0.064,1.000,-0.135,117.2,-66.0,-89.8,475,622,0
L,,295882,-0.376,0.868,0.037,86.8,-0.9,-15.1,491,649,0
L,,295942,0.010,1.022,0.051,49.8,32.7,-8.9,503,670,0
L,,296032,-0.256,0.923,0.171,10.0,-5.1,6.5,529,686,0
L,,296092,0.053,1.071,0.107,4.7,25.8,8.4,535,690,0
L,,296182,-0.101,1.029,0.162,34.7,7.1,6.3,527,699,0
L,,296242,-0.109,1.040,0.092,43.9,23.5,8.8,411,723,0
L,,296302,-0.059,1.101,0.169,78.1,30.9,15.9,425,680,0
L,,296392,0.029,1.360,0.030,138.6,16.5,19.9,181,721,0
L,,296452,-0.081,1.928,0.288,199.8,15.0,11.9,195,726,0
L,,296541,-0.206,1.480,0.041,210.9,148.3,-14.3,166,554,0
L,,296602,0.310,0.040,-0.279,57.3,2.8,27.2,251,444,0
L,,296662,-0.011,0.124,0.238,-126.2,-60.9,-2.1,285,455,0
L,,296722,-0.165,0.537,0.302,-250.2,-76.2,3.4,295,464,0
L,,296782,0.118,1.065,0.281,-351.1,-93.9,15.6,304,463,0
L,,296842,0.136,2.155,-0.097,-359.6,-34.0,31.9,282,431,0
L,,296902,-0.178,2.472,-1.246,-285.5,-166.0,-37.3,271,389,0
L,,296992,0.962,0.288,0.673,75.6,-53.2,16.4,436,550,0
L,,297052,0.041,2.152,0.021,193.3,18.3,-97.5,470,601,0
L,,297112,-0.310,0.873,-0.004,86.6,-92.5,-75.1,459,595,0
L,,297172,-0.123,0.920,0.119,56.0,17.0,-14.3,490,639,0
L,,297232,-0.012,0.936,0.099,22.1,12.5,-6.9,513,669,0
L,,297292,-0.014,1.013,0.182,13.1,-4.4,-1.4,522,675,0
L,,297352,0.035,1.035,0.111,21.9,8.3,4.4,525,677,0
L,,297412,-0.061,1.010,0.119,25.2,6.5,3.7,520,676,0
L,,297502,-0.048,1.057,0.140,28.3,21.3,14.8,329,675,0
L,,297562,0.036,1.100,0.199,75.4,20.0,0.5,418,664,0
L,,297622,-0.040,1.144,0.055,115.2,3.4,24.2,325,714,0
L,,297682,0.116,1.263,0.073,140.2,3.0,28.7,190,730,0
L,,297742,0.308,1.900,0.269,191.3,-40.8,12.1,177,701,0
L,,297802,-0.370,1.555,0.013,200.7,53.1,15.7,198,666,0
L,,297892,-0.164,0.843,1.022,-52.0,-64.5,6.7,270,448,0
L,,297952,-0.247,0.266,0.366,-143.6,-94.1,37.5,310,446,0
L,,298042,-0.284,0.820,0.237,-280.4,-119.6,48.7,323,459,0
L,,298132,-0.498,2.140,-0.079,-341.1,-54.7,34.9,298,401,0
L,,298192,-0.123,2.209,-1.225,-231.2,-68.5,-10.9,279,383,0
L,,298252,-0.494,1.568,-1.564,7.3,-125.0,-57.6,284,388,0
L,,298312,0.655,1.227,0.441,91.7,-133.0,-27.3,430,534,0
L,,298372,-0.222,1.084,-0.275,98.6,-27.3,-134.1,455,601,0
L,,298432,-0.133,1.074,-0.013,66.2,9.3,-30.6,486,628,0
L,,298492,0.060,1.044,0.168,40.5,-0.6,-30.1,514,667,0
L,,298552,-0.126,0.966,0.155,33.4,-17.2,-3.2,538,693,0
L,,298655,-0.002,0.995,0.154,17.1,-1.1,2.7,409,719,0
L,,298702,-0.052,1.030,0.136,23.8,16.8,7.2,406,723,0
L,,298770,0.018,1.025,0.114,42.4,6.0,14.6,426,724,0
L,,298822,0.027,1.110,0.112,65.1,4.9,16.5,345,715,0
L,,298912,0.122,1.180,-0.011,109.6,0.2,21.5,166,522,0
L,,298972,0.104,1.433,0.082,145.1,-7.8,31.8,191,715,0
L,,299062,-0.335,1.633,0.473,208.9,73.9,19.8,207,692,0
L,,299122,0.111,0.142,-0.011,113.6,-10.0,71.5,227,384,0
L,,299212,-0.235,0.125,0.280,-132.5,-167.5,32.5,312,457,0
L,,299276,-0.363,0.645,0.184,-237.3,-84.0,44.1,294,475,0
L,,299333,-0.040,1.061,-0.033,-275.1,-90.4,64.2,320,468,0
L,,299422,-0.130,2.272,-0.508,-330.2,-151.3,-10.9,294,402,0
L,,299482,-0.692,1.789,-1.148,-140.2,-206.2,2.5,288,394,0
L,,299542,-0.413,1.494,-1.168,69.7,-105.2,-65.6,303,413,0
L,,299602,0.526,1.519,0.269,137.9,-31.0,-36.5,459,569,0
L,,299662,0.532,1.123,-0.050,84.8,-94.0,-91.2,460,607,0
L,,299722,-0.152,0.929,0.046,49.6,-14.7,-53.5,496,652,0
L,,299782,0.000,0.989,0.027,40.3,4.8,-24.5,521,685,0
L,,299842,-0.018,1.006,-0.010,20.4,-9.9,-10.3,550,702,0
L,,299902,-0.026,1.003,0.007,2.2,-8.9,-6.6,553,708,0
L,,299962,-0.076,0.998,0.078,-2.1,-2.0,-0.3,333,740,0
L,,300022,-0.035,1.032,0.102,12.9,13.7,5.0,473,711,0
L,,300125,-0.057,1.054,0.096,46.6,24.7,10.5,455,695,0
L,,300172,-0.021,1.113,0.066,77.8,20.7,12.6,378,699,0
L,,300232,0.019,1.272,-0.011,112.8,8.8,16.1,186,710,0
L,,300292,0.056,1.616,0.175,160.7,-0.3,20.5,174,660,0
L,,300352,-0.123,1.978,0.677,211.8,9.2,0.7,190,675,0
L,,300412,-0.252,1.016,0.159,156.5,43.5,1.6,111,467,0
L,,300472,0.232,0.360,0.886,-44.5,-40.6,37.8,303,433,0
L,,300532,-0.065,0.196,0.330,-138.6,-111.1,26.9,313,457,0
L,,300592,-0.284,0.583,0.260,-260.8,-127.4,36.1,325,469,0
L,,300652,-0.305,1.062,0.233,-311.4,-86.4,57.8,331,476,0
L,,300712,-0.346,2.130,-0.160,-329.1,-53.6,37.1,302,422,0
L,,300772,-0.159,2.144,-1.193,-227.2,-161.0,-11.7,295,406,0
L,,300833,-0.528,1.462,-1.449,17.0,-94.2,-40.1,302,422,0
L,,300892,0.239,1.019,0.437,101.5,-54.1,-36.6,461,566,0
L,,300952,0.200,1.245,-0.166,83.7,-87.2,-112.9,452,604,0
L,,301012,-0.196,0.973,0.050,64.6,23.3,-19.3,454,610,0
L,,301102,0.088,0.933,0.075,14.7,-22.6,-26.7,487,653,0
L,,301192,-0.053,0.994,0.130,11.7,8.4,-2.3,507,673,0
L,,301252,-0.130,1.016,0.141,14.4,-10.2,-10.3,513,680,0
L,,301312,-0.014,1.033,0.097,20.6,9.5,-5.3,531,693,0
L,,301373,-0.108,1.016,0.137,24.5,12.0,1.5,461,705,0
L,,301432,-0.047,1.050,0.194,51.8,33.7,11.3,362,715,0
L,,301492,-0.010,1.137,0.135,104.2,16.8,14.2,403,662,0
L,,301552,-0.174,1.368,0.143,131.3,18.2,13.3,191,724,0
L,,301612,0.101,1.768,0.194,187.3,7.9,10.9,163,731,0
L,,301672,-0.472,2.042,0.819,223.0,57.1,-23.8,187,661,0
L,,301732,-0.284,0.844,0.338,150.2,86.4,-87.5,153,400,0
L,,301822,0.193,-0.074,0.051,-106.9,-74.6,26.3,269,461,0
L,,301882,-0.264,0.438,0.228,-225.4,-133.5,19.8,272,469,0
L,,301972,-0.183,1.186,0.163,-304.1,-37.3,47.8,284,481,0
L,,302032,-0.291,2.050,-0.051,-325.4,0.7,27.3,279,448,0
L,,302092,0.362,1.992,-1.187,-218.0,-43.1,-2.5,301,443,0
L,,302152,-0.145,1.608,-1.399,14.4,-23.9,-42.2,317,460,0
L,,302255,0.044,1.136,0.020,136.9,-25.0,-88.2,465,604,0
L,,302281,-0.149,1.170,0.019,93.5,-81.6,-92.1,482,611,0
L,,302333,-0.359,1.022,0.068,84.5,-12.6,-21.3,486,632,0
L,,302392,0.014,0.949,0.110,53.2,40.1,-5.5,512,659,0
L,,302453,-0.086,0.893,0.202,30.1,-9.0,-8.1,526,671,0
L,,302512,-0.216,0.970,0.102,16.8,0.0,10.5,535,678,0
L,,302572,0.012,1.030,0.119,2.0,-1.6,-6.0,531,684,0
L,,302631,-0.105,0.898,0.259,11.8,15.2,0.9,535,688,0
L,,302722,-0.063,1.097,0.185,41.3,23.8,12.6,303,731,0
L,,302782,-0.085,1.121,0.222,92.7,32.4,18.4,278,673,0
L,,302842,-0.140,1.238,0.091,136.2,38.9,28.7,309,691,0
L,,302902,0.011,1.544,0.089,153.8,21.9,3.5,174,717,0
L,,302962,-0.209,2.111,0.614,218.0,-10.5,-17.1,174,660,0
L,,303052,-0.132,-0.060,0.421,110.8,67.8,-14.2,207,400,0
L,,303112,0.235,0.241,0.440,-75.6,24.0,-11.8,292,440,0
L,,303172,0.076,0.350,0.365,-196.2,-69.1,-22.1,296,463,0
L,,303262,0.152,1.060,0.297,-347.8,-85.1,16.6,299,484,0
L,,303352,-0.233,2.906,-0.624,-343.6,-74.2,42.2,280,413,0
L,,303413,-0.524,1.715,-1.723,-78.9,-132.0,-24.4,283,426,0
L,,303502,0.166,1.152,0.457,178.7,-1.4,-36.4,458,576,0
L,,303562,0.313,1.321,-0.225,90.3,-91.7,-99.7,459,607,0
L,,303652,-0.117,0.980,0.165,50.4,40.3,-21.9,494,651,0
L,,303712,0.017,1.009,0.092,21.9,1.7,-12.1,513,677,0
L,,303772,-0.117,0.976,0.090,9.3,-5.3,1.7,517,687,0
L,,303862,0.000,1.013,0.165,0.4,12.7,-2.4,521,690,0
L,,303953,-0.059,1.037,0.162,20.9,22.5,10.5,525,697,0
L,,304055,-0.003,1.103,0.189,95.4,13.3,16.2,325,707,0
L,,304072,-0.063,1.123,0.112,107.1,3.9,18.9,381,655,0
L,,304132,0.034,1.169,-0.030,137.4,15.3,30.3,211,714,0
L,,304235,-0.011,1.910,0.461,206.5,-25.2,-0.3,191,701,0
L,,304252,-0.198,1.849,0.668,215.4,0.0,-6.7,180,623,0
L,,304342,-0.227,0.462,-0.211,119.4,-10.9,20.7,225,430,0
L,,304402,0.040,0.029,0.216,-80.9,-67.6,43.1,280,442,0
L,,304461,-0.269,0.412,0.272,-207.1,-130.6,39.2,293,448,0
L,,304522,-0.060,0.897,0.216,-293.6,-112.4,49.2,306,468,0
L,,304625,-0.690,2.294,-0.270,-334.6,-57.5,17.8,280,400,0
L,,304642,-0.514,2.517,-0.550,-313.8,-57.0,5.7,274,397,0
L,,304703,-0.348,1.699,-1.386,-106.2,-169.4,-25.1,287,413,0
L,,304792,0.426,1.438,0.456,88.4,-101.7,-15.4,450,552,0
L,,304882,-0.391,1.328,-0.189,97.0,-80.2,-77.2,471,610,0
L,,304972,0.015,1.004,0.044,40.6,12.3,-22.4,520,682,0
L,,305033,-0.050,0.984,0.107,27.0,-20.0,-12.3,534,699,0
L,,305123,0.001,0.988,0.039,16.2,2.3,2.3,381,730,0
L,,305182,-0.024,0.999,0.074,12.3,1.2,4.2,438,698,0
L,,305243,-0.028,1.010,0.067,11.2,8.9,9.5,355,729,0
L,,305302,0.010,1.052,0.112,23.9,13.5,14.4,421,719,0
L,,305392,0.123,1.122,0.081,83.2,0.0,20.0,307,712,0
L,,305491,0.074,1.392,0.050,123.9,-9.7,32.4,184,721,0
L,,305542,0.196,1.795,0.318,176.5,-17.1,32.3,182,697,0
L,,305602,-0.210,1.601,0.157,206.0,55.9,23.9,192,677,0
L,,305663,-0.132,0.528,-0.002,102.8,-35.5,77.2,236,404,0
L,,305722,-0.064,0.224,0.424,-54.1,-105.9,45.1,265,430,0
L,,305783,-0.314,0.452,0.177,-170.0,-127.5,55.1,283,465,0
L,,305842,-0.479,0.787,-0.005,-232.1,-105.0,58.3,289,474,0
L,,305906,-0.425,1.205,0.043,-269.2,-92.7,38.6,288,470,0
L,,305993,-0.152,1.830,-0.376,-285.5,-153.1,-21.4,274,436,0
L,,306083,-0.401,1.467,-1.136,-65.4,-101.9,-44.4,306,411,0
L,,306142,0.979,1.278,-0.306,99.4,-29.9,-3.2,367,491,0
L,,306203,0.338,1.535,0.031,153.5,-26.1,-59.9,465,592,0
L,,306262,-0.291,1.119,0.033,77.4,-76.9,-86.8,485,613,0
L,,306323,-0.087,0.942,0.167,74.7,31.7,-9.7,496,644,0
L,,306413,-0.051,0.951,0.120,22.3,-21.8,-20.7,539,696,0
L,,306472,-0.080,0.944,0.082,17.3,11.3,2.1,554,703,0
L,,306576,-0.048,1.028,0.112,9.1,5.1,4.7,381,730,0
L,,306592,-0.049,1.016,0.129,10.5,11.7,5.3,346,732,0
L,,306652,-0.061,1.024,0.111,20.9,17.6,14.0,475,718,0
L,,306712,0.027,1.065,0.156,45.7,25.4,21.8,463,718,0
L,,306772,-0.031,1.119,0.103,89.6,1.4,19.5,426,680,0
L,,306833,0.115,1.222,0.006,119.9,-10.0,33.1,191,688,0
L,,306892,0.089,1.610,0.159,151.9,-10.7,24.9,173,733,0
L,,306953,-0.260,1.636,0.551,203.0,32.5,14.0,177,638,0
L,,307012,-0.182,0.592,0.140,158.5,42.9,20.3,161,409,0
L,,307073,0.018,0.907,0.992,20.3,-60.7,1.0,256,455,0
L,,307175,-0.453,0.532,0.259,-220.2,-90.3,33.8,273,481,0
L,,307192,-0.336,0.588,0.228,-241.7,-64.2,32.6,277,489,0
L,,307252,-0.336,1.065,0.153,-291.2,-40.5,52.6,322,467,0
L,,307312,-0.334,2.170,-0.029,-333.9,-35.9,-4.4,305,428,0
L,,307373,0.087,1.993,-1.031,-210.4,-155.4,-6.3,317,406,0
L,,307462,0.596,1.745,-0.910,113.8,-60.9,-46.9,371,463,0
L,,307552,-0.154,0.960,-0.024,113.0,-37.3,-120.6,460,602,0
L,,307613,-0.454,0.971,0.038,65.7,-28.4,-54.4,475,630,0
L,,307672,0.181,0.902,0.159,42.4,19.4,-9.3,505,667,0
L,,307732,-0.106,0.990,0.166,18.2,-16.3,-13.1,543,688,0
L,,307792,-0.100,0.978,0.117,13.0,4.6,4.7,531,699,0
L,,307882,-0.018,1.020,0.101,16.9,-0.2,-0.4,530,705,0
L,,307942,-0.065,1.006,0.106,22.2,8.1,4.3,424,717,0
L,,308002,-0.041,1.058,0.140,40.0,25.5,15.1,463,706,0
L,,308062,-0.020,1.140,0.196,91.7,25.7,21.8,442,694,0
L,,308123,0.104,1.214,-0.032,128.3,6.4,27.9,171,587,0
L,,308212,0.196,1.811,0.282,179.2,-11.7,13.9,177,678,0
L,,308272,-0.315,1.707,0.181,214.4,87.3,-5.2,179,616,0
L,,308333,-0.208,0.329,0.293,85.4,20.5,-15.2,218,334,0
L,,308392,0.090,0.400,0.551,-61.2,-54.3,-1.4,277,442,0
L,,308453,-0.299,0.305,0.443,-204.7,-140.9,-7.0,293,460,0
L,,308555,-0.037,1.160,0.218,-314.5,-32.2,56.7,304,473,0
L,,308573,-0.130,1.282,0.267,-326.4,-2.8,62.0,305,478,0
L,,308632,-0.193,2.431,-0.395,-331.1,4.3,28.2,284,428,0
L,,308693,0.130,1.799,-1.493,-144.8,-112.9,-33.6,289,442,0
L,,308752,-0.586,1.817,-0.617,83.1,-17.0,-62.7,319,458,0
L,,308812,0.538,1.569,0.337,173.1,-27.6,-34.6,448,555,0
L,,308872,0.146,1.436,-0.035,101.7,-108.1,-93.3,477,603,0
L,,308941,-0.124,0.930,0.191,62.7,27.5,-13.0,496,656,0
L,,308993,0.045,1.032,0.056,23.1,7.4,-17.3,511,674,0
L,,309052,-0.178,0.978,0.108,4.1,-15.1,-9.8,527,694,0
L,,309113,0.001,0.995,0.176,9.1,9.4,0.0,540,691,0
L,,309172,0.013,1.060,0.081,18.3,5.8,-5.7,535,681,0
L,,309232,-0.067,1.000,0.123,21.5,14.6,0.7,533,683,0
L,,309292,-0.063,1.020,0.158,36.1,24.8,8.6,344,725,0
L,,309352,-0.084,1.114,0.220,82.3,29.2,12.8,384,638,0
L,,309413,-0.114,1.166,0.074,117.6,34.1,21.7,391,667,0
L,,309472,0.031,1.336,-0.054,131.2,14.0,13.3,193,718,0
L,,309562,-0.187,1.900,0.600,213.5,-8.4,-11.3,182,655,0
L,,309653,-0.370,-0.198,0.679,85.0,45.2,31.1,251,378,0
L,,309712,0.126,0.395,0.487,-78.4,-4.4,0.0,309,440,0
L,,309772,-0.058,0.362,0.327,-186.2,-85.1,-9.3,327,461,0
L,,309833,0.045,0.610,0.294,-291.5,-73.3,7.7,335,469,0
L,,309922,0.126,2.094,-0.084,-359.7,-43.3,33.6,308,430,0
L,,309983,-0.329,2.220,-1.246,-233.7,-91.0,-4.7,295,402,0
L,,310042,-0.336,1.486,-1.503,41.2,-90.0,-31.3,277,427,0
L,,310132,0.020,1.385,-0.030,191.2,-20.6,-107.9,468,601,0
L,,310193,-0.280,0.719,0.044,76.9,-83.3,-51.3,469,608,0
L,,310252,-0.098,0.986,0.153,55.9,35.4,-16.8,494,640,0
L,,310312,-0.049,0.953,0.090,21.9,-0.7,-18.5,518,669,0
L,,310373,-0.117,1.021,0.125,16.8,16.5,3.9,534,677,0
L,,310432,0.023,0.982,0.081,4.7,2.3,-3.0,533,678,0
L,,310493,0.004,1.030,0.090,15.1,9.0,1.1,535,686,0
L,,310552,-0.070,1.038,0.119,23.0,12.5,5.0,373,709,0
L,,310642,-0.001,1.098,0.193,72.3,18.2,15.4,439,673,0
L,,310703,-0.039,1.182,0.097,120.1,22.4,27.4,380,700,0
L,,310762,0.117,1.416,0.014,145.4,8.4,27.7,180,733,0
L,,310823,0.126,1.923,0.368,193.1,-17.6,9.5,191,712,0
L,,310882,-0.398,1.734,0.089,213.5,68.5,-6.5,176,655,0
L,,310943,-0.070,0.602,-0.451,152.3,38.9,24.8,216,433,0
L,,311002,-0.049,0.059,0.231,-67.4,-100.6,24.1,257,477,0
L,,311062,-0.396,0.364,0.327,-220.6,-119.5,32.2,276,502,0
L,,311123,-0.197,0.893,0.177,-285.7,-36.4,58.8,282,508,0
L,,311182,-0.231,1.696,0.061,-317.2,-5.3,46.4,274,483,0
L,,311243,0.049,2.324,-0.841,-294.2,-104.4,-13.0,267,447,0
L,,311302,-0.328,1.482,-1.299,-98.1,-189.2,-14.0,271,448,0
L,,311363,0.447,1.539,-1.105,119.2,-86.6,-26.0,246,532,0
L,,311453,0.107,1.124,-0.384,94.5,-75.1,-124.3,468,595,0
L,,311512,-0.037,0.865,0.038,61.6,-1.0,-50.8,494,630,0
L,,311602,0.000,1.011,0.107,31.9,-4.0,-13.2,524,665,0
L,,311693,-0.051,0.984,0.102,16.0,-1.8,1.8,547,701,0
L,,311752,0.022,1.040,0.108,9.5,-6.5,-8.6,487,718,0
L,,311842,-0.049,1.003,0.081,15.6,12.6,5.3,409,703,0
L,,311903,-0.082,1.106,0.141,35.0,24.5,12.8,497,660,0
L,,311999,-0.050,1.110,0.034,95.4,14.4,25.2,413,701,0
L,,312052,0.021,1.247,-0.021,116.9,4.1,30.4,187,734,0
L,,312113,0.247,1.478,0.024,144.2,0.7,28.2,188,727,0
L,,312172,-0.067,1.837,0.519,201.5,-10.5,14.8,195,694,0
L,,312233,-0.268,1.357,0.061,181.2,43.9,7.0,181,572,0
L,,312292,0.201,0.222,-0.183,-72.8,-156.1,40.8,222,446,0
L,,312352,-0.074,0.170,0.175,-133.2,-136.2,41.1,243,485,0
L,,312415,-0.474,0.582,0.101,-230.0,-93.3,59.3,252,471,0
L,,312472,-0.416,1.035,0.039,-262.6,-51.3,62.0,277,479,0
L,,312533,-0.381,1.838,-0.016,-314.9,-15.8,13.6,312,456,0
L,,312592,-0.140,2.045,-0.632,-245.7,-155.3,-21.7,298,427,0
L,,312696,-0.064,1.402,-0.968,22.6,-102.6,-63.2,291,432,0
L,,312712,-0.098,1.571,-0.356,54.1,-81.3,-66.4,262,456,0
L,,312773,0.373,1.167,0.240,101.0,-86.8,-33.8,466,574,0
L,,312833,0.706,0.937,0.476,83.4,-79.8,-90.3,475,604,0
L,,312892,-0.055,0.882,0.094,59.9,-13.3,-25.7,519,661,0
L,,312953,0.002,1.012,0.097,31.0,5.3,-22.6,537,684,0
L,,313012,-0.115,0.969,0.078,0.2,-20.5,-11.6,554,702,0
L,,313073,-0.036,1.001,0.050,12.9,-4.7,3.7,552,708,0
L,,313132,0.016,0.940,0.164,11.1,-1.4,-0.9,474,721,0
L,,313193,0.025,0.983,0.094,22.6,3.9,7.9,472,714,0
L,,313252,-0.049,1.006,0.099,28.0,13.3,11.5,459,722,0
L,,313313,0.053,1.087,0.124,50.4,11.4,11.4,435,697,0
L,,313373,-0.026,1.105,0.049,86.7,6.7,18.9,369,706,0
L,,313476,0.000,1.404,0.069,136.8,-5.5,31.7,174,656,0
L,,313493,0.034,1.550,0.118,144.5,-3.6,28.7,195,714,0
L,,313552,-0.053,1.892,0.604,210.4,10.8,16.7,192,682,0
L,,313613,-0.196,1.382,0.294,178.5,77.0,-6.6,181,526,0
L,,313672,0.003,0.442,0.521,-41.0,-111.1,41.2,233,440,0
L,,313733,-0.189,0.125,0.233,-143.9,-156.4,30.6,262,466,0
L,,313823,-0.381,0.896,0.105,-269.5,-37.1,61.9,299,450,0
L,,313913,-0.287,2.226,-0.125,-350.5,-84.8,6.5,286,416,0
L,,313972,0.079,2.023,-1.005,-215.6,-181.5,-18.3,297,406,0
L,,314033,-0.392,1.508,-1.325,-28.2,-134.6,-46.2,279,409,0
L,,314092,0.741,1.012,1.524,72.3,-46.3,22.8,442,540,0
L,,314153,0.131,1.256,-0.168,148.9,-57.9,-93.5,472,600,0
L,,314212,-0.099,0.875,-0.200,54.0,-43.9,-71.8,490,631,0
L,,314302,-0.001,1.033,0.137,38.9,12.7,-17.0,509,670,0
L,,314363,-0.056,0.965,0.066,11.9,-4.8,-9.5,520,684,0
L,,314422,-0.061,1.007,0.077,-1.6,-5.1,-2.0,537,692,0
L,,314483,0.013,1.018,0.117,4.3,11.6,-1.3,532,695,0
L,,314542,-0.085,1.018,0.152,8.7,19.9,9.3,540,701,0
L,,314603,-0.019,1.083,0.203,39.0,22.3,13.2,417,703,0
L,,314663,0.017,1.111,0.168,91.1,10.7,11.4,431,711,0
L,,314722,0.003,1.158,0.000,119.5,7.8,19.8,250,726,0
L,,314783,0.022,1.495,0.074,148.6,1.4,20.5,200,727,0
L,,314841,0.087,1.808,0.355,194.6,-24.4,10.0,185,665,0
L,,314903,-0.284,1.685,0.028,209.0,81.8,8.4,194,663,0
L,,314962,-0.148,0.327,-0.389,140.2,-6.7,32.4,223,438,0
L,,315023,0.013,0.049,0.200,-65.5,-57.4,23.5,328,458,0
L,,315083,-0.173,0.415,0.361,-223.7,-102.2,27.3,334,465,0
L,,315143,-0.120,0.944,0.306,-308.5,-63.0,31.6,342,465,0
L,,315233,-0.168,2.358,-0.157,-328.5,-6.6,12.7,324,438,0
L,,315292,-0.156,2.027,-1.353,-182.5,-118.7,-2.8,313,430,0
L,,315391,0.849,0.857,1.315,46.3,-42.2,35.6,447,547,0
L,,315443,-0.005,1.251,-0.134,171.5,-30.1,-104.2,461,608,0
L,,315533,-0.133,0.777,0.106,68.8,6.5,-24.2,475,636,0
L,,315592,0.074,0.979,0.148,41.2,27.2,-10.7,497,662,0
L,,315653,-0.173,1.009,0.116,17.9,-4.0,-5.0,509,675,0
L,,315712,-0.045,0.949,0.071,3.4,13.3,2.7,534,677,0
L,,315773,-0.553,1.171,0.169,-1.4,36.1,-3.9,514,653,0
L,,315833,-0.111,0.993,0.135,11.6,4.6,-3.7,542,686,0
L,,315893,-0.049,1.016,0.145,21.6,20.7,-1.8,542,691,0
L,,315983,-0.085,1.121,0.180,80.5,21.9,3.5,393,674,0
L,,316042,-0.125,1.159,0.127,122.9,39.4,21.4,420,597,0
L,,316103,0.073,1.528,0.013,163.9,25.6,5.3,179,720,0
L,,316163,0.173,1.946,0.360,221.1,-1.2,-9.7,169,696,0
L,,316252,-0.388,1.187,0.381,149.1,42.4,-53.6,157,296,0
L,,316313,0.062,0.300,0.753,-49.0,74.0,12.5,200,441,0
L,,316373,-0.040,0.202,0.277,-156.0,-13.2,5.2,216,459,0
L,,316433,-0.051,0.672,0.208,-271.1,-82.6,5.7,224,468,0
L,,316493,-0.046,1.291,0.346,-356.6,-73.9,26.9,234,460,0
L,,316552,0.101,2.231,-0.253,-338.8,32.8,56.1,225,443,0
L,,316656,0.052,1.464,-1.699,-1.4,-110.6,-16.3,241,429,0
L,,316672,-0.345,1.746,-1.043,50.3,-93.1,-38.0,234,452,0
L,,316762,0.149,0.957,-0.078,166.4,-33.5,-84.9,470,613,0
L,,316853,-0.174,1.190,0.077,63.7,-15.6,-31.3,430,573,0
L,,316913,0.043,0.954,0.069,40.0,11.9,-17.0,517,657,0
L,,316973,-0.132,0.931,0.147,20.0,-4.6,-7.0,504,663,0
L,,317033,-0.100,0.972,0.071,11.4,6.9,8.8,480,631,0
L,,317123,-0.170,1.044,0.205,13.0,6.4,-0.7,514,656,0
L,,317183,-0.103,1.045,0.174,29.4,21.0,6.5,519,674,0
L,,317273,-0.074,1.097,0.214,82.3,33.6,13.5,430,615,0
L,,317333,-0.105,1.192,0.069,123.6,27.6,23.4,351,570,0
L,,317393,0.004,1.359,0.039,144.8,7.9,20.9,181,720,0
L,,317453,0.075,1.861,0.293,193.8,-7.5,-13.1,176,707,0
L,,317513,-0.230,1.505,0.103,216.5,117.1,-6.5,177,610,0
L,,317616,0.059,0.458,0.519,-82.8,-17.5,18.6,205,469,0
L,,317632,0.103,-0.018,0.263,-90.5,-88.6,30.8,231,475,0
L,,317693,-0.265,0.387,0.390,-214.4,-108.2,31.8,248,477,0
L,,317783,0.081,1.143,0.228,-351.4,-78.4,49.9,281,494,0
L,,317842,-0.109,2.417,-0.201,-346.3,-51.8,33.9,261,404,0
L,,317933,-0.586,1.653,-1.658,-53.6,-210.5,-37.4,266,413,0
L,,318023,0.749,1.527,0.380,176.4,18.6,-35.0,468,588,0
L,,318083,-0.375,1.209,-0.531,112.9,-112.4,-86.7,466,592,0
L,,318143,-0.091,0.979,0.088,50.8,11.0,-31.7,484,643,0
L,,318233,0.018,0.988,0.076,23.3,-5.1,-5.6,521,670,0
L,,318292,-0.041,1.014,0.135,13.3,2.1,-0.7,247,734,0
L,,318382,-0.023,1.009,0.116,28.4,9.5,1.2,389,700,0
L,,318443,-0.048,1.018,0.070,35.4,18.4,7.9,402,705,0
L,,318511,-0.007,1.053,0.102,48.8,11.6,12.7,254,544,0
L,,318563,0.036,1.124,0.095,83.2,9.1,16.5,220,722,0
L,,318653,0.026,1.303,0.035,134.5,-0.7,27.0,173,619,0
L,,318712,0.122,1.992,0.462,188.7,-17.3,17.7,181,704,0
L,,318773,-0.340,1.556,-0.147,209.3,97.6,34.0,180,646,0
L,,318833,-0.450,0.864,-0.674,118.5,-80.2,38.4,240,380,0
L,,318893,0.065,0.066,0.267,-86.6,-105.3,57.1,296,435,0
L,,318957,-0.366,0.511,0.314,-214.0,-137.5,53.0,310,439,0
L,,319013,-0.397,0.948,0.170,-283.2,-89.8,62.0,317,459,0
L,,319073,-0.488,1.653,0.262,-330.5,-44.1,43.6,295,431,0
L,,319132,-0.271,2.190,-0.784,-296.1,-81.0,-31.0,298,391,0
L,,319193,-0.438,1.659,-1.018,-138.3,-244.7,-12.4,296,379,0
L,,319252,-0.109,1.654,-1.151,53.4,-94.4,-55.8,325,437,0
L,,319342,0.028,1.222,-0.132,125.8,-19.6,-119.3,476,599,0
L,,319403,-0.145,0.841,-0.012,53.9,-57.8,-58.4,481,620,0
L,,319462,0.028,1.018,0.133,47.4,24.0,-15.8,512,651,0
L,,319523,-0.059,0.919,0.103,21.6,-12.5,-18.8,531,677,0
L,,319583,0.022,1.005,0.142,19.0,-17.8,-5.5,535,688,0
L,,319643,-0.023,1.045,0.108,17.2,1.4,-1.9,505,702,0
L,,319703,-0.109,0.965,0.110,14.3,-4.9,-1.8,448,717,0
L,,319763,-0.031,1.064,0.097,21.6,14.4,8.4,484,710,0
L,,319823,0.025,1.088,0.136,47.9,21.0,15.4,471,714,0
L,,319882,0.019,1.098,0.085,84.7,2.0,17.2,336,708,0
L,,319943,0.134,1.206,-0.031,114.2,3.9,27.3,207,719,0
L,,320002,0.211,1.466,0.033,140.1,-13.2,32.2,182,659,0
L,,320063,-0.032,1.905,0.615,195.6,-3.0,18.2,198,693,0
L,,320123,-0.333,1.587,0.029,191.0,90.0,2.3,184,525,0
L,,320183,0.047,0.398,-0.133,23.1,-136.9,54.0,273,415,0
L,,320272,-0.343,0.255,0.373,-178.5,-127.4,62.5,272,446,0
L,,320333,-0.549,0.844,0.103,-255.1,-57.8,52.3,268,430,0
L,,320393,-0.411,1.553,-0.094,-288.6,-11.3,35.9,291,419,0
L,,320453,-0.278,2.067,-0.360,-287.9,-90.3,-26.1,304,432,0
L,,320513,0.001,1.695,-0.968,-187.6,-137.2,-19.3,316,438,0
L,,320573,-0.202,1.390,-0.914,-72.4,-144.4,-52.2,312,422,0
L,,320663,1.232,1.314,1.399,66.8,-90.0,14.4,440,540,0
L,,320723,0.345,1.191,0.060,104.0,-32.2,-110.9,471,593,0
L,,320783,-0.175,0.847,-0.039,75.5,-39.2,-47.6,503,636,0
L,,320843,0.144,0.967,0.085,47.7,27.4,-27.2,532,671,0
L,,320903,-0.142,0.956,0.192,25.4,-13.6,-14.8,545,684,0
L,,320962,-0.026,0.985,0.099,29.4,13.3,-1.1,553,702,0
L,,321053,-0.037,1.012,0.077,16.3,2.1,-1.2,479,601,0
L,,321113,-0.073,1.007,0.088,14.9,2.5,3.9,465,716,0
L,,321172,-0.075,1.031,0.116,23.4,19.5,11.4,480,712,0
L,,321233,-0.013,1.112,0.176,61.9,22.8,13.7,370,713,0
L,,321335,-0.036,1.296,0.023,126.4,1.3,25.2,199,734,0
L,,321353,-0.083,1.340,0.049,135.1,3.8,23.4,182,733,0
L,,321413,0.161,1.876,0.297,183.5,-13.5,12.2,186,716,0
L,,321473,-0.225,1.628,0.244,206.7,66.0,-9.1,184,675,0
L,,321533,-0.302,-0.158,0.476,87.5,32.3,15.8,209,403,0
L,,321593,0.031,0.271,0.369,-97.5,-44.6,17.9,274,461,0
L,,321653,-0.221,0.326,0.353,-199.5,-155.6,21.7,279,472,0
L,,321743,-0.155,0.901,0.018,-281.4,-37.3,56.4,286,472,0
L,,321803,-0.231,1.950,-0.136,-331.0,14.2,24.5,271,431,0
L,,321863,0.264,1.897,-1.130,-248.2,-101.3,-17.2,274,428,0
L,,321931,-0.352,1.519,-1.318,10.8,-102.5,-50.4,277,433,0
L,,321983,0.782,1.647,1.036,81.2,-92.6,-2.4,454,557,0
L,,322042,0.035,1.257,-0.116,117.4,-49.6,-119.9,474,594,0
L,,322133,-0.212,0.878,0.167,68.5,35.4,-10.2,504,641,0
L,,322193,0.078,1.074,0.077,28.9,1.1,-17.7,522,662,0
L,,322252,-0.022,1.034,0.117,19.9,-11.0,-4.7,505,641,0
L,,322313,0.040,1.008,0.065,2.0,0.4,-17.8,535,683,0
L,,322373,-0.057,1.002,0.117,2.6,4.4,4.7,395,712,0
L,,322433,-0.023,1.015,0.126,16.3,17.6,5.4,457,606,0
L,,322493,-0.078,1.094,0.159,41.9,27.2,14.5,382,712,0
L,,322553,-0.011,1.086,0.167,88.8,17.3,16.5,442,691,0
L,,322613,-0.067,1.253,0.044,120.0,15.2,17.7,197,726,0
L,,322673,0.022,1.514,0.100,161.0,1.2,22.6,210,712,0
L,,322733,-0.110,1.952,0.549,215.3,-16.7,-7.2,190,646,0
L,,322792,-0.438,1.352,0.229,187.1,135.1,-12.1,179,592,0
L,,322852,0.248,0.421,-0.326,35.5,-2.8,1.0,220,385,0
L,,322913,0.012,0.244,0.302,-137.6,-116.9,5.0,272,471,0
L,,322973,-0.193,0.512,0.283,-250.8,-97.3,-1.6,281,459,0
L,,323063,-0.156,1.465,-0.018,-319.9,23.9,33.1,285,433,0
L,,323123,0.227,2.300,-0.521,-324.5,-18.0,0.5,312,424,0
L,,323183,-0.216,1.750,-1.350,-139.5,-171.0,2.1,306,426,0
L,,323273,-0.032,1.463,0.718,105.5,37.0,-19.0,466,573,0
L,,323333,0.075,1.005,-0.300,117.8,-82.3,-100.1,428,562,0
L,,323393,-0.180,1.174,0.081,76.0,-10.0,-33.6,498,643,0
L,,323453,0.013,1.062,0.084,45.1,28.6,-12.0,526,667,0
L,,323513,-0.184,0.954,0.100,15.8,-14.8,-8.5,526,676,0
L,,323573,-0.138,1.008,0.148,9.0,8.8,-2.7,529,678,0
L,,323633,-0.020,0.993,0.177,16.8,7.4,-0.8,505,652,0
L,,323693,-0.081,0.993,0.153,24.9,12.9,-2.0,466,678,0
L,,323752,-0.069,1.027,0.117,33.8,26.6,0.0,433,670,0
L,,323813,-0.032,1.091,0.160,68.3,34.0,2.8,368,687,0
L,,323873,-0.150,1.175,0.080,111.3,26.3,9.8,166,688,0
L,,323933,-0.033,1.358,0.011,149.1,24.5,5.6,166,606,0
L,,323993,0.087,1.830,0.299,196.8,6.0,-22.1,180,723,0
L,,324053,-0.240,1.851,0.102,217.1,88.7,-41.4,177,643,0
L,,324113,-0.188,-0.772,0.516,66.1,96.8,-20.3,214,383,0
L,,324173,0.210,0.205,0.460,-83.0,60.6,3.4,308,426,0
L,,324263,0.005,0.475,0.208,-247.5,-45.8,5.6,320,442,0
L,,324323,-0.105,1.065,0.142,-349.6,-88.4,11.4,323,455,0
L,,324383,0.123,2.104,-0.231,-354.1,-44.8,28.1,300,426,0
L,,324443,-0.429,2.396,-1.073,-262.0,-113.0,3.7,287,387,0
L,,324502,-0.387,1.546,-1.657,17.7,-103.3,-26.5,291,401,0
L,,324563,0.182,0.451,0.267,111.6,-46.7,21.4,455,558,0
L,,324623,0.311,1.182,-0.174,110.5,-42.9,-100.3,480,607,0
L,,324683,-0.154,0.920,-0.091,79.5,-30.8,-34.2,461,601,0
L,,324743,0.077,0.943,0.075,40.7,32.3,-11.5,484,623,0
L,,324811,-0.103,0.973,0.098,15.2,-4.6,-6.6,499,635,0
L,,324863,-0.004,0.976,0.147,15.3,7.2,6.7,509,646,0
L,,324953,-0.058,0.944,0.171,11.6,7.4,11.9,335,713,0
L,,325013,-0.095,1.024,0.179,27.6,1.4,5.1,292,694,0
L,,325073,-0.040,1.038,0.127,52.3,7.7,16.1,352,717,0
L,,325133,0.011,1.102,0.136,87.7,-2.0,15.1,379,687,0
L,,325193,0.022,1.241,0.011,102.9,-2.1,27.7,139,456,0
L,,325254,0.101,1.319,0.049,135.2,-0.2,33.5,172,655,0
L,,325313,0.068,1.917,0.410,177.4,-20.0,6.7,168,676,0
L,,325373,-0.413,1.458,-0.126,198.2,90.8,7.0,188,634,0
L,,325463,0.013,0.759,1.699,-32.6,-56.5,1.4,294,427,0
L,,325523,-0.264,0.276,0.284,-139.1,-150.3,27.4,318,443,0
L,,325583,-0.527,0.573,0.166,-236.4,-137.2,61.4,318,439,0
L,,325643,-0.352,1.143,-0.004,-268.6,-53.2,66.7,319,434,0
L,,325703,-0.154,2.021,-0.098,-316.0,-28.2,37.1,301,410,0
L,,325763,-0.103,2.008,-0.697,-237.1,-128.5,2.2,287,397,0
L,,325823,-0.393,1.499,-1.339,-43.6,-122.0,-37.2,294,409,0
L,,325883,1.503,0.809,1.338,78.1,-89.9,45.7,440,538,0
L,,325943,-0.630,1.138,-0.121,155.7,4.8,-140.7,441,561,0
L,,326003,-0.195,1.013,-0.121,84.0,-61.8,-46.4,478,633,0
L,,326093,0.064,1.050,0.079,30.8,8.0,-18.9,518,684,0
L,,326153,-0.106,1.030,0.108,23.2,-8.1,-6.1,527,696,0
L,,326213,-0.058,1.003,0.082,15.8,-1.1,-1.4,275,734,0
L,,326273,-0.036,1.002,0.107,12.3,0.7,-1.6,375,678,0
L,,326333,-0.142,1.033,0.124,17.1,3.4,3.5,375,605,0
L,,326393,-0.006,1.019,0.093,27.3,20.7,9.5,378,713,0
L,,326453,-0.019,1.122,0.139,55.7,19.4,12.6,318,704,0
L,,326513,-0.004,1.118,0.056,99.5,5.1,14.9,250,723,0
L,,326573,0.030,1.253,-0.015,121.7,2.5,21.4,188,733,0
L,,326663,-0.080,1.985,0.555,193.8,0.4,8.9,188,674,0
L,,326723,-0.569,1.484,-0.050,203.5,129.0,6.5,198,596,0
L,,326813,-0.028,0.604,0.866,-44.2,-51.2,12.5,244,440,0
L,,326873,-0.066,0.195,0.434,-165.2,-154.5,33.5,249,450,0
L,,326933,-0.336,0.643,0.221,-262.4,-85.9,53.1,280,439,0
L,,326993,-0.223,1.324,0.150,-317.3,-34.6,64.8,277,430,0
L,,327053,-0.178,2.194,-0.410,-325.1,-103.9,15.5,245,362,0
L,,327113,-0.366,1.841,-1.102,-171.8,-270.4,-9.6,270,393,0
L,,327173,-0.452,1.645,-1.008,49.0,-88.8,-40.3,248,460,0
L,,327233,0.530,1.777,-0.214,190.4,-1.1,-44.4,457,580,0
L,,327293,-0.020,1.216,-0.258,100.3,-45.5,-113.2,446,576,0
L,,327353,-0.055,0.920,0.008,53.6,4.6,-40.1,454,594,0
L,,327443,-0.063,0.970,0.074,19.3,-9.8,-12.1,532,673,0
L,,327503,-0.061,0.960,0.089,14.0,-5.0,4.7,317,723,0
L,,327563,0.012,1.036,0.090,3.2,-0.4,-0.3,369,644,0
L,,327623,-0.011,1.036,0.109,12.2,6.5,6.7,359,713,0
L,,327683,0.037,1.054,0.115,36.1,12.3,9.8,361,726,0
L,,327743,0.018,1.086,0.000,63.8,5.1,17.1,336,711,0
L,,327803,0.067,1.186,0.070,104.4,2.5,23.2,186,726,0
L,,327863,0.082,1.349,0.047,136.0,1.4,26.1,220,711,0
L,,327953,-0.070,1.935,0.772,206.7,13.6,17.0,209,689,0
L,,328013,-0.378,0.903,0.358,166.6,28.8,-10.5,181,494,0
L,,328073,-0.202,0.895,0.798,-116.4,-130.2,-17.7,261,432,0
L,,328133,-0.272,0.197,0.235,-154.4,-177.4,41.3,290,465,0
L,,328193,-0.481,0.647,0.270,-257.6,-104.5,59.5,295,466,0
L,,328291,-0.306,1.822,-0.056,-338.4,-15.8,17.0,282,435,0
L,,328343,0.134,2.128,-0.627,-313.4,-138.6,-13.5,270,410,0
L,,328403,-0.488,1.756,-1.113,-153.2,-227.5,-29.5,271,395,0
L,,328463,-0.248,1.554,-0.786,64.5,-79.9,-55.2,338,417,0
L,,328566,0.086,1.172,-0.197,119.1,-73.7,-129.2,464,590,0
L,,328583,0.433,1.051,0.020,79.0,-112.2,-102.4,473,599,0
L,,328643,-0.179,1.007,0.129,48.0,0.7,-47.4,488,627,0
L,,328733,-0.022,0.984,0.097,26.2,4.5,-17.6,529,674,0
L,,328823,-0.024,0.972,0.096,14.6,4.9,-1.4,539,688,0
L,,328883,-0.033,1.010,0.148,15.4,-0.7,-0.9,456,708,0
L,,328943,-0.052,0.995,0.072,20.6,7.2,0.4,445,713,0
L,,329003,-0.027,1.071,0.119,34.6,24.7,10.5,355,722,0
L,,329063,0.032,1.127,0.152,80.0,27.3,14.7,400,629,0
L,,329124,0.026,1.200,-0.008,120.7,1.3,17.7,195,728,0
L,,329183,-0.024,1.607,0.097,146.2,2.5,10.8,179,701,0
L,,329243,-0.020,1.986,0.526,202.1,-0.4,0.1,180,686,0
L,,329303,-0.406,1.577,-0.083,198.0,110.3,-11.8,174,636,0
L,,329363,0.162,0.190,-0.684,85.1,-12.1,11.9,274,431,0
L,,329423,0.154,0.072,0.075,-110.9,-92.8,14.2,294,447,0
L,,329483,-0.370,0.445,0.164,-235.2,-124.6,19.0,295,458,0
L,,329573,-0.150,1.296,0.147,-319.2,-45.9,39.1,293,468,0
L,,329633,-0.285,2.298,-0.068,-333.2,29.1,2.0,281,433,0
L,,329693,0.389,1.840,-1.206,-200.1,-92.4,1.2,267,405,0
L,,329753,-0.260,1.536,-1.392,41.7,-35.4,-49.7,303,427,0
L,,329813,0.325,1.352,0.193,124.1,2.3,-6.7,448,553,0
L,,329874,0.229,1.443,-0.365,98.4,-122.4,-113.4,473,600,0
L,,329933,-0.150,0.917,0.083,80.8,-7.8,-24.0,480,619,0
L,,329993,0.051,0.968,0.089,51.3,33.8,-6.6,477,608,0
L,,330053,-0.113,0.950,0.109,19.6,-13.5,-12.2,486,624,0
L,,330143,-0.008,1.017,0.127,6.3,9.2,-2.3,499,642,0
L,,330204,-0.059,1.019,0.185,19.6,8.0,-2.3,504,649,0
L,,330263,-0.090,0.999,0.095,27.3,13.3,1.6,277,702,0
L,,330323,-0.094,1.089,0.176,45.9,30.8,7.2,281,607,0
L,,330383,-0.072,1.245,0.172,93.8,30.2,12.9,446,647,0
L,,330443,-0.049,1.175,-0.029,127.6,24.0,19.1,194,703,0
L,,330503,0.019,1.540,0.094,166.2,23.5,17.2,187,719,0
L,,330563,-0.135,2.088,0.635,222.6,2.0,-22.4,191,653,0
L,,330624,-0.213,1.311,0.045,190.8,91.5,-33.3,190,570,0
L,,330683,0.168,0.232,0.005,1.1,-15.2,22.6,246,438,0
L,,330743,0.134,0.050,0.183,-131.8,-54.8,1.6,246,455,0
L,,330803,-0.069,0.503,0.262,-245.2,-69.6,0.0,255,464,0
L,,330863,-0.071,1.027,0.265,-335.1,-63.2,12.9,268,471,0
L,,330923,0.132,2.113,0.136,-376.1,-11.8,32.6,268,432,0
L,,330983,-0.035,2.425,-1.470,-265.3,-65.0,10.0,255,381,0
L,,331043,-0.052,1.569,-1.895,14.2,-101.8,-15.0,284,420,0
L,,331103,-0.049,1.458,-0.665,133.2,-21.4,-29.6,462,567,0
L,,331171,0.162,1.074,0.129,101.7,-82.3,-88.4,483,613,0
L,,331223,-0.166,1.022,-0.011,86.3,-17.7,-26.1,456,604,0
L,,331283,0.100,1.056,0.030,44.2,14.6,-11.7,465,613,0
L,,331343,-0.192,0.884,0.102,25.3,-3.9,-4.6,505,666,0
L,,331403,-0.108,0.940,0.076,6.7,8.3,7.4,494,655,0
L,,331463,-0.059,1.024,0.166,0.7,8.7,5.1,243,712,0
L,,331553,-0.070,1.024,0.136,22.6,18.8,7.3,399,705,0
L,,331617,-0.053,1.077,0.189,51.3,33.1,16.3,424,647,0
L,,331672,0.010,1.125,0.152,101.0,14.6,14.9,424,652,0
L,,331733,0.107,1.279,-0.015,131.3,24.1,20.5,180,670,0
L,,331823,0.068,1.789,0.244,196.1,-14.4,7.0,181,676,0
L,,331883,-0.427,1.642,0.203,213.7,102.0,-22.7,188,657,0
L,,331943,-0.376,0.439,-0.107,128.7,47.9,26.1,236,421,0
L,,332003,0.021,0.104,0.316,-64.8,-43.0,9.7,258,444,0
L,,332063,-0.178,0.359,0.304,-202.7,-146.0,5.3,273,465,0
L,,332124,-0.073,0.788,0.285,-297.9,-94.3,28.1,273,471,0
L,,332183,-0.238,1.545,0.132,-340.4,43.8,52.5,270,472,0
L,,332244,-0.045,2.862,-0.462,-329.9,-42.1,-16.7,237,393,0
L,,332333,-0.527,1.634,-1.392,-23.7,-188.2,-43.4,248,409,0
L,,332436,0.308,1.751,0.293,153.0,1.7,-57.1,423,578,0
L,,332454,0.026,1.044,-0.142,148.9,-8.8,-109.8,445,595,0
L,,332513,-0.172,1.008,0.162,78.0,-95.5,-64.7,455,594,0
L,,332573,0.016,0.941,0.138,67.6,50.8,1.1,485,654,0
L,,332633,-0.060,0.955,0.053,24.2,-5.3,-10.4,489,653,0
L,,332723,-0.067,0.989,0.122,16.1,15.2,10.3,227,703,0
L,,332784,0.258,1.234,0.074,33.9,-2.5,-3.0,326,679,0
L,,332843,-0.061,0.997,0.104,17.9,15.6,11.0,381,545,0
L,,332933,0.021,1.068,0.191,54.3,19.6,16.5,411,685,0
L,,332994,-0.011,1.126,0.078,95.9,3.2,20.0,368,600,0
L,,333053,0.038,1.238,-0.003,123.6,7.2,30.1,181,702,0
L,,333113,0.190,1.485,0.079,158.4,-0.1,32.5,172,663,0
L,,333204,-0.370,1.736,0.065,208.3,102.4,8.1,177,658,0
L,,333263,-0.294,0.750,-0.012,116.2,-26.9,37.1,228,351,0
L,,333324,0.006,0.122,0.227,-64.1,-77.1,38.9,295,436,0
L,,333383,-0.231,0.343,0.314,-192.5,-130.7,35.9,307,465,0
L,,333443,-0.404,0.954,0.246,-290.5,-102.6,44.3,315,452,0
L,,333503,-0.474,1.624,0.224,-326.2,-48.6,42.6,299,452,0
L,,333563,-0.239,2.236,-0.463,-313.9,-45.4,0.1,278,403,0
L,,333624,-0.031,1.702,-1.043,-163.8,-197.6,-31.1,257,401,0
L,,333683,-0.319,1.371,-0.893,30.3,-153.5,-66.4,308,421,0
L,,333773,0.530,1.478,0.116,169.4,-52.1,-40.3,464,577,0
L,,333833,-0.211,0.917,-0.539,100.6,-73.4,-94.0,474,596,0
L,,333893,-0.089,1.001,0.197,46.0,10.3,-41.5,490,644,0
L,,333954,-0.037,1.069,0.144,33.3,-4.0,-26.6,517,680,0
