side,stage,device_ms,ax,ay,az,gx,gy,gz,toe,heel,phase
L,,2367166,0.238,0.289,0.043,-7.9,10.9,17.3,397,724,0
L,,2367176,0.183,0.336,0.030,-8.8,11.1,19.9,404,730,0
L,,2367186,0.088,0.368,0.013,-9.5,11.2,22.5,412,727,0
L,,2367196,0.075,0.417,-0.012,-10.5,11.5,24.6,419,729,0
L,,2367206,0.110,0.469,-0.053,-11.5,11.6,26.4,426,726,0
L,,2367216,0.176,0.528,-0.054,-12.2,11.8,28.4,429,724,0
L,,2367226,0.230,0.572,-0.067,-13.3,11.3,29.7,427,723,0
L,,2367236,0.250,0.643,-0.059,-14.0,10.5,31.0,432,727,0
L,,2367246,0.217,0.724,-0.048,-14.8,9.8,32.3,433,729,0
L,,2367256,0.124,0.850,-0.035,-15.8,9.6,33.6,432,729,0
L,,2367266,0.061,0.927,-0.024,-16.9,9.5,34.3,439,730,0
L,,2367276,0.008,1.016,-0.014,-17.9,9.5,34.9,439,725,0
L,,2367286,0.005,1.063,-0.004,-18.7,9.3,35.4,441,728,0
L,,2367296,0.036,1.191,-0.025,-19.7,9.1,35.9,443,727,0
L,,2367306,0.053,1.322,-0.073,-20.2,9.0,35.7,442,728,0
L,,2367316,0.064,1.413,-0.119,-20.8,8.6,35.2,445,731,0
L,,2367326,0.052,1.621,-0.139,-21.1,8.1,34.5,443,731,0
L,,2367336,0.030,1.534,-0.146,-21.3,7.0,33.8,442,731,0
L,,2367346,0.000,1.546,-0.091,-21.5,6.0,33.4,438,730,0
L,,2367356,0.020,1.734,-0.062,-22.0,5.2,33.0,428,726,0
L,,2367366,0.134,1.731,-0.102,-21.6,3.7,32.3,418,725,0
L,,2367376,0.246,1.810,-0.162,-21.9,0.0,31.6,408,720,0
L,,2367386,0.053,1.895,-0.231,-22.2,-3.7,31.1,415,718,0
L,,2367396,-0.220,1.942,-0.214,-21.8,-6.7,29.8,422,718,0
L,,2367406,-0.375,1.961,-0.169,-20.7,-10.6,27.4,419,718,0
L,,2367416,-0.534,1.953,-0.191,-19.1,-12.9,25.7,413,712,0
L,,2367426,-0.751,1.928,-0.246,-17.5,-14.0,23.7,419,712,0
L,,2367436,-0.954,1.904,-0.254,-15.6,-14.0,20.0,428,725,0
L,,2367446,-1.191,1.870,-0.216,-13.6,-13.0,16.1,426,730,0
L,,2367456,-1.525,1.871,-0.173,-12.0,-11.0,11.9,427,732,0
L,,2367466,-1.808,1.737,-0.297,-8.8,-8.2,6.8,430,729,0
L,,2367476,-1.795,1.624,-0.400,-4.7,-6.1,1.9,409,694,0
L,,2367486,-1.747,1.585,-0.446,-1.6,-5.7,-3.7,423,716,0
L,,2367496,-1.710,1.579,-0.409,1.2,-5.7,-8.7,491,726,0
L,,2367506,-0.835,1.596,-0.329,-4.0,-6.9,-8.9,578,760,0
L,,2367516,0.903,0.739,1.624,13.9,-8.6,-8.2,623,776,0
L,,2367526,2.415,0.843,0.480,3.3,2.0,-5.5,641,783,0
L,,2367536,0.814,1.329,0.287,-1.7,9.8,-0.2,658,795,0
L,,2367546,-0.311,1.043,0.345,4.4,4.0,-9.5,667,804,0
L,,2367556,0.184,1.881,0.274,3.3,7.2,-9.8,673,805,0
L,,2367566,0.217,2.123,0.805,0.2,6.7,-16.3,687,819,0
L,,2367576,0.039,1.306,0.165,1.4,3.5,-16.4,690,821,0
L,,2367586,0.213,1.105,0.142,0.6,-1.3,-15.8,694,825,0
L,,2367596,0.502,1.005,0.113,-1.3,-5.5,-14.1,699,825,0
L,,2367606,0.229,0.887,0.297,-2.0,-8.2,-12.7,700,828,0
L,,2367616,-0.125,0.926,0.536,-1.6,-7.1,-12.1,697,824,0
L,,2367626,-0.169,0.892,0.569,-1.3,-5.6,-11.1,698,825,0
L,,2367636,-0.257,1.013,0.512,-1.4,-3.4,-12.0,693,822,0
L,,2367646,-0.225,1.094,0.508,0.4,-0.4,-10.2,698,825,0
L,,2367656,-0.067,1.001,0.441,1.6,4.5,-7.6,702,831,0
L,,2367666,-0.007,0.943,0.452,1.3,6.5,-7.3,703,831,0
L,,2367676,0.161,0.898,0.391,1.9,7.2,-6.4,700,829,0
L,,2367686,0.189,0.870,0.399,1.9,6.8,-6.5,703,831,0
L,,2367696,0.241,0.890,0.374,0.9,5.6,-6.0,703,831,0
L,,2367706,0.278,0.922,0.364,0.5,4.0,-6.4,706,833,0
L,,2367716,0.297,0.975,0.364,0.1,0.0,-6.4,705,832,0
L,,2367726,0.242,0.952,0.408,0.7,1.2,-6.8,706,832,0
L,,2367736,0.195,0.888,0.443,0.9,1.2,-6.7,708,835,0
L,,2367746,0.089,0.875,0.469,1.0,1.9,-6.5,709,835,0
L,,2367756,-0.009,0.904,0.464,1.5,3.3,-6.2,710,836,0
L,,2367766,-0.008,0.940,0.440,1.9,4.5,-6.1,708,839,0
L,,2367776,0.061,0.939,0.451,2.3,5.2,-5.9,712,839,0
L,,2367786,0.116,0.945,0.454,2.5,5.3,-5.9,712,839,0
L,,2367796,0.160,0.951,0.430,2.8,5.2,-5.6,712,843,0
L,,2367806,0.194,0.943,0.408,3.3,4.8,-5.8,715,843,0
L,,2367816,0.236,0.900,0.420,3.7,4.0,-5.9,715,843,0
L,,2367826,0.207,0.908,0.405,3.5,3.3,-5.9,716,845,0
L,,2367836,0.063,0.963,0.354,3.6,3.0,-6.2,719,851,0
L,,2367846,0.043,0.996,0.331,4.0,2.8,-6.4,719,849,0
L,,2367856,0.043,0.990,0.307,4.1,2.9,-6.3,716,849,0
L,,2367866,0.042,0.971,0.318,4.1,2.7,-6.3,718,848,0
L,,2367876,0.013,0.956,0.306,3.8,2.6,-6.4,719,851,0
L,,2367886,-0.006,0.957,0.299,3.6,2.6,-6.2,719,850,0
L,,2367896,-0.020,0.953,0.305,3.5,2.5,-6.2,718,852,0
L,,2367906,-0.008,0.960,0.305,3.1,2.3,-6.3,715,853,0
L,,2367916,-0.025,0.977,0.319,2.9,2.3,-6.1,717,856,0
L,,2367926,-0.056,0.991,0.348,3.2,2.4,-6.0,716,857,0
L,,2367936,-0.070,0.953,0.323,3.0,2.7,-5.9,717,859,0
L,,2367946,-0.095,1.010,0.341,2.6,3.1,-5.6,716,864,0
L,,2367956,-0.073,0.993,0.348,3.1,3.3,-5.9,716,863,0
L,,2367966,-0.034,0.949,0.358,4.2,3.4,-6.1,712,862,0
L,,2367976,-0.040,0.964,0.365,3.0,3.5,-6.1,708,862,0
L,,2367986,-0.043,0.962,0.398,3.2,3.9,-6.6,705,864,0
L,,2367996,-0.061,1.002,0.397,3.1,4.3,-6.5,702,863,0
L,,2368006,-0.026,1.003,0.384,3.2,4.5,-7.0,696,867,0
L,,2368016,0.000,1.002,0.390,3.3,4.4,-7.5,665,853,0
L,,2368026,-0.034,1.029,0.393,3.5,4.4,-8.0,625,859,0
L,,2368036,-0.005,1.030,0.385,3.8,4.3,-8.5,572,861,0
L,,2368046,-0.011,1.070,0.312,4.2,3.8,-9.1,492,861,0
L,,2368056,0.029,1.118,0.232,4.3,3.2,-9.7,384,870,0
L,,2368066,0.023,1.149,0.209,4.5,2.6,-10.6,321,868,0
L,,2368076,0.012,1.140,0.196,4.6,2.1,-11.4,179,861,0
L,,2368086,-0.003,1.164,0.208,5.1,1.6,-12.1,166,865,0
L,,2368096,-0.050,1.172,0.277,5.6,1.5,-12.6,130,872,0
L,,2368106,-0.067,1.228,0.396,6.1,1.6,-12.7,127,847,0
L,,2368116,-0.078,1.256,0.379,6.7,1.8,-11.6,100,727,0
L,,2368126,-0.040,1.552,0.418,6.0,3.1,-15.1,126,835,0
L,,2368136,0.071,1.544,0.408,7.9,3.9,-16.2,122,852,0
L,,2368146,0.105,1.723,0.441,8.8,4.0,-18.0,119,828,0
L,,2368156,0.253,1.835,0.459,10.1,3.8,-19.6,79,736,0
L,,2368166,0.352,1.941,0.425,11.2,3.5,-20.9,70,793,0
L,,2368176,0.610,2.041,0.443,12.2,2.0,-22.9,54,656,0
L,,2368186,0.628,2.119,0.470,13.3,-0.2,-25.1,63,789,0
L,,2368196,0.517,2.211,0.524,14.2,-1.4,-26.2,73,856,0
L,,2368206,0.459,2.126,0.625,13.5,-3.0,-28.6,79,854,0
L,,2368216,0.355,1.995,0.606,9.5,-1.9,-29.8,75,783,0
L,,2368226,0.257,1.995,0.466,7.2,0.7,-29.5,70,712,0
L,,2368236,0.215,1.809,0.223,5.6,3.4,-28.1,71,846,0
L,,2368246,0.156,1.575,0.102,4.6,4.4,-25.8,68,808,0
L,,2368256,0.243,1.350,0.135,4.4,2.5,-21.2,63,755,0
L,,2368266,0.300,0.895,0.193,2.7,0.6,-19.4,81,720,0
L,,2368276,0.306,0.502,0.176,2.0,-0.1,-15.1,101,728,0
L,,2368286,0.400,0.095,0.173,1.3,2.9,-10.0,148,725,0
L,,2368296,-0.530,0.022,0.480,-5.1,4.2,-11.8,132,732,0
L,,2368306,0.275,0.086,0.221,-3.5,4.3,-3.9,141,734,0
L,,2368316,0.320,0.369,0.116,-2.6,8.3,-0.7,143,733,0
L,,2368326,0.248,0.127,0.143,-4.5,8.9,2.3,190,723,0
L,,2368336,0.261,0.269,-0.006,-5.2,10.0,5.7,185,732,0
L,,2368346,0.272,0.268,-0.121,-5.6,11.4,8.9,200,726,0
L,,2368356,0.171,0.325,-0.017,-5.7,12.7,11.5,190,727,0
L,,2368366,0.092,0.297,0.030,-6.2,13.2,14.7,163,734,0
L,,2368376,0.111,0.300,0.079,-7.3,14.1,17.5,172,737,0
L,,2368386,0.070,0.427,0.000,-8.5,14.2,19.7,163,746,0
L,,2368396,0.062,0.427,-0.031,-9.5,14.6,22.4,168,756,0
L,,2368406,0.071,0.494,-0.055,-10.1,15.3,24.5,187,756,0
L,,2368416,0.087,0.517,-0.001,-11.4,15.4,26.1,199,753,0
L,,2368460,0.137,0.896,-0.080,-15.7,11.4,31.5,235,750,0
L,,2368521,-0.032,1.362,-0.102,-18.5,6.8,33.7,266,748,0
L,,2368583,-0.066,1.583,-0.034,-19.0,8.6,32.9,231,755,0
L,,2368641,-0.234,1.621,-0.240,-18.0,3.5,25.2,182,759,0
L,,2368701,-1.398,1.683,-0.554,-5.4,-6.6,7.0,197,757,0
L,,2368760,1.809,1.247,0.578,0.4,9.5,1.2,614,757,0
L,,2368820,0.202,0.968,0.143,1.7,1.7,-15.0,603,708,0
L,,2368880,-0.193,0.928,0.525,1.0,-3.5,-8.6,705,831,0
L,,2368941,0.281,0.937,0.326,2.6,5.6,-6.3,710,839,0
L,,2369000,-0.022,0.935,0.443,2.5,3.0,-6.5,721,852,0
L,,2369061,0.092,0.935,0.389,4.6,3.4,-5.4,726,864,0
L,,2369151,-0.073,0.974,0.319,2.7,2.3,-5.0,705,873,0
L,,2369210,-0.058,0.984,0.371,1.5,2.2,-4.6,522,873,0
L,,2369271,-0.049,0.985,0.389,2.2,2.8,-7.2,240,861,0
L,,2369333,-0.025,1.093,0.366,4.7,3.3,-10.2,134,884,0
L,,2369391,-0.019,1.411,0.426,6.9,4.1,-16.8,90,775,0
L,,2369451,0.382,1.679,0.137,8.4,1.8,-23.0,56,597,0
L,,2369510,-0.059,1.815,0.094,0.0,6.3,-24.0,66,753,0
L,,2369571,-1.015,-0.074,0.374,-7.2,7.9,-11.9,117,760,0
L,,2369629,0.157,0.337,0.088,-5.0,16.5,13.2,161,750,0
L,,2369691,0.066,0.591,-0.097,-10.0,13.9,26.6,167,759,0
L,,2369750,0.096,1.026,-0.065,-15.3,5.6,33.2,269,749,0
L,,2369811,-0.047,1.400,-0.016,-16.1,4.0,33.0,292,752,0
L,,2369871,-0.077,1.552,-0.023,-19.3,2.2,31.4,297,757,0
L,,2369931,-0.490,1.742,-0.074,-15.8,2.9,24.4,295,765,0
L,,2369991,-1.424,1.628,-0.552,1.3,4.8,-0.3,284,764,0
L,,2370052,0.137,1.283,-0.135,3.3,-1.5,-7.2,645,792,0
L,,2370111,0.153,0.992,0.426,-2.4,0.0,-15.1,691,825,0
L,,2370169,-0.164,0.999,0.478,2.4,1.9,-10.9,704,832,0
L,,2370231,0.218,0.968,0.435,2.3,1.1,-8.5,709,838,0
L,,2370291,-0.044,0.919,0.392,2.2,4.2,-4.2,719,852,0
L,,2370351,0.045,0.890,0.426,3.4,2.3,-3.2,725,862,0
L,,2370411,0.070,0.963,0.343,1.5,2.2,-4.0,726,869,0
L,,2370471,0.001,0.950,0.397,1.1,2.7,-4.5,710,875,0
L,,2370531,0.015,0.978,0.409,2.6,3.2,-6.5,655,865,0
L,,2370590,-0.060,1.013,0.379,2.7,2.7,-9.0,311,873,0
L,,2370650,-0.121,1.138,0.377,3.2,2.2,-12.6,148,803,0
L,,2370712,0.000,1.464,0.386,4.4,3.7,-17.5,130,831,0
L,,2370771,0.224,1.890,0.487,7.3,4.9,-21.0,95,823,0
L,,2370861,0.298,0.431,0.223,2.5,6.5,-6.5,90,729,0
L,,2370920,0.167,0.271,0.056,-7.0,15.6,8.3,121,752,0
L,,2370981,0.086,0.500,-0.006,-11.9,19.1,22.9,180,746,0
L,,2371041,0.169,0.913,-0.129,-16.6,17.3,31.8,199,747,0
L,,2371101,0.082,1.321,-0.180,-18.7,11.4,34.2,204,757,0
L,,2371161,-0.040,1.632,0.001,-18.6,14.6,32.6,215,762,0
L,,2371221,-0.224,1.688,-0.246,-16.6,0.8,25.9,244,762,0
L,,2371281,-1.310,1.576,-0.609,-1.3,1.6,3.3,251,760,0
L,,2371371,0.484,1.559,0.663,2.1,-1.3,-10.3,677,814,0
L,,2371431,-0.142,1.008,0.641,1.9,-11.7,-11.6,698,823,0
L,,2371493,0.157,0.909,0.328,3.9,8.5,-5.7,700,824,0
L,,2371550,0.039,0.938,0.467,0.1,1.1,-5.5,699,821,0
L,,2371611,0.121,0.938,0.402,0.4,5.3,-3.2,709,834,0
L,,2371670,0.087,0.939,0.387,4.3,3.1,-4.4,718,845,0
L,,2371731,0.008,0.964,0.357,3.9,1.7,-5.5,721,857,0
L,,2371791,-0.077,0.965,0.306,2.9,2.2,-5.7,715,862,0
L,,2371851,-0.086,1.003,0.331,2.4,2.2,-6.4,683,858,0
L,,2371911,-0.044,1.100,0.280,4.5,3.0,-8.4,414,823,0
L,,2372012,0.161,1.680,0.369,7.6,6.0,-17.7,120,824,0
L,,2372031,0.337,1.915,0.416,9.1,4.6,-20.3,116,847,0
L,,2372090,0.180,1.515,0.416,3.3,8.2,-22.8,110,853,0
L,,2372151,0.303,0.359,-0.003,-0.7,10.9,-11.0,371,742,0
L,,2372212,0.549,0.365,-0.189,-8.6,16.4,10.7,377,754,0
L,,2372271,0.178,0.581,-0.122,-13.6,7.9,23.4,424,752,0
L,,2372361,0.110,1.205,-0.100,-18.5,12.9,35.6,453,757,0
L,,2372420,0.134,1.540,0.052,-20.2,14.3,34.5,448,756,0
L,,2372480,0.001,1.792,-0.168,-22.0,2.1,27.1,426,748,0
L,,2372541,-1.616,1.781,-0.687,-7.5,-6.8,7.7,377,749,0
L,,2372601,1.736,0.562,0.593,5.1,-3.0,-9.1,637,789,0
L,,2372661,0.216,1.387,0.210,6.1,5.7,-12.6,684,814,0
L,,2372721,-0.280,1.062,0.577,1.5,-0.9,-10.2,698,823,0
L,,2372781,0.229,0.845,0.366,1.5,1.7,-6.5,702,828,0
L,,2372840,0.015,0.889,0.514,3.1,4.5,-5.8,716,843,0
L,,2372902,0.088,0.936,0.378,4.9,3.1,-4.6,731,857,0
L,,2372960,0.031,0.929,0.320,4.1,2.7,-4.5,729,861,0
L,,2373021,-0.018,0.943,0.328,2.9,2.0,-5.0,720,859,0
L,,2373081,-0.020,0.973,0.401,2.9,2.6,-5.9,706,862,0
L,,2373141,-0.005,1.050,0.293,4.0,1.1,-9.5,579,862,0
L,,2373201,-0.141,1.229,0.368,6.1,2.4,-12.0,182,857,0
L,,2373261,0.195,1.683,0.336,10.2,3.2,-17.0,130,849,0
L,,2373321,0.346,1.878,0.458,10.2,1.8,-28.2,90,717,0
L,,2373411,0.165,-0.022,0.169,-1.1,1.8,-7.0,117,739,0
L,,2373471,0.406,0.352,-0.028,-7.1,14.7,13.2,160,703,0
L,,2373531,0.117,0.661,-0.044,-13.4,13.1,27.6,274,685,0
L,,2373591,0.122,1.042,0.033,-18.0,12.7,35.2,314,698,0
L,,2373653,-0.163,1.645,-0.072,-22.3,16.1,36.8,303,752,0
L,,2373710,0.153,1.783,-0.173,-24.4,10.1,33.0,194,764,0
L,,2373770,-1.255,1.986,-0.585,-13.0,-9.0,15.3,167,761,0
L,,2373831,-0.581,1.212,0.715,7.9,-8.9,-15.5,489,750,0
L,,2373891,0.333,1.694,0.419,0.0,-11.0,-14.3,680,812,0
L,,2373951,-0.061,1.011,0.650,-0.4,-8.2,-13.8,697,821,0
L,,2374011,0.054,0.937,0.431,4.0,8.9,-8.1,710,835,0
L,,2374071,0.185,0.905,0.435,2.3,0.0,-8.7,714,840,0
L,,2374161,0.127,0.906,0.359,4.5,2.0,-6.5,724,855,0
L,,2374221,-0.067,0.972,0.284,4.2,2.5,-5.5,726,865,0
L,,2374311,-0.163,1.022,0.262,1.6,2.0,-5.8,708,868,0
L,,2374371,-0.039,1.025,0.337,2.0,3.0,-6.8,603,860,0
L,,2374432,-0.104,1.173,0.321,5.1,1.6,-10.0,195,875,0
L,,2374491,0.012,1.667,0.435,7.4,3.8,-14.7,131,785,0
L,,2374551,0.309,2.009,0.381,9.0,0.9,-26.5,101,848,0
L,,2374611,0.147,1.118,0.078,-0.3,15.2,-18.4,84,769,0
L,,2374670,0.056,0.153,0.336,-6.8,12.1,-3.0,455,723,0
L,,2374731,0.299,0.310,-0.170,-8.8,7.1,17.0,470,743,0
L,,2374791,0.107,0.682,0.004,-13.4,10.5,29.8,488,752,0
L,,2374851,0.034,1.149,-0.010,-19.0,14.6,36.7,491,749,0
L,,2374911,0.181,1.629,-0.057,-21.3,13.6,35.7,482,739,0
L,,2374971,-0.320,1.912,-0.212,-21.6,-5.1,28.6,474,728,0
L,,2375031,-1.585,1.578,-0.678,-5.1,-5.3,5.1,457,718,0
L,,2375092,1.350,1.338,0.266,-1.6,1.8,-0.4,652,792,0
L,,2375151,0.339,0.955,0.035,2.4,-1.0,-16.2,689,818,0
L,,2375210,-0.220,0.895,0.397,4.7,2.0,-10.0,708,834,0
L,,2375271,0.376,1.018,0.324,2.9,1.8,-7.6,711,839,0
L,,2375331,-0.010,0.946,0.321,3.2,4.0,-6.3,717,851,0
L,,2375391,-0.035,0.920,0.381,3.8,1.7,-5.8,718,861,0
L,,2375451,0.014,0.984,0.219,2.2,1.0,-5.6,713,863,0
L,,2375511,-0.110,0.931,0.268,2.5,1.3,-5.9,688,861,0
L,,2375571,-0.117,0.978,0.292,1.6,2.1,-5.2,618,865,0
L,,2375661,-0.088,1.064,0.300,4.4,1.2,-8.7,307,881,0
L,,2375721,-0.101,1.315,0.279,6.4,3.0,-12.2,169,872,0
L,,2375781,0.161,1.852,0.432,7.6,3.9,-19.8,137,875,0
L,,2375873,-0.050,0.964,0.105,0.1,14.9,-15.5,139,751,0
L,,2375931,0.399,0.050,0.017,-6.3,22.2,3.9,231,773,0
L,,2375991,0.350,0.285,-0.204,-14.1,9.5,16.9,360,762,0
L,,2376051,0.362,0.775,-0.271,-17.4,8.7,28.2,416,768,0
L,,2376111,0.039,1.342,-0.117,-17.9,14.9,33.7,427,766,0
L,,2376171,0.067,1.548,0.021,-19.1,16.6,31.4,388,769,0
L,,2376231,-0.175,1.653,-0.008,-19.0,7.5,25.7,384,773,0
L,,2376291,-0.766,1.450,-0.259,-8.6,6.9,14.0,366,769,0
L,,2376351,-0.761,1.083,0.314,5.8,-6.2,-11.4,515,747,0
L,,2376411,0.304,1.879,0.210,1.8,-9.4,-13.2,688,820,0
L,,2376471,-0.142,1.021,0.556,-0.6,-7.0,-11.9,699,824,0
L,,2376533,0.255,0.749,0.357,1.3,11.6,-4.9,711,836,0
L,,2376591,-0.076,0.938,0.455,1.7,4.3,-4.1,711,839,0
L,,2376651,0.110,0.932,0.447,4.4,4.4,-4.0,725,854,0
L,,2376711,0.066,0.966,0.402,4.4,1.0,-6.1,717,850,0
L,,2376771,-0.084,0.955,0.345,3.2,1.2,-5.8,717,862,0
L,,2376831,-0.127,0.959,0.441,2.4,3.5,-5.1,690,856,0
L,,2376932,-0.102,1.049,0.324,3.4,2.3,-10.3,237,878,0
L,,2376951,-0.074,1.115,0.290,3.9,1.8,-11.1,181,874,0
L,,2377011,0.041,1.530,0.383,5.5,3.1,-17.6,87,639,0
L,,2377071,0.195,1.797,0.467,6.9,2.5,-23.3,96,779,0
L,,2377131,0.321,1.199,-0.189,3.3,2.5,-15.5,105,759,0
L,,2377191,-0.180,0.478,0.874,-6.3,2.2,-0.7,215,745,0
L,,2377252,0.052,0.401,0.073,-3.1,19.2,19.4,301,742,0
L,,2377311,0.177,0.719,0.000,-9.0,20.7,30.0,356,742,0
L,,2377371,0.088,1.089,-0.026,-14.9,10.9,35.2,389,742,0
L,,2377431,0.006,1.558,-0.035,-17.3,7.5,33.4,384,749,0
L,,2377491,-0.259,1.689,-0.095,-18.4,-3.5,27.9,364,750,0
L,,2377551,-1.253,1.684,-0.319,-8.1,-4.6,11.9,339,747,0
L,,2377611,0.745,0.709,0.782,8.4,-7.3,-8.9,607,757,0
L,,2377671,0.208,1.827,0.292,-0.6,3.5,-13.1,685,815,0
L,,2377731,-0.088,0.987,0.478,0.6,-3.7,-10.8,712,836,0
L,,2377791,0.225,0.884,0.359,2.0,6.7,-7.7,711,836,0
L,,2377851,0.054,0.923,0.408,1.5,2.1,-6.9,718,840,0
L,,2377911,0.082,0.998,0.329,3.8,3.6,-6.1,724,855,0
L,,2377972,0.050,0.955,0.360,3.8,1.3,-7.1,726,866,0
L,,2378031,-0.082,0.982,0.271,3.2,1.5,-7.1,714,867,0
L,,2378091,-0.111,0.989,0.308,2.5,2.1,-6.6,683,876,0
L,,2378181,-0.046,1.088,0.251,4.3,2.4,-8.8,265,878,0
L,,2378241,-0.145,1.345,0.367,6.5,3.3,-12.8,121,709,0
L,,2378301,0.314,1.778,0.326,11.3,2.4,-20.4,79,762,0
L,,2378361,0.341,1.844,0.313,6.6,3.3,-25.5,104,826,0
L,,2378421,0.270,0.288,0.112,-0.3,-0.7,-7.7,83,742,0
L,,2378481,0.160,0.288,0.246,-7.4,9.5,7.6,182,772,0
L,,2378541,0.200,0.469,-0.022,-13.0,11.9,23.7,207,770,0
L,,2378601,0.114,0.979,-0.114,-17.1,12.0,34.0,324,766,0
L,,2378663,0.054,1.486,-0.102,-19.0,14.2,37.7,317,774,0
L,,2378720,0.130,1.784,0.064,-20.7,9.6,35.4,228,781,0
L,,2378811,-1.525,1.774,-0.754,-7.5,5.3,9.7,213,770,0
L,,2378871,1.532,0.122,1.185,2.3,-14.0,-14.7,651,796,0
L,,2378961,-0.117,1.344,0.426,0.0,-11.5,-14.0,672,791,0
L,,2379021,0.108,0.948,0.452,1.9,7.4,-5.8,710,832,0
L,,2379081,0.179,0.910,0.479,0.1,-0.8,-5.7,711,837,0
L,,2379171,0.141,0.950,0.392,2.5,3.7,-6.0,710,834,0
L,,2379261,0.000,0.946,0.361,3.0,3.3,-5.7,717,850,0
L,,2379351,-0.050,0.952,0.395,1.8,3.5,-6.0,717,878,0
L,,2379441,-0.019,1.107,0.321,4.4,2.8,-11.0,209,827,0
L,,2379501,0.001,1.556,0.337,6.5,4.0,-14.8,147,863,0
L,,2379563,0.523,2.026,0.345,10.8,3.3,-24.7,84,724,0
L,,2379621,0.037,1.706,-0.075,4.3,4.2,-22.4,113,815,0
L,,2379711,0.227,0.328,0.179,-5.4,12.4,5.9,148,722,0
L,,2379771,0.120,0.431,0.017,-8.4,20.4,23.4,174,735,0
L,,2379832,0.291,0.779,-0.094,-15.0,17.9,32.7,300,727,0
L,,2379891,0.127,1.366,-0.117,-18.8,12.7,37.6,350,749,0
L,,2379951,0.301,1.709,-0.059,-18.7,13.5,35.2,312,750,0
L,,2380041,-1.046,1.704,-0.363,-14.0,-8.4,16.1,224,765,0
L,,2380101,-1.169,1.304,0.045,2.6,-4.2,-15.9,611,781,0
L,,2380161,-0.222,2.072,0.641,-1.8,5.5,-20.8,694,825,0
L,,2380221,-0.277,0.969,0.726,0.1,-8.1,-13.5,686,808,0
L,,2380281,0.334,0.847,0.339,2.7,9.9,-6.1,706,830,0
L,,2380342,-0.021,0.980,0.402,0.9,3.1,-5.3,718,845,0
L,,2380401,0.218,0.963,0.451,2.5,3.4,-4.9,722,854,0
L,,2380461,0.094,0.974,0.380,3.9,2.7,-6.4,729,870,0
L,,2380521,0.003,0.984,0.347,3.7,1.8,-6.5,721,878,0
L,,2380582,-0.101,0.953,0.272,2.4,1.8,-6.2,651,883,0
L,,2380641,-0.128,0.951,0.296,0.6,2.5,-5.4,327,870,0
L,,2380701,-0.101,1.013,0.323,1.2,1.7,-6.8,214,860,0
L,,2380761,-0.111,1.127,0.340,2.1,1.4,-10.0,177,850,0
L,,2380821,0.003,1.478,0.378,2.5,2.8,-15.5,122,798,0
L,,2380881,0.136,1.717,0.602,5.1,6.5,-22.0,115,850,0
L,,2380941,0.080,1.127,0.019,1.4,14.3,-15.4,108,750,0
L,,2381002,0.086,0.427,0.109,-4.7,17.5,0.6,151,757,0
L,,2381061,0.221,0.321,-0.123,-8.6,20.4,15.3,143,699,0
L,,2381163,0.305,0.912,-0.160,-16.8,12.1,31.2,211,758,0
L,,2381181,0.135,1.045,-0.135,-17.5,9.8,32.7,214,760,0
L,,2381241,-0.182,1.591,-0.056,-16.9,10.3,33.1,211,768,0
L,,2381301,-0.093,1.671,-0.039,-17.5,2.5,30.7,199,776,0
L,,2381361,-0.679,1.461,-0.050,-12.2,3.1,19.7,206,774,0
L,,2381421,-0.968,1.288,-0.279,4.9,-2.9,-6.2,206,752,0
L,,2381481,0.512,1.354,0.220,0.7,-4.6,-7.6,667,800,0
L,,2381541,-0.060,1.134,0.532,-0.1,-10.5,-13.5,709,834,0
L,,2381601,0.021,0.979,0.369,2.6,5.7,-5.8,713,835,0
L,,2381662,0.130,0.940,0.401,-1.3,0.0,-3.5,710,831,0
L,,2381723,0.179,0.903,0.516,1.5,5.3,-2.5,713,836,0
L,,2381781,0.147,0.930,0.386,2.6,3.2,-4.3,718,839,0
L,,2381841,0.075,0.917,0.422,3.1,3.3,-4.9,713,838,0
L,,2381901,0.061,0.954,0.339,3.1,4.1,-4.4,719,843,0
L,,2381961,-0.065,0.967,0.356,2.1,2.0,-4.8,723,851,0
L,,2382021,0.056,1.014,0.375,3.5,2.5,-7.3,728,867,0
L,,2382082,-0.012,1.133,0.344,5.9,2.1,-12.3,581,877,0
L,,2382141,-0.018,1.589,0.305,7.4,3.8,-17.8,183,889,0
L,,2382231,0.166,1.368,0.297,4.3,2.3,-26.4,125,856,0
L,,2382291,0.232,0.145,0.208,1.2,3.2,-9.1,359,735,0
L,,2382380,0.126,0.398,0.029,-5.6,17.7,20.0,332,690,0
L,,2382441,0.213,0.702,0.050,-11.5,14.3,29.4,325,624,0
L,,2382502,0.054,1.229,0.016,-15.3,5.9,34.0,413,763,0
L,,2382561,-0.091,1.549,0.184,-15.9,4.4,30.3,366,764,0
L,,2382622,-0.519,1.475,-0.065,-17.2,-4.4,22.5,326,764,0
L,,2382681,-1.004,1.394,-0.105,-6.5,-1.4,8.5,302,766,0
L,,2382741,1.209,0.764,0.556,6.8,-12.2,-6.7,625,789,0
L,,2382801,-0.078,1.008,0.594,-0.6,-0.5,-14.4,696,821,0
L,,2382861,0.037,0.818,0.521,1.1,-3.0,-10.4,706,831,0
L,,2382921,0.335,0.904,0.261,0.4,6.3,-5.9,713,835,0
L,,2382981,-0.020,0.928,0.461,-0.4,0.6,-4.5,695,813,0
L,,2383041,0.358,0.915,0.406,2.2,7.5,-3.0,694,816,0
L,,2383101,0.079,0.993,0.338,3.4,2.0,-6.0,717,845,0
L,,2383163,0.008,0.955,0.305,3.4,1.6,-6.3,718,849,0
L,,2383221,-0.064,0.985,0.278,2.3,2.0,-8.8,720,866,0
L,,2383281,-0.030,1.017,0.359,3.6,3.3,-7.9,660,868,0
L,,2383341,-0.051,1.222,0.348,5.1,1.9,-12.4,268,873,0
L,,2383401,0.191,1.732,0.368,8.4,4.5,-18.9,169,878,0
L,,2383461,0.096,1.794,0.309,7.1,2.2,-27.1,123,880,0
L,,2383521,0.269,0.771,0.037,2.5,7.9,-12.4,119,729,0
L,,2383582,-0.063,0.377,0.413,-6.7,13.5,3.9,388,745,0
L,,2383641,0.169,0.295,-0.025,-8.5,19.8,18.9,366,670,0
L,,2383702,0.171,0.727,-0.126,-15.8,12.3,26.8,333,695,0
L,,2383761,0.004,1.174,-0.098,-18.4,7.5,31.0,378,759,0
L,,2383821,0.001,1.452,-0.018,-16.7,7.1,30.1,355,764,0
L,,2383882,-0.256,1.600,0.013,-17.7,-1.1,25.6,337,767,0
L,,2383941,-0.968,1.512,-0.183,-10.6,2.9,11.3,295,760,0
L,,2384001,0.522,1.061,1.012,6.1,-8.7,-9.5,614,785,0
L,,2384061,0.270,1.776,0.201,-1.7,1.0,-13.0,695,821,0
L,,2384122,-0.068,1.132,0.533,-1.0,-9.1,-12.2,679,798,0
L,,2384181,0.215,0.950,0.383,0.5,10.5,-5.3,713,834,0
L,,2384242,0.045,0.941,0.527,0.7,1.4,-4.8,716,839,0
L,,2384301,0.246,0.920,0.401,4.1,5.3,-4.1,721,848,0
L,,2384361,0.038,0.947,0.398,3.5,1.6,-5.1,725,852,0
L,,2384421,0.048,0.957,0.333,2.8,1.6,-5.2,728,857,0
L,,2384481,0.016,0.959,0.385,2.3,1.8,-6.1,727,866,0
L,,2384542,-0.071,1.005,0.410,3.5,3.1,-8.4,701,867,0
L,,2384601,0.008,1.242,0.275,4.2,2.3,-11.3,300,881,0
L,,2384662,0.000,1.488,0.354,5.3,4.7,-17.2,146,810,0
L,,2384721,0.344,1.830,0.251,6.6,2.7,-23.4,123,891,0
L,,2384782,0.124,1.316,-0.075,2.2,1.1,-19.7,105,763,0
L,,2384841,-0.143,0.572,0.564,-4.9,9.5,-3.0,355,748,0
L,,2384901,0.090,0.311,0.026,-5.7,22.5,19.7,402,733,0
L,,2384961,0.247,0.700,-0.027,-13.0,17.2,29.5,436,739,0
L,,2385021,0.082,1.179,-0.038,-18.0,10.3,35.4,445,745,0
L,,2385082,0.052,1.551,0.070,-18.4,14.2,35.0,379,753,0
L,,2385141,-0.292,1.758,-0.210,-20.2,2.9,25.2,344,758,0
L,,2385202,-1.412,1.579,-0.444,-5.1,-4.6,5.4,362,766,0
L,,2385263,2.158,0.968,0.273,3.5,-1.5,-11.9,649,790,0
L,,2385322,0.081,1.055,0.298,2.2,-2.3,-15.8,705,830,0
L,,2385381,-0.173,0.803,0.542,2.6,-0.4,-8.5,710,834,0
L,,2385441,0.265,0.868,0.287,0.0,3.5,-5.6,712,833,0
L,,2385500,-0.053,0.919,0.511,0.1,4.0,-5.1,719,841,0
L,,2385561,0.200,0.937,0.461,2.3,5.5,-3.6,728,854,0
L,,2385622,0.050,0.991,0.396,3.3,2.8,-5.4,733,859,0
L,,2385681,0.015,0.956,0.349,3.1,2.6,-5.8,733,865,0
L,,2385742,-0.107,0.974,0.348,2.4,2.8,-6.3,726,874,0
L,,2385801,-0.038,1.000,0.367,2.3,3.2,-7.7,662,878,0
L,,2385861,-0.057,1.193,0.356,3.6,1.8,-12.3,248,896,0
L,,2385952,0.452,1.980,0.444,7.6,5.3,-23.9,106,811,0
L,,2386013,-0.437,1.465,-0.018,-0.6,13.3,-19.6,103,850,0
L,,2386072,-0.226,-0.204,0.291,-1.2,13.0,-3.2,194,775,0
L,,2386131,0.475,0.290,-0.212,-5.5,20.1,13.7,216,774,0
L,,2386191,-0.049,0.509,-0.080,-14.1,18.3,25.6,401,763,0
L,,2386251,0.231,1.127,-0.144,-18.1,14.5,34.3,424,763,0
L,,2386311,0.127,1.500,-0.024,-19.1,12.9,35.9,400,764,0
L,,2386372,0.095,1.908,-0.060,-22.1,13.0,33.1,267,757,0
L,,2386431,-1.435,1.850,-0.769,-9.4,0.5,13.1,213,772,0
L,,2386492,3.356,0.455,1.229,6.3,-5.8,-8.6,606,736,0
L,,2386551,0.196,1.110,-0.034,-0.1,-7.3,-15.7,699,823,0
L,,2386612,-0.194,0.836,0.542,2.6,0.2,-8.8,710,831,0
L,,2386673,0.326,0.921,0.271,0.9,4.9,-6.2,725,849,0
L,,2386731,-0.054,0.906,0.452,0.8,3.8,-4.7,726,851,0
L,,2386791,0.098,0.912,0.447,2.9,4.3,-4.2,738,864,0
L,,2386851,0.022,0.964,0.366,3.7,2.6,-5.3,739,866,0
L,,2386941,-0.079,0.968,0.342,2.6,1.2,-5.3,733,869,0
L,,2387001,-0.089,0.979,0.345,2.2,2.3,-5.5,726,883,0
L,,2387061,0.005,1.042,0.348,4.1,3.0,-7.7,539,888,0
L,,2387122,-0.089,1.268,0.340,6.2,2.2,-10.4,184,893,0
L,,2387181,0.240,1.814,0.366,8.2,3.2,-19.8,100,824,0
L,,2387242,0.098,1.729,0.367,4.8,3.7,-25.0,133,869,0
L,,2387301,0.106,0.268,0.248,1.3,5.7,-10.6,273,730,0
L,,2387362,0.377,0.237,0.228,-4.9,18.7,9.5,416,738,0
L,,2387423,0.306,0.488,-0.029,-13.8,16.2,24.9,397,678,0
L,,2387481,0.181,1.044,-0.053,-17.7,7.3,32.6,453,738,0
L,,2387541,0.063,1.477,0.034,-17.0,7.9,36.0,470,743,0
L,,2387601,0.048,1.847,0.074,-20.3,7.8,32.6,443,737,0
L,,2387662,-0.801,1.775,-0.341,-15.5,-1.7,18.1,431,733,0
L,,2387721,-0.699,1.321,-0.002,3.8,-12.1,-9.5,527,746,0
L,,2387782,0.041,1.845,0.191,3.0,-3.5,-12.1,686,812,0
L,,2387841,-0.158,1.133,0.647,1.5,-10.8,-10.7,705,827,0
L,,2387902,0.101,0.962,0.424,2.9,9.2,-6.7,707,828,0
L,,2387961,0.083,0.967,0.401,1.1,1.9,-6.0,715,840,0
L,,2388021,0.094,0.968,0.400,2.3,5.9,-3.7,729,856,0
L,,2388082,0.149,0.953,0.376,2.8,1.4,-4.9,740,866,0
L,,2388143,0.016,0.955,0.359,2.5,2.2,-5.4,740,870,0
L,,2388202,-0.073,0.956,0.345,2.2,2.3,-5.6,735,879,0
L,,2388261,-0.040,0.979,0.350,2.6,3.5,-6.8,707,877,0
L,,2388322,-0.008,1.034,0.313,4.2,1.7,-10.0,360,892,0
L,,2388381,-0.121,1.425,0.351,2.5,2.1,-15.6,183,898,0
L,,2388442,0.312,1.996,0.317,7.1,2.3,-22.5,129,884,0
L,,2388501,-0.115,1.761,0.216,1.1,5.1,-22.8,132,873,0
L,,2388561,0.305,0.326,0.032,-2.8,7.4,-4.6,437,735,0
L,,2388621,0.358,0.351,-0.039,-5.2,21.8,11.5,382,740,0
L,,2388681,0.268,0.571,-0.007,-11.2,13.7,24.9,400,744,0
L,,2388742,0.143,1.016,0.020,-15.2,6.8,32.4,409,740,0
L,,2388803,-0.003,1.366,0.056,-17.4,8.6,36.7,433,749,0
L,,2388862,0.012,1.798,0.054,-20.7,13.9,34.3,412,742,0
L,,2388921,-0.659,1.855,-0.450,-16.1,1.1,19.6,386,737,0
L,,2388981,-1.088,1.399,-0.589,3.5,-9.8,-9.3,298,595,0
L,,2389041,0.176,1.525,-0.200,4.8,-7.2,-9.8,675,808,0
L,,2389101,0.034,1.246,0.258,0.6,-6.6,-13.6,714,837,0
L,,2389162,-0.093,0.928,0.553,1.3,7.9,-6.9,711,834,0
L,,2389221,0.227,0.953,0.391,1.6,2.4,-5.7,716,839,0
L,,2389282,0.107,0.943,0.411,2.3,4.7,-4.3,727,854,0
L,,2389341,0.072,0.932,0.419,3.2,2.6,-4.7,730,857,0
L,,2389402,-0.002,0.945,0.378,3.9,2.1,-4.7,732,867,0
L,,2389461,-0.028,0.948,0.314,2.3,1.4,-5.1,733,873,0
L,,2389523,-0.089,0.994,0.347,2.3,1.9,-6.0,720,881,0
L,,2389612,-0.058,1.082,0.279,3.9,1.5,-10.2,438,889,0
L,,2389671,-0.086,1.505,0.327,5.2,3.9,-14.0,200,876,0
L,,2389732,0.433,1.901,0.453,9.4,3.4,-22.4,119,847,0
L,,2389791,-0.022,1.613,0.099,1.3,7.7,-21.6,126,872,0
L,,2389851,0.415,0.122,-0.043,-1.7,8.0,-4.5,155,757,0
L,,2389911,0.323,0.303,-0.038,-7.5,15.9,12.5,191,767,0
L,,2389971,0.243,0.560,-0.031,-15.3,12.3,24.8,348,756,0
L,,2390032,0.237,1.008,0.020,-20.0,13.1,33.8,388,754,0
L,,2390122,0.186,1.711,0.141,-21.0,18.6,34.9,221,767,0
L,,2390181,-0.516,1.952,-0.547,-20.4,0.4,26.4,219,766,0
L,,2390242,-1.413,1.310,-0.503,4.1,-2.4,-3.5,468,747,0
L,,2390303,0.211,1.763,-0.151,7.9,-3.7,-8.8,687,819,0
L,,2390362,0.174,0.913,0.302,4.6,-7.8,-14.2,707,830,0
L,,2390421,-0.152,0.902,0.261,4.5,6.0,-11.2,718,842,0
L,,2390482,0.020,0.961,0.355,2.2,2.9,-7.7,724,853,0
L,,2390541,-0.121,0.914,0.336,1.9,2.2,-5.6,720,858,0
L,,2390601,-0.086,0.941,0.306,0.5,1.3,-3.5,717,864,0
L,,2390662,-0.099,0.967,0.323,0.9,1.4,-4.1,692,871,0
L,,2390721,-0.181,0.965,0.303,0.2,1.6,-4.2,581,870,0
L,,2390782,-0.198,0.957,0.347,-0.7,2.7,-3.5,403,884,0
L,,2390841,-0.067,1.059,0.365,0.7,2.5,-6.6,209,898,0
L,,2390902,-0.187,1.203,0.375,1.3,3.2,-10.7,178,830,0
L,,2390963,0.093,1.676,0.387,4.1,6.2,-16.4,128,893,0
L,,2391022,0.216,1.625,0.513,1.2,12.2,-20.6,114,876,0
L,,2391112,-1.123,-0.005,0.699,-12.2,19.2,-5.7,183,763,0
L,,2391171,0.390,0.320,-0.137,-8.8,19.8,14.9,192,766,0
L,,2391232,0.135,0.676,-0.060,-15.2,15.1,26.8,390,744,0
L,,2391291,0.204,1.082,-0.106,-18.2,14.0,34.4,406,744,0
L,,2391351,0.053,1.595,-0.133,-18.3,10.0,35.8,391,753,0
L,,2391412,0.033,1.781,-0.039,-20.2,-2.5,32.9,310,760,0
L,,2391471,-1.434,1.775,-0.329,-9.0,-0.9,13.7,212,707,0
L,,2391532,0.955,0.808,1.078,12.6,-13.9,-10.8,635,789,0
L,,2391591,-0.366,1.475,0.397,2.1,-3.8,-16.5,697,820,0
L,,2391652,-0.006,0.924,0.642,6.7,-0.8,-14.3,705,830,0
L,,2391713,0.336,0.992,0.060,3.5,3.5,-8.9,722,850,0
L,,2391772,-0.105,0.980,0.364,0.9,1.1,-6.0,728,857,0
L,,2391832,0.020,0.965,0.293,1.0,1.8,-4.3,717,846,0
L,,2391891,-0.006,0.980,0.299,1.5,1.6,-4.1,716,852,0
L,,2391952,-0.084,0.974,0.280,1.8,0.9,-4.8,728,876,0
L,,2392011,-0.159,0.965,0.229,1.2,1.3,-4.6,683,872,0
L,,2392072,-0.156,1.011,0.289,1.4,2.9,-3.8,513,886,0
L,,2392131,0.044,1.163,0.280,2.6,2.0,-7.9,264,849,0
L,,2392192,-0.061,1.366,0.294,5.8,4.0,-13.2,148,812,0
L,,2392251,0.297,1.839,0.345,10.4,1.9,-19.6,106,893,0
L,,2392312,0.048,1.779,0.264,3.8,6.0,-22.7,95,793,0
L,,2392374,-0.014,0.387,0.059,-1.2,5.4,-7.8,163,701,0
L,,2392431,0.344,0.254,-0.067,-4.8,12.0,9.3,220,755,0
L,,2392492,0.055,0.467,0.048,-12.3,10.9,23.2,392,747,0
L,,2392551,0.210,0.968,-0.040,-17.0,13.5,32.3,403,756,0
L,,2392612,0.062,1.517,-0.186,-20.0,9.7,34.1,374,761,0
L,,2392671,0.131,1.698,-0.129,-19.6,-3.9,31.8,375,764,0
L,,2392732,-0.910,1.821,0.137,-13.5,-5.1,22.8,289,686,0
L,,2392791,-1.112,1.409,-0.360,2.8,9.0,-4.8,237,659,0
L,,2392852,0.759,1.242,0.305,1.1,-14.4,-10.2,658,796,0
L,,2392942,-0.036,1.082,0.420,3.8,-4.2,-13.8,703,827,0
L,,2393001,0.075,0.898,0.170,2.7,8.6,-10.5,713,838,0
L,,2393062,-0.031,0.976,0.281,2.1,1.0,-5.9,722,847,0
L,,2393124,-0.017,0.945,0.304,1.1,1.6,-3.8,728,855,0
L,,2393181,-0.047,0.959,0.299,0.0,1.5,-3.2,727,857,0
L,,2393242,-0.044,0.981,0.329,-0.2,0.9,-3.3,731,864,0
L,,2393301,-0.088,0.946,0.354,-0.1,1.3,-4.2,734,868,0
L,,2393362,-0.173,1.026,0.385,1.1,4.0,-4.6,728,872,0
L,,2393452,-0.068,1.222,0.299,5.5,2.9,-11.2,235,888,0
L,,2393541,0.427,1.919,0.435,10.6,4.3,-21.7,107,857,0
L,,2393602,-0.005,1.744,0.124,2.5,5.5,-25.5,108,871,0
L,,2393662,-0.343,0.149,0.181,-5.0,10.7,-8.2,127,696,0
L,,2393721,0.376,0.402,-0.103,-8.6,12.6,13.9,227,705,0
L,,2393782,0.192,0.538,-0.024,-14.5,15.4,25.8,304,600,0
L,,2393841,0.281,1.038,-0.130,-19.3,13.9,34.6,398,700,0
L,,2393903,0.158,1.619,-0.177,-19.8,14.0,37.5,414,764,0
L,,2393961,0.133,1.951,-0.262,-20.4,1.8,34.6,399,744,0
L,,2394022,-1.681,1.797,-0.312,-10.0,-9.2,11.9,303,709,0
L,,2394082,0.321,0.047,1.710,12.0,-2.4,-6.0,525,649,0
L,,2394142,0.241,1.829,0.112,6.6,2.3,-13.8,694,818,0
L,,2394202,0.013,1.034,0.365,3.3,-6.3,-15.8,704,829,0
L,,2394261,0.121,0.812,0.106,3.9,7.2,-11.2,727,852,0
L,,2394322,-0.042,0.930,0.338,0.5,0.7,-6.3,730,856,0
L,,2394381,-0.030,0.931,0.347,0.0,2.6,-3.9,738,870,0
L,,2394442,-0.062,0.943,0.393,-0.3,1.8,-3.2,735,872,0
L,,2394501,-0.056,0.957,0.355,0.2,2.3,-3.7,727,865,0
L,,2394563,-0.122,0.970,0.375,0.0,3.1,-4.3,714,867,0
L,,2394622,-0.050,0.997,0.348,0.4,2.9,-5.6,644,880,0
L,,2394682,-0.112,1.038,0.302,1.8,2.6,-8.9,347,890,0
L,,2394742,-0.162,1.184,0.344,1.8,3.8,-12.0,154,869,0
L,,2394801,0.178,1.811,0.335,4.5,4.6,-17.4,99,792,0
L,,2394862,0.119,1.767,0.080,1.6,5.9,-21.3,86,729,0
L,,2394921,0.222,0.425,0.184,-6.0,7.2,-7.9,279,674,0
L,,2394982,0.340,0.467,0.249,-7.0,18.1,8.3,178,657,0
L,,2395041,0.188,0.594,-0.040,-11.3,23.0,23.3,330,599,0
L,,2395102,0.294,0.872,-0.202,-16.9,17.1,32.4,419,710,0
L,,2395192,-0.179,1.504,-0.069,-18.4,18.7,36.8,437,722,0
L,,2395251,-0.144,1.637,-0.499,-16.7,10.2,29.3,333,730,0
L,,2395313,-0.967,1.537,-0.337,-8.0,-13.7,8.2,328,720,0
L,,2395372,-0.334,1.351,0.498,0.8,-8.3,-4.4,584,765,0
L,,2395432,0.235,2.499,0.316,-0.3,0.6,-14.1,647,761,0
L,,2395492,0.126,1.264,0.219,1.9,-7.1,-15.8,707,829,0
L,,2395551,0.233,0.877,0.101,1.4,8.8,-8.5,719,844,0
L,,2395612,0.054,0.956,0.326,0.0,2.3,-4.8,723,843,0
L,,2395671,0.038,0.965,0.370,1.0,3.8,-4.1,719,847,0
L,,2395732,-0.012,0.949,0.328,1.9,2.1,-4.0,724,857,0
L,,2395791,-0.043,0.988,0.298,0.9,1.4,-3.9,713,856,0
L,,2395852,-0.076,0.974,0.388,1.0,3.3,-4.5,698,867,0
L,,2395912,0.050,1.118,0.316,2.8,2.0,-8.3,483,858,0
L,,2395972,-0.068,1.236,0.399,5.3,1.3,-13.5,207,895,0
L,,2396034,0.195,1.707,0.387,7.6,4.0,-20.2,89,777,0
L,,2396091,0.101,1.931,0.495,6.2,4.4,-27.1,113,883,0
L,,2396152,0.269,0.571,0.147,1.8,7.4,-11.6,106,744,0
L,,2396211,0.246,0.301,0.137,-5.9,16.0,5.8,401,745,0
L,,2396272,0.198,0.304,-0.055,-9.1,14.3,21.3,428,761,0
L,,2396332,0.232,0.718,0.005,-17.0,9.9,30.5,445,767,0
L,,2396392,0.141,1.274,0.026,-21.0,10.0,37.4,445,757,0
L,,2396452,0.252,1.842,-0.007,-21.2,12.2,35.7,416,754,0
L,,2396512,-0.770,2.088,-0.354,-18.1,-6.9,22.7,316,753,0
L,,2396572,-1.471,1.884,-0.540,3.2,-2.9,-11.0,563,743,0
L,,2396631,-0.149,1.897,0.411,1.8,-3.8,-13.0,690,817,0
L,,2396693,-0.237,0.925,0.469,1.8,-2.8,-16.4,705,828,0
L,,2396751,0.036,0.956,0.223,3.1,8.3,-9.3,707,830,0
L,,2396812,-0.008,0.944,0.338,0.6,0.7,-6.1,725,856,0
L,,2396872,-0.030,0.950,0.365,0.1,2.7,-3.8,726,859,0
L,,2396932,-0.040,0.950,0.340,0.4,1.3,-3.2,726,869,0
L,,2396992,-0.052,0.975,0.334,0.9,1.9,-3.1,722,868,0
L,,2397082,-0.085,0.978,0.373,0.9,2.4,-4.5,639,863,0
L,,2397171,-0.061,1.054,0.313,2.7,0.9,-10.2,229,865,0
L,,2397232,-0.121,1.320,0.301,3.6,4.3,-14.0,141,756,0
L,,2397291,0.232,1.648,0.432,7.2,4.5,-20.1,102,836,0
L,,2397352,-0.109,1.663,0.408,1.6,11.2,-21.3,126,886,0
L,,2397412,0.388,0.232,0.058,-0.2,10.3,-7.7,125,744,0
L,,2397473,0.339,0.361,0.129,-10.5,18.3,10.3,213,773,0
L,,2397532,0.279,0.574,-0.134,-15.0,13.9,23.4,213,776,0
L,,2397591,0.270,0.982,-0.081,-19.4,13.9,32.9,391,754,0
L,,2397652,0.266,1.382,-0.213,-20.1,15.5,38.4,411,748,0
L,,2397711,0.325,1.765,-0.188,-21.2,14.5,35.5,409,747,0
L,,2397772,-0.964,2.087,-0.481,-18.1,-10.6,18.2,375,724,0
L,,2397832,-2.105,1.483,0.460,1.8,3.7,-15.0,616,783,0
L,,2397921,0.257,0.894,0.376,3.0,-18.0,-16.9,704,829,0
L,,2397982,-0.208,0.955,0.455,5.0,6.0,-12.6,629,740,0
L,,2398041,0.042,0.997,0.238,1.7,3.2,-7.6,701,824,0
L,,2398102,-0.111,0.949,0.363,0.1,2.9,-4.3,704,829,0
L,,2398162,-0.045,0.958,0.361,0.0,3.2,-2.5,731,868,0
L,,2398253,-0.005,0.987,0.354,1.2,2.8,-2.9,717,859,0
L,,2398312,-0.110,0.965,0.366,2.2,3.2,-3.1,671,876,0
L,,2398372,-0.023,0.987,0.349,2.4,3.3,-5.2,450,893,0
L,,2398432,-0.082,1.075,0.305,3.7,1.8,-9.8,233,890,0
L,,2398492,-0.106,1.317,0.292,4.8,2.5,-14.7,151,831,0
L,,2398552,0.273,1.868,0.437,9.0,2.6,-21.6,95,790,0
L,,2398612,-0.132,1.961,0.134,2.7,6.0,-24.6,120,875,0
L,,2398671,-0.174,0.296,0.153,-3.1,8.9,-7.3,134,760,0
L,,2398732,0.273,0.238,0.007,-3.7,16.4,10.1,146,668,0
L,,2398791,0.092,0.405,0.094,-10.9,13.7,23.8,123,628,0
L,,2398882,0.029,1.094,0.064,-19.1,4.5,35.5,204,772,0
L,,2398944,-0.076,1.607,0.205,-19.6,4.7,35.4,223,751,0
L,,2399001,-0.375,1.812,-0.025,-22.3,3.1,30.2,221,771,0
L,,2399062,-1.348,1.662,-0.699,-7.8,-1.7,8.4,228,771,0
L,,2399122,2.178,0.511,0.783,10.2,-3.2,-6.0,611,763,0
L,,2399182,-0.346,1.996,0.350,1.2,0.5,-17.2,688,813,0
L,,2399242,-0.215,0.890,0.580,4.1,0.1,-12.4,710,833,0
L,,2399302,0.157,0.920,0.280,1.4,1.6,-7.7,716,837,0
L,,2399362,-0.007,0.944,0.354,0.1,4.0,-4.8,717,842,0
L,,2399421,0.031,0.908,0.406,0.1,2.4,-2.8,721,847,0
L,,2399482,0.037,0.983,0.412,0.6,2.6,-2.7,730,855,0
L,,2399541,0.007,0.969,0.408,1.2,2.5,-3.7,716,845,0
L,,2399602,-0.035,0.958,0.390,0.9,2.2,-5.1,727,873,0
L,,2399664,-0.085,1.016,0.387,1.7,3.2,-6.7,682,875,0
L,,2399722,-0.039,1.073,0.346,3.0,2.0,-10.3,255,875,0
L,,2399782,-0.117,1.332,0.388,3.6,4.6,-13.9,155,886,0
L,,2399842,0.329,1.796,0.405,6.3,3.7,-20.5,117,889,0
L,,2399902,-0.101,1.656,0.074,1.4,9.6,-22.3,126,875,0
L,,2399961,0.074,0.002,0.499,-3.0,18.1,-5.2,138,769,0
L,,2400022,0.418,0.389,-0.064,-9.1,24.3,13.5,164,734,0
L,,2400082,0.276,0.640,-0.101,-17.4,20.4,25.7,199,654,0
L,,2400142,0.298,1.183,-0.257,-20.8,16.3,33.5,281,681,0
L,,2400202,0.247,1.477,-0.222,-19.6,14.2,36.0,309,725,0
L,,2400262,0.182,1.840,-0.254,-20.9,4.1,33.5,240,731,0
L,,2400324,-1.307,1.746,-0.322,-12.7,-10.3,15.2,214,749,0
L,,2400382,-1.356,1.229,-0.217,7.6,-1.4,-10.9,501,743,0
L,,2400442,0.389,1.555,0.652,0.8,-1.4,-12.2,686,817,0
L,,2400532,-0.079,0.755,0.576,2.0,0.5,-7.4,702,826,0
L,,2400592,0.259,0.895,0.343,0.2,2.9,-5.7,712,833,0
L,,2400652,-0.030,0.944,0.508,0.4,4.4,-4.3,712,833,0
L,,2400711,0.141,0.932,0.454,2.2,5.8,-3.5,713,834,0
L,,2400772,0.071,0.953,0.373,3.5,4.2,-4.5,714,836,0
L,,2400832,0.038,0.937,0.367,2.9,2.6,-4.6,725,852,0
L,,2400892,-0.007,0.961,0.336,2.9,2.5,-4.7,721,850,0
L,,2400952,-0.060,0.992,0.359,2.5,2.4,-5.6,717,861,0
L,,2401012,0.028,1.080,0.306,4.0,2.1,-9.3,646,861,0
L,,2401074,-0.097,1.240,0.325,6.4,2.1,-12.9,181,901,0
L,,2401162,0.154,1.846,0.443,9.7,4.2,-23.7,111,837,0
L,,2401222,-0.105,1.143,0.000,3.3,11.6,-16.4,94,768,0
L,,2401282,-0.340,0.159,0.416,-4.5,12.1,-5.5,146,706,0
L,,2401342,0.335,0.327,-0.121,-8.7,17.0,12.5,176,760,0
L,,2401402,0.201,0.651,-0.029,-15.7,7.0,23.4,250,728,0
L,,2401462,0.192,1.137,0.040,-18.4,7.8,33.2,273,698,0
L,,2401522,0.174,1.507,0.036,-18.9,10.7,36.1,300,713,0
L,,2401582,0.186,1.857,0.073,-21.5,4.4,32.5,258,751,0
L,,2401641,-1.293,1.821,-0.609,-11.2,-6.0,13.1,174,704,0
L,,2401702,-0.862,1.184,0.925,9.7,-11.8,-15.1,498,721,0
L,,2401762,0.370,1.591,0.519,0.4,-2.4,-11.7,688,817,0
L,,2401824,-0.207,1.165,0.563,0.2,-8.9,-12.7,703,826,0
L,,2401882,0.121,0.954,0.306,1.4,4.8,-6.3,705,828,0
L,,2401942,0.087,0.973,0.387,-2.1,-0.1,-5.5,717,838,0
L,,2402001,0.079,0.940,0.526,2.2,7.0,-2.8,711,833,0
L,,2402062,0.162,0.975,0.355,3.1,3.0,-4.8,714,837,0
L,,2402122,0.047,0.927,0.354,3.3,3.2,-5.6,719,844,0
L,,2402182,-0.018,0.960,0.329,3.2,2.9,-6.1,718,848,0
L,,2402242,0.011,0.958,0.400,3.9,3.2,-7.2,717,858,0
L,,2402302,-0.008,1.141,0.297,5.4,1.5,-11.7,476,790,0
L,,2402362,-0.049,1.616,0.330,8.6,3.9,-17.0,199,894,0
L,,2402422,0.389,2.115,0.410,11.8,3.0,-26.6,147,887,0
L,,2402484,0.082,1.135,-0.022,3.2,9.1,-17.1,99,794,0
L,,2402541,-0.372,-0.078,0.535,-4.9,9.4,-2.3,231,746,0
L,,2402602,0.282,0.305,-0.115,-9.0,15.2,17.2,358,733,0
L,,2402662,0.175,0.588,-0.026,-16.2,12.9,28.6,364,683,0
L,,2402722,0.159,1.166,-0.022,-19.9,13.1,37.1,367,667,0
L,,2402782,0.161,1.666,-0.032,-20.7,13.2,37.5,374,742,0
L,,2402842,-0.099,1.922,-0.142,-23.5,-7.7,30.0,328,731,0
L,,2402902,-1.767,1.616,-0.632,-1.1,-1.7,3.1,311,727,0
L,,2402962,1.214,0.741,0.451,2.7,10.3,-1.7,598,743,0
L,,2403022,0.218,1.135,0.138,-0.7,-5.0,-16.8,640,753,0
L,,2403082,-0.216,0.788,0.596,2.6,-0.5,-8.6,715,838,0
L,,2403142,0.247,0.876,0.306,-0.1,2.7,-6.3,692,811,0
L,,2403204,-0.034,0.929,0.519,-0.2,3.5,-4.2,703,822,0
L,,2403262,0.139,0.889,0.480,1.9,5.5,-3.4,711,831,0
L,,2403322,0.037,0.952,0.384,2.9,3.6,-4.3,718,841,0
L,,2403382,0.061,0.947,0.358,2.5,3.0,-4.8,723,847,0
L,,2403442,-0.028,0.925,0.370,1.5,3.5,-6.0,720,851,0
L,,2403502,0.001,0.991,0.435,2.2,3.0,-7.0,713,854,0
L,,2403562,0.000,1.105,0.344,4.8,2.6,-10.9,429,868,0
L,,2403652,0.094,1.660,0.380,6.0,4.8,-19.3,152,854,0
L,,2403712,0.244,1.882,0.340,7.2,7.8,-25.3,62,695,0
L,,2403772,0.302,0.786,0.086,5.5,9.6,-9.9,102,688,0
L,,2403832,-0.130,0.178,0.318,-9.8,4.1,0.3,360,745,0
L,,2403892,0.085,0.366,-0.081,-7.6,17.0,20.1,349,727,0
L,,2403954,0.136,0.597,0.045,-14.7,19.5,29.4,382,724,0
L,,2404012,0.310,1.139,-0.088,-19.2,19.1,35.6,388,737,0
L,,2404072,-0.048,1.607,-0.047,-18.9,10.4,34.1,388,749,0
L,,2404132,-0.438,1.726,-0.091,-17.2,2.5,27.5,365,759,0
L,,2404192,-1.128,1.515,-0.646,-4.4,7.9,7.2,303,637,0
L,,2404252,2.115,0.041,1.758,-1.4,-25.0,-7.6,594,788,0
L,,2404312,-0.117,2.170,0.353,0.9,0.2,-11.1,686,816,0
L,,2404372,-0.099,0.914,0.491,0.1,-7.6,-11.8,711,834,0
L,,2404432,0.036,0.787,0.513,0.4,7.8,-5.6,716,840,0
L,,2404492,-0.001,0.928,0.474,1.1,4.9,-4.2,722,845,0
L,,2404552,0.086,0.900,0.485,3.9,5.7,-3.5,727,853,0
L,,2404614,0.061,0.956,0.398,3.6,1.6,-5.9,733,863,0
L,,2404672,-0.029,0.972,0.353,3.3,2.9,-5.4,729,870,0
L,,2404732,-0.106,0.938,0.367,2.4,3.5,-6.0,692,867,0
L,,2404792,-0.014,1.022,0.360,2.6,2.9,-8.9,322,880,0
L,,2404852,-0.095,1.269,0.408,3.8,1.5,-13.0,183,884,0
L,,2404912,0.394,1.944,0.508,5.9,5.2,-22.6,113,880,0
L,,2404972,-0.042,1.885,0.310,1.6,8.4,-25.1,121,880,0
L,,2405032,0.398,0.292,-0.008,1.0,12.6,-4.5,147,747,0
L,,2405092,0.380,0.261,-0.046,-6.7,20.3,12.1,172,718,0
L,,2405152,0.255,0.523,-0.121,-12.4,14.5,24.6,263,720,0
L,,2405212,0.249,0.984,-0.052,-16.2,7.8,33.5,372,702,0
L,,2405272,0.082,1.433,-0.028,-18.7,10.2,38.4,403,728,0
L,,2405333,0.233,1.826,0.077,-21.9,10.9,35.4,383,737,0
L,,2405392,-1.173,2.104,-0.529,-16.3,-1.8,18.5,272,682,0
L,,2405452,-0.236,1.182,0.867,9.0,-5.6,-16.0,604,778,0
L,,2405512,-0.004,1.470,0.567,0.0,-4.0,-17.6,691,816,0
L,,2405572,-0.155,1.003,0.642,1.3,-9.3,-12.5,705,830,0
L,,2405632,0.176,0.869,0.395,1.9,8.4,-7.6,714,834,0
L,,2405692,-0.112,0.953,0.454,1.0,2.7,-6.3,724,849,0
L,,2405752,0.077,0.961,0.413,2.1,6.6,-2.6,733,861,0
L,,2405812,0.075,0.949,0.395,2.8,3.0,-3.7,733,867,0
L,,2405873,-0.013,0.938,0.393,3.7,2.9,-5.4,718,864,0
L,,2405932,-0.037,0.970,0.344,2.6,2.4,-6.3,685,870,0
L,,2405992,-0.038,0.980,0.323,3.0,1.8,-8.6,332,884,0
L,,2406053,-0.092,1.176,0.313,4.4,0.2,-11.3,214,883,0
L,,2406112,0.029,1.484,0.368,5.5,3.3,-17.8,194,894,0
L,,2406172,0.289,1.979,0.581,9.4,3.6,-26.0,139,887,0
L,,2406232,0.031,1.023,0.133,3.2,10.0,-14.9,113,764,0
L,,2406292,-0.114,0.339,0.419,-6.8,11.9,-0.2,153,689,0
L,,2406352,0.349,0.227,-0.116,-10.3,17.4,18.0,189,702,0
L,,2406413,0.183,0.685,-0.036,-18.2,18.2,29.7,294,636,0
L,,2406472,0.318,1.349,-0.247,-22.1,16.5,36.7,346,696,0
L,,2406532,0.393,1.677,-0.234,-19.0,13.7,37.5,349,733,0
L,,2406592,-0.090,1.905,-0.203,-20.5,-5.0,31.9,229,687,0
L,,2406652,-1.781,1.662,-0.750,-0.2,0.1,3.1,236,759,0
L,,2406713,0.839,1.329,0.649,-0.2,12.1,-2.9,622,753,0
L,,2406772,0.174,0.749,0.123,0.2,-4.8,-15.9,668,784,0
L,,2406833,-0.269,0.837,0.541,2.2,1.3,-9.3,711,832,0
L,,2406892,0.383,0.892,0.257,1.1,6.8,-6.6,718,838,0
L,,2406953,-0.216,0.940,0.446,1.0,5.1,-4.8,723,850,0
L,,2407012,0.151,0.957,0.388,2.1,4.2,-2.2,728,855,0
L,,2407072,0.073,0.973,0.343,2.8,2.7,-4.2,731,861,0
L,,2407131,-0.005,0.967,0.356,2.8,2.1,-5.2,732,872,0
L,,2407192,-0.073,0.968,0.311,2.4,2.3,-5.7,715,876,0
L,,2407252,-0.023,0.998,0.328,3.0,2.4,-7.6,473,880,0
L,,2407312,-0.058,1.127,0.286,4.4,0.5,-11.5,232,888,0
L,,2407373,0.012,1.526,0.306,6.7,2.9,-16.9,187,887,0
L,,2407434,0.392,1.956,0.431,10.6,2.6,-25.9,148,889,0
L,,2407492,0.109,1.190,-0.090,5.0,7.8,-16.6,113,811,0
L,,2407552,-0.739,0.044,0.482,-4.6,3.6,-4.1,153,730,0
L,,2407612,0.170,0.266,-0.036,-4.8,17.2,14.8,158,721,0
L,,2407672,0.109,0.586,0.057,-11.7,13.9,26.2,206,724,0
L,,2407732,0.061,1.111,0.029,-14.7,3.6,33.2,356,740,0
L,,2407792,-0.147,1.529,0.118,-16.8,-0.5,34.8,348,731,0
L,,2407852,-0.105,1.548,0.345,-18.8,7.5,31.5,312,742,0
L,,2407913,-0.778,1.711,-0.437,-15.0,9.2,17.0,218,724,0
L,,2407972,-0.379,1.257,0.318,1.4,-14.8,-12.8,521,725,0
L,,2408032,-0.043,2.196,0.386,1.8,-4.0,-16.8,698,824,0
L,,2408093,-0.062,0.741,0.748,1.1,-7.1,-11.6,705,829,0
L,,2408152,0.215,0.842,0.264,1.5,9.0,-8.4,708,834,0
L,,2408212,0.019,0.932,0.355,2.1,4.3,-6.9,723,851,0
L,,2408272,0.037,0.939,0.403,3.9,2.9,-6.0,724,858,0
L,,2408333,-0.109,0.918,0.438,4.4,1.3,-3.8,686,816,0
L,,2408392,-0.071,0.977,0.339,1.1,0.0,-5.3,725,869,0
L,,2408453,-0.099,0.978,0.277,1.3,1.8,-4.6,681,852,0
L,,2408512,-0.171,0.963,0.352,0.8,1.9,-4.6,574,863,0
L,,2408572,-0.090,1.023,0.339,1.4,2.1,-6.8,359,888,0
L,,2408632,-0.144,1.204,0.372,2.2,2.1,-11.4,228,877,0
L,,2408692,0.081,1.650,0.367,3.8,5.0,-18.3,157,854,0
L,,2408752,-0.034,1.653,0.551,1.3,6.1,-21.9,125,875,0
L,,2408814,0.089,0.700,0.216,-2.0,11.1,-12.8,126,719,0
L,,2408873,0.322,0.306,0.166,-6.6,27.8,4.9,209,745,0
L,,2408932,0.305,0.556,-0.132,-9.5,15.1,20.3,407,726,0
L,,2408993,0.305,0.897,-0.104,-19.6,12.0,28.4,390,673,0
L,,2409052,0.110,1.335,-0.171,-19.2,14.6,34.6,392,667,0
L,,2409112,0.258,1.604,-0.143,-18.1,9.2,33.2,435,740,0
L,,2409172,-0.138,1.687,-0.079,-15.9,-0.8,29.4,374,646,0
L,,2409262,-1.300,1.416,-0.531,4.2,3.0,-5.4,462,705,0
L,,2409322,0.530,1.570,-0.095,4.8,-7.1,-10.0,673,807,0
L,,2409382,-0.052,1.084,0.584,1.4,-8.7,-13.6,691,813,0
L,,2409442,0.167,0.963,0.401,4.7,6.5,-7.7,708,831,0
L,,2409502,0.132,0.941,0.395,1.0,2.0,-7.8,714,838,0
L,,2409564,0.034,0.967,0.398,1.3,6.0,-4.7,727,852,0
L,,2409623,-0.035,0.868,0.429,3.1,2.8,-3.5,731,859,0
L,,2409682,0.009,0.963,0.330,0.9,2.2,-3.8,734,864,0
L,,2409743,-0.017,0.959,0.342,1.5,2.6,-4.0,727,867,0
L,,2409802,-0.114,0.961,0.362,1.3,1.7,-4.7,719,870,0
L,,2409862,-0.029,1.001,0.395,1.7,3.3,-6.3,679,861,0
L,,2409922,-0.087,1.142,0.333,3.9,0.9,-10.7,259,880,0
L,,2409982,0.010,1.550,0.392,4.4,4.9,-16.1,188,894,0
L,,2410042,0.277,2.038,0.576,7.7,5.0,-25.6,121,895,0
L,,2410102,-0.043,1.138,0.035,0.7,14.7,-15.6,100,805,0
L,,2410163,-0.359,0.074,0.455,-4.4,19.8,0.4,381,735,0
L,,2410224,0.526,0.519,-0.182,-10.4,23.7,18.2,410,736,0
L,,2410283,0.357,0.772,-0.088,-16.7,9.3,27.9,421,720,0
L,,2410342,0.139,1.212,-0.021,-19.5,7.2,36.2,438,725,0
L,,2410402,0.138,1.527,0.076,-19.0,12.4,37.2,446,732,0
L,,2410462,-0.134,1.931,-0.082,-22.8,-1.5,31.5,417,711,0
L,,2410522,-1.900,1.721,-0.795,-2.8,-2.3,4.5,359,721,0
L,,2410583,2.761,0.347,0.864,-9.0,4.9,4.3,596,726,0
L,,2410642,0.186,1.584,0.117,0.4,-4.4,-14.1,704,831,0
L,,2410703,-0.343,0.889,0.528,4.4,0.7,-9.9,708,829,0
L,,2410762,0.165,0.885,0.313,0.6,0.9,-8.2,710,833,0
L,,2410823,0.043,0.959,0.383,-2.0,4.8,-5.5,719,842,0
L,,2410882,0.125,0.907,0.469,2.4,4.8,-3.0,723,848,0
L,,2410944,0.126,0.999,0.236,2.3,2.6,-3.5,712,836,0
L,,2411002,0.006,0.935,0.409,2.4,1.5,-4.8,709,831,0
L,,2411062,-0.052,0.955,0.320,1.3,1.9,-5.3,729,865,0
L,,2411123,0.010,0.990,0.398,2.6,2.8,-7.3,718,867,0
L,,2411212,0.000,1.262,0.285,6.4,2.0,-13.2,218,888,0
L,,2411302,0.523,2.156,0.568,11.2,3.2,-26.8,134,866,0
L,,2411363,0.123,1.166,-0.056,2.5,7.3,-19.4,102,804,0
L,,2411422,0.065,0.237,0.422,-1.3,11.2,0.7,371,662,0
L,,2411482,0.107,0.261,0.032,-6.6,18.6,19.6,398,695,0
L,,2411573,0.204,0.978,-0.001,-16.5,7.1,33.4,431,721,0
L,,2411632,0.066,1.452,0.011,-19.9,3.9,36.6,439,728,0
L,,2411692,-0.008,1.778,0.126,-21.7,3.1,33.6,432,731,0
L,,2411753,-1.231,1.849,-0.516,-13.8,-2.6,14.3,347,737,0
L,,2411812,-0.133,1.214,0.603,5.4,-10.2,-10.9,564,769,0
L,,2411873,0.512,2.215,0.364,2.2,-0.7,-13.4,687,815,0
L,,2411932,-0.221,1.132,0.406,3.1,-8.1,-15.4,707,830,0
L,,2411993,0.053,0.935,0.319,2.8,7.0,-9.2,713,836,0
L,,2412052,-0.020,0.955,0.356,0.5,3.0,-6.6,728,855,0
L,,2412113,0.072,0.931,0.341,1.3,4.1,-5.3,730,860,0
L,,2412172,-0.031,0.946,0.358,0.9,1.4,-4.7,732,866,0
L,,2412232,-0.029,0.959,0.347,0.8,1.6,-4.7,727,867,0
L,,2412292,-0.108,0.964,0.347,0.8,2.3,-4.8,705,867,0
L,,2412352,-0.115,0.997,0.359,0.9,3.2,-5.1,564,850,0
L,,2412414,-0.002,1.059,0.288,3.4,1.2,-8.9,254,876,0
L,,2412472,-0.084,1.324,0.379,3.9,3.7,-14.9,188,861,0
L,,2412533,0.283,1.877,0.330,7.0,4.4,-23.2,130,864,0
L,,2412592,-0.269,1.728,0.187,0.2,9.8,-22.0,136,870,0
L,,2412682,0.100,0.585,-0.225,-4.6,10.5,2.9,219,751,0
L,,2412743,0.244,0.300,-0.183,-10.5,20.5,20.6,223,737,0
L,,2412802,0.258,0.688,-0.112,-17.9,18.5,31.2,364,675,0
L,,2412863,0.187,1.218,-0.136,-21.4,19.3,39.0,411,726,0
L,,2412922,0.301,1.667,-0.048,-20.2,15.5,38.3,419,751,0
L,,2412982,-0.509,2.070,-0.192,-21.4,-3.3,28.8,283,751,0
L,,2413042,-1.618,1.615,-0.701,4.8,-1.5,-4.9,267,753,0
L,,2413102,0.731,1.465,-0.362,10.3,1.6,-6.0,679,808,0
L,,2413164,-0.071,1.284,0.172,-2.7,-7.9,-15.5,711,835,0
L,,2413222,-0.020,0.857,0.398,4.3,13.8,-4.6,713,839,0
L,,2413283,0.156,0.982,0.406,1.7,2.3,-5.0,722,847,0
L,,2413342,0.214,0.936,0.385,3.6,6.0,-2.6,732,860,0
L,,2413403,0.071,0.899,0.409,4.8,2.6,-4.4,724,859,0
L,,2413462,0.074,0.956,0.354,3.1,0.6,-5.2,721,869,0
L,,2413522,-0.047,0.974,0.318,3.3,1.4,-5.4,695,871,0
L,,2413583,-0.040,0.969,0.278,2.5,0.5,-6.1,431,886,0
L,,2413642,-0.126,0.967,0.311,2.2,1.2,-6.2,240,894,0
L,,2413703,-0.165,1.000,0.287,1.7,1.4,-6.6,184,891,0
L,,2413762,-0.121,1.077,0.264,2.1,1.4,-8.4,170,898,0
L,,2413823,-0.071,1.237,0.247,2.8,1.7,-13.1,145,889,0
L,,2413884,0.131,1.756,0.343,5.5,1.6,-19.1,113,891,0
L,,2413943,-0.146,1.544,0.142,1.2,9.1,-17.9,120,872,0
L,,2414002,0.187,0.354,-0.015,1.9,7.4,-4.7,136,733,0
L,,2414062,0.161,0.352,0.122,-6.4,12.6,7.6,169,754,0
L,,2414123,0.195,0.549,0.023,-8.9,17.9,22.3,189,723,0
L,,2414182,0.370,0.883,-0.005,-14.4,11.5,30.0,311,598,0
L,,2414243,0.131,1.299,0.117,-18.7,7.2,35.5,394,705,0
L,,2414302,0.140,1.749,0.213,-20.6,8.1,33.9,401,726,0
L,,2414363,-0.510,1.789,-0.215,-18.8,7.3,24.0,285,741,0
L,,2414422,-1.099,1.405,-0.698,4.5,-4.2,-9.6,285,747,0
L,,2414483,0.552,1.347,-0.219,5.2,-9.0,-8.1,653,785,0
L,,2414544,0.034,1.191,0.266,-1.0,-4.9,-13.7,704,826,0
L,,2414602,-0.152,0.867,0.489,3.2,5.4,-6.3,714,837,0
L,,2414693,0.002,0.926,0.490,1.5,3.4,-4.7,720,843,0
L,,2414752,0.194,0.885,0.442,3.6,4.9,-3.7,723,851,0
L,,2414812,0.060,0.996,0.362,3.2,1.7,-5.7,733,861,0
L,,2414873,-0.050,0.957,0.360,2.5,1.1,-5.8,731,868,0
L,,2414932,-0.050,0.962,0.341,1.9,3.0,-5.9,720,872,0
L,,2414993,-0.056,1.000,0.365,2.4,2.5,-7.6,607,868,0
L,,2415052,-0.024,1.129,0.290,4.3,0.6,-10.9,227,896,0
L,,2415113,-0.010,1.441,0.353,5.2,3.9,-16.3,163,867,0
L,,2415172,0.462,1.992,0.444,9.6,5.6,-23.3,110,792,0
L,,2415233,0.179,1.391,-0.081,4.3,4.5,-19.0,122,824,0
L,,2415294,-0.737,0.068,0.599,-4.3,11.7,-5.2,136,753,0
L,,2415352,0.230,0.322,-0.016,-6.1,22.2,15.5,149,745,0
L,,2415413,0.188,0.478,-0.013,-14.1,16.3,27.3,130,620,0
L,,2415472,0.106,1.106,-0.009,-19.4,11.9,34.4,172,647,0
L,,2415533,-0.037,1.595,-0.023,-20.8,11.1,35.0,218,753,0
L,,2415592,0.014,1.696,0.011,-21.4,5.8,30.0,178,681,0
L,,2415653,-1.113,1.674,-0.604,-9.2,-1.0,11.8,213,734,0
L,,2415712,0.932,0.183,0.639,13.0,-7.7,-10.4,634,789,0
L,,2415773,-0.100,1.694,0.233,3.3,1.6,-14.0,702,828,0
L,,2415833,-0.279,1.025,0.550,5.2,0.0,-13.4,703,829,0
L,,2415892,0.142,1.024,0.176,4.4,5.8,-9.1,722,848,0
L,,2415954,0.096,0.981,0.338,5.2,0.9,-7.2,728,857,0
L,,2416012,-0.046,0.910,0.309,2.7,0.5,-5.6,728,864,0
L,,2416073,-0.061,0.970,0.297,2.0,0.9,-3.8,730,874,0
L,,2416132,-0.071,0.963,0.264,1.0,0.7,-2.9,723,876,0
L,,2416193,-0.126,0.962,0.283,0.9,1.4,-1.8,710,873,0
L,,2416252,-0.093,0.995,0.277,0.7,1.4,-1.7,689,877,0
L,,2416313,-0.063,1.010,0.283,1.6,1.4,-3.0,568,889,0
L,,2416373,-0.055,1.042,0.233,2.6,0.4,-5.9,294,881,0
L,,2416432,-0.120,1.162,0.228,3.6,1.0,-9.4,191,817,0
L,,2416492,-0.055,1.335,0.275,5.3,2.1,-11.6,186,877,0
L,,2416552,-0.068,1.451,0.312,6.8,3.0,-16.0,114,866,0
L,,2416613,-0.181,1.158,0.234,0.5,10.6,-15.7,131,873,0
L,,2416674,-0.043,0.524,0.057,2.6,8.8,-9.1,117,704,0
L,,2416733,-0.255,0.382,0.282,-5.7,12.8,0.7,169,754,0
L,,2416792,0.203,0.541,-0.084,-10.5,15.2,15.4,361,759,0
L,,2416852,0.219,0.812,0.025,-15.6,14.6,23.8,375,710,0
L,,2416913,0.234,1.264,-0.317,-19.4,11.6,28.1,389,716,0
L,,2416972,0.247,1.464,-0.256,-17.7,5.9,27.3,407,753,0
L,,2417033,-0.120,1.534,-0.205,-16.1,-9.0,23.4,394,756,0
L,,2417092,-0.799,1.369,-0.213,-9.0,-10.1,11.4,391,763,0
L,,2417153,-0.940,1.260,0.314,9.3,-1.2,-4.9,601,767,0
L,,2417212,0.600,1.476,0.570,1.1,6.4,-7.8,667,794,0
L,,2417273,-0.058,0.972,0.504,-1.4,-4.9,-8.5,704,828,0
L,,2417333,0.407,0.852,0.345,3.0,3.2,-4.2,705,827,0
L,,2417394,0.219,0.945,0.311,-0.2,-1.9,-5.5,707,830,0
L,,2417453,0.196,0.945,0.340,0.3,0.3,-4.1,722,846,0
L,,2417512,0.138,0.950,0.358,1.2,1.8,-3.5,730,850,0
L,,2417573,0.147,0.944,0.330,1.8,2.0,-2.9,735,859,0
L,,2417632,0.070,0.965,0.341,2.1,1.7,-2.9,733,859,0
L,,2417693,0.074,0.962,0.277,2.1,1.3,-2.6,734,864,0
L,,2417752,0.058,0.964,0.284,1.9,1.2,-1.9,738,872,0
L,,2417813,0.059,0.975,0.284,1.6,0.3,-2.1,727,866,0
L,,2417873,0.014,0.967,0.264,1.4,-0.4,-2.3,726,873,0
L,,2417932,0.000,0.971,0.264,1.4,0.0,-2.2,716,876,0
L,,2417993,0.000,0.984,0.244,1.6,0.0,-2.6,698,881,0
L,,2418054,-0.087,0.976,0.253,1.7,0.2,-2.4,649,872,0
L,,2418113,-0.073,0.981,0.219,1.7,0.5,-2.4,559,876,0
L,,2418172,-0.106,0.996,0.222,2.0,0.6,-2.2,431,868,0
L,,2418233,-0.109,1.027,0.212,2.1,0.5,-2.2,377,892,0
L,,2418292,-0.097,1.067,0.189,2.7,0.2,-2.3,240,853,0
L,,2418353,-0.093,1.049,0.133,3.2,-0.1,-3.1,118,728,0
L,,2418413,-0.149,1.001,0.143,3.2,-0.6,-3.7,154,865,0
L,,2418472,-0.220,0.979,0.094,3.1,0.0,-3.7,159,877,0
L,,2418533,-0.244,0.970,0.069,2.8,0.8,-3.7,142,873,0
L,,2418592,-0.251,0.956,0.010,2.3,1.3,-3.7,145,861,0
L,,2418653,-0.283,0.922,0.007,2.4,-0.1,-3.7,115,859,0
L,,2418712,-0.348,0.942,0.022,2.3,0.0,-3.8,128,873,0
L,,2418774,-0.376,0.924,-0.019,1.9,0.2,-3.5,134,857,0
L,,2418833,-0.427,0.889,-0.050,1.6,0.2,-2.9,139,858,0
L,,2418893,-0.448,0.859,-0.049,1.4,-0.2,-1.8,144,851,0
L,,2418953,-0.495,0.859,-0.070,0.9,0.0,-1.5,136,853,0
L,,2419012,-0.464,0.876,-0.079,0.5,-0.2,-0.9,141,849,0
L,,2419073,-0.485,0.880,-0.053,0.4,0.0,-0.6,142,848,0
L,,2419132,-0.479,0.863,-0.064,0.3,0.4,-0.3,135,843,0
L,,2419193,-0.463,0.865,-0.076,0.2,0.0,-0.3,139,849,0
L,,2419252,-0.456,0.885,-0.076,0.1,0.2,-0.2,158,850,0
L,,2419313,-0.461,0.893,-0.094,0.2,0.3,-0.3,156,841,0
L,,2419373,-0.469,0.881,-0.103,0.1,0.0,-0.4,154,820,0
L,,2419433,-0.487,0.879,-0.094,0.2,-0.1,-0.3,162,836,0
L,,2419495,-0.484,0.876,-0.097,0.0,-0.1,-0.3,170,844,0
L,,2419552,-0.497,0.882,-0.082,0.0,-0.1,-0.2,165,843,0
L,,2419612,-0.489,0.878,-0.081,0.0,0.0,-0.2,160,845,0
L,,2419672,-0.490,0.870,-0.092,-0.1,0.1,-0.2,158,840,0
L,,2419733,-0.479,0.867,-0.094,0.0,0.0,-0.1,161,842,0
L,,2419792,-0.497,0.872,-0.083,0.0,-0.3,-0.1,165,845,0
L,,2419853,-0.501,0.873,-0.084,0.0,0.1,0.0,160,846,0
L,,2419913,-0.506,0.874,-0.085,0.0,0.1,0.0,165,844,0
L,,2419972,-0.495,0.877,-0.101,-0.1,0.7,0.0,167,847,0
L,,2420033,-0.484,0.901,-0.107,0.0,1.0,0.0,168,847,0
L,,2420092,-0.489,0.893,0.002,0.0,-1.0,-0.2,173,808,0
L,,2420184,-0.353,0.649,0.416,-1.8,4.3,-0.1,438,719,0
L,,2420243,-0.106,0.740,0.211,-6.0,11.9,7.9,417,700,0
L,,2420302,-0.111,0.931,0.164,-10.4,17.5,11.7,429,697,0
L,,2420363,-0.189,1.084,-0.035,-10.7,21.8,11.2,421,674,0
L,,2420422,-0.146,1.148,-0.313,-8.5,21.9,8.6,441,709,0
L,,2420483,-0.397,1.195,-0.372,-4.8,16.6,4.4,454,751,0
L,,2420542,0.240,0.878,-0.167,-0.5,13.2,1.4,346,724,0
L,,2420603,0.085,1.072,-0.280,-1.7,2.2,2.3,285,775,0
L,,2420663,-0.171,1.015,0.149,-2.9,-1.0,2.8,177,656,0
L,,2420723,-0.029,1.019,0.064,-3.1,1.3,2.6,220,747,0
L,,2420813,-0.021,0.979,0.163,-4.6,-1.8,2.8,468,835,0
L,,2420873,0.015,1.024,0.196,-4.3,-1.5,3.0,639,844,0
L,,2420934,0.104,1.014,0.176,-4.1,0.5,2.3,691,843,0
L,,2420993,0.043,1.016,0.326,-2.5,0.5,1.1,704,838,0
L,,2421052,0.108,0.991,0.212,-2.2,0.0,1.0,718,852,0
L,,2421113,0.062,0.970,0.295,-2.9,-2.7,1.5,721,848,0
L,,2421172,0.093,0.987,0.303,-1.2,-1.1,1.1,719,843,0
L,,2421263,0.097,0.969,0.283,0.0,0.0,0.6,716,838,0
L,,2421323,0.101,0.963,0.279,-0.2,-0.1,0.3,715,836,0
L,,2421382,0.086,0.981,0.320,0.3,0.1,0.5,717,837,0
L,,2421442,0.115,0.961,0.286,0.7,0.4,0.1,717,839,0
L,,2421502,0.095,0.969,0.287,0.9,0.5,0.1,718,842,0
L,,2421563,0.101,0.972,0.270,1.0,0.6,0.0,720,844,0
L,,2421623,0.091,0.976,0.267,0.9,0.5,-0.1,721,847,0
L,,2421684,0.082,0.973,0.242,0.5,0.0,0.2,726,851,0
L,,2421743,0.074,0.973,0.254,0.3,-0.4,0.3,727,856,0
L,,2421802,0.106,0.969,0.251,0.2,-0.4,0.1,728,854,0
L,,2421863,0.085,0.975,0.262,0.2,-0.4,-0.1,727,854,0
L,,2421922,0.087,0.970,0.251,0.2,0.2,-0.1,730,855,0
L,,2421983,0.084,0.978,0.249,0.3,0.0,0.0,726,854,0
L,,2422042,0.084,0.976,0.255,0.2,-0.2,0.0,728,856,0
L,,2422103,0.086,0.980,0.253,0.2,-0.4,0.0,730,856,0
L,,2422163,0.077,0.980,0.251,0.3,-0.3,0.0,730,857,0
L,,2422223,0.075,0.982,0.252,0.4,-0.2,0.1,728,859,0
L,,2422313,0.083,0.977,0.238,0.4,-0.1,0.2,728,857,0
L,,2422375,0.082,0.975,0.238,0.2,-0.1,0.3,726,857,0
L,,2422433,0.095,0.988,0.241,0.2,-0.4,0.1,726,858,0
L,,2422493,0.079,0.981,0.235,0.3,-0.3,0.1,726,858,0
L,,2422553,0.073,0.976,0.232,0.2,-0.3,0.2,722,857,0
L,,2422613,0.090,0.980,0.237,0.2,-0.2,0.3,723,858,0
L,,2422672,0.081,0.973,0.229,0.2,-0.3,0.2,725,857,0
L,,2422732,0.074,0.985,0.228,0.2,0.0,0.2,726,858,0
L,,2422792,0.078,0.975,0.221,0.1,0.0,0.4,728,859,0
L,,2422853,0.093,0.981,0.234,0.0,0.0,0.6,727,859,0
L,,2422913,0.112,0.987,0.234,0.1,-0.5,0.0,728,861,0
L,,2422973,0.080,0.979,0.227,0.2,-0.5,0.0,729,863,0
L,,2423033,0.081,0.982,0.231,0.1,-0.2,0.3,731,864,0
L,,2423094,0.096,0.982,0.229,0.0,-0.2,0.3,735,868,0
L,,2423153,0.097,0.985,0.233,0.0,-0.4,0.2,732,867,0
L,,2423212,0.090,0.978,0.232,0.1,-0.3,0.2,732,865,0
L,,2423273,0.097,0.979,0.225,0.0,-0.4,0.1,733,865,0
L,,2423333,0.093,0.981,0.230,0.1,-0.3,0.1,734,867,0
L,,2423393,0.097,0.980,0.226,0.0,-0.4,0.0,733,867,0
L,,2423453,0.099,0.980,0.228,0.0,-0.4,0.1,734,867,0
L,,2423513,0.097,0.981,0.232,0.0,-0.4,0.0,736,868,0
L,,2423573,0.094,0.982,0.228,0.0,-0.4,0.0,738,868,0
L,,2423632,0.091,0.981,0.232,0.0,-0.4,0.0,736,867,0
L,,2423693,0.091,0.978,0.227,-0.1,-0.4,0.0,736,869,0
L,,2423754,0.095,0.985,0.239,-0.1,-0.5,0.0,736,868,0
L,,2423813,0.086,0.978,0.232,0.0,-0.5,0.0,737,868,0
L,,2423873,0.083,0.980,0.236,-0.1,-0.4,0.0,736,869,0
L,,2423933,0.085,0.978,0.240,-0.1,-0.4,0.0,737,869,0
L,,2423993,0.090,0.977,0.239,0.0,-0.4,-0.1,738,868,0
L,,2424053,0.073,0.974,0.243,-0.1,-0.4,0.0,738,870,0
L,,2424113,0.036,0.989,0.188,-0.4,0.0,0.8,737,867,0
L,,2424172,0.153,1.016,0.248,-0.6,-0.3,-0.2,733,861,0
L,,2424233,0.067,0.986,0.257,-0.2,-1.7,-1.4,733,858,0
L,,2424292,0.035,0.995,0.311,0.0,-1.0,-0.8,733,859,0
L,,2424353,0.068,0.995,0.249,1.4,0.0,-0.1,737,861,0
L,,2424413,0.065,0.987,0.225,1.5,-0.4,-0.6,739,861,0
L,,2424474,0.068,0.978,0.240,1.9,-1.0,-1.1,733,858,0
L,,2424533,0.040,0.970,0.214,2.4,-1.2,-1.0,736,860,0
L,,2424593,0.060,0.999,0.196,2.8,-0.7,-1.1,730,857,0
L,,2424653,0.035,1.000,0.182,3.7,-0.4,-1.4,728,857,0
L,,2424712,0.011,1.046,0.174,5.1,-1.1,-1.9,725,856,0
L,,2424773,0.088,1.070,0.172,7.7,-0.8,-3.0,702,856,0
L,,2424833,-0.013,1.150,0.172,9.4,-2.1,-4.5,343,756,0
L,,2424893,0.037,1.317,-0.014,10.7,-0.9,-7.1,174,726,0
L,,2424953,-0.003,1.182,0.095,10.2,-3.7,-8.8,155,769,0
L,,2425013,-0.314,1.052,0.121,8.1,-0.4,-12.2,387,786,0
L,,2425073,0.130,0.775,-0.309,6.1,5.7,-7.3,459,730,0
L,,2425133,-0.031,0.499,-0.020,-2.8,-9.4,-2.3,483,744,0
L,,2425195,-0.065,0.613,-0.200,-4.6,1.8,5.6,495,740,0
L,,2425252,0.048,0.765,-0.248,-6.2,-4.8,10.4,496,738,0
L,,2425313,-0.140,0.988,-0.067,-7.2,-8.1,12.9,494,746,0
L,,2425373,-0.147,1.140,0.049,-7.5,-8.5,13.5,491,746,0
L,,2425433,-0.140,1.191,0.117,-8.4,-8.3,11.9,494,751,0
L,,2425493,-0.131,1.148,0.129,-7.7,-2.7,10.6,494,751,0
L,,2425553,-0.026,1.123,0.059,-6.5,1.5,8.5,496,754,0
L,,2425613,0.072,1.112,0.033,-4.4,0.2,5.3,501,758,0
L,,2425673,0.210,1.028,0.081,-2.6,-2.0,2.3,499,751,0
L,,2425733,0.255,0.906,0.181,-2.8,-7.9,1.1,500,750,0
L,,2425792,0.040,0.789,0.240,-3.5,-5.1,2.4,503,751,0
L,,2425854,-0.238,0.691,0.075,-2.8,1.3,1.5,506,756,0
L,,2425943,-0.552,2.955,-0.524,7.2,0.9,-14.9,703,831,0
L,,2426002,-0.630,1.054,0.400,8.8,1.8,-11.1,725,856,0
L,,2426063,-0.050,0.939,0.154,2.2,2.3,-3.8,729,871,0
L,,2426123,-0.039,0.981,0.200,0.8,1.9,-0.1,709,875,0
L,,2426183,0.014,0.941,0.164,0.5,0.9,-0.5,647,878,0
L,,2426273,0.004,1.122,0.164,0.4,-0.2,-1.9,676,877,0
L,,2426333,-0.044,1.011,0.224,0.7,0.2,-1.3,686,875,0
L,,2426393,-0.064,1.005,0.169,1.5,0.3,-0.7,688,875,0
L,,2426453,-0.075,0.975,0.157,1.2,0.1,0.7,685,888,0
L,,2426513,-0.078,1.023,0.162,0.4,-0.4,2.4,687,882,0
L,,2426573,-0.060,0.976,0.144,-0.5,0.0,3.9,649,869,0
L,,2426665,0.096,1.014,0.159,0.3,0.0,0.4,520,856,0
L,,2426723,-0.001,0.989,0.189,1.2,0.0,-0.8,478,852,0
L,,2426783,-0.081,0.989,0.260,1.6,2.3,-1.4,464,848,0
L,,2426843,-0.077,1.027,0.228,1.5,6.1,-1.5,438,844,0
L,,2426903,-0.073,0.998,0.177,-0.4,8.6,-2.0,458,835,0
L,,2426963,0.029,1.074,0.152,-1.8,12.6,-3.7,482,798,0
L,,2427023,0.326,1.019,0.058,-0.1,11.9,-2.7,496,759,0
L,,2427083,0.299,0.926,0.012,0.1,15.0,1.8,513,763,0
L,,2427143,0.257,0.944,-0.096,-1.6,13.9,5.2,523,770,0
L,,2427203,0.234,1.018,-0.110,-1.7,9.2,8.1,526,772,0
L,,2427263,0.108,1.047,-0.058,-1.4,6.8,8.9,522,773,0
L,,2427323,0.078,1.062,-0.017,-0.3,3.1,8.1,521,776,0
L,,2427384,0.132,1.015,-0.013,0.1,7.3,7.5,525,777,0
L,,2427443,0.268,0.947,-0.005,0.8,3.3,8.0,524,775,0
L,,2427503,0.185,0.879,0.112,-0.6,-1.3,8.4,522,778,0
L,,2427563,-0.027,0.918,0.247,-2.3,-2.1,8.5,518,774,0
L,,2427623,-0.353,0.972,0.054,1.3,7.7,7.7,564,751,0
L,,2427682,0.512,0.756,1.373,-8.0,-2.7,-3.2,656,794,0
L,,2427743,0.370,0.938,0.241,-2.0,8.4,-6.9,669,792,0
L,,2427803,0.306,0.854,0.113,1.8,3.0,-8.9,721,850,0
L,,2427863,0.092,1.005,0.203,0.2,-0.8,-6.1,735,869,0
L,,2427923,0.152,0.969,0.166,-0.5,-1.3,-3.8,742,874,0
L,,2427983,0.098,0.976,0.225,-0.4,-0.3,-3.4,744,879,0
L,,2428075,0.066,0.967,0.232,-0.5,-0.4,-2.4,741,881,0
L,,2428133,0.000,0.993,0.234,-0.5,0.0,-2.3,741,876,0
L,,2428193,0.047,0.955,0.240,-0.2,1.7,-2.1,743,881,0
L,,2428253,0.003,0.995,0.221,0.1,-0.2,-1.2,740,880,0
L,,2428313,0.000,0.981,0.255,-0.7,0.0,-0.7,739,880,0
L,,2428373,-0.019,0.985,0.231,0.0,-0.4,-0.5,743,881,0
L,,2428433,0.002,0.989,0.248,0.3,-0.1,-0.4,744,881,0
L,,2428493,-0.018,0.986,0.239,0.8,-0.6,-0.1,745,882,0
L,,2428553,-0.007,0.995,0.261,0.8,-0.1,-0.3,745,883,0
L,,2428613,-0.040,0.998,0.229,0.8,-0.3,-0.8,745,882,0
L,,2428673,-0.043,0.981,0.217,0.5,-0.6,-0.6,747,885,0
L,,2428733,-0.034,0.989,0.192,0.7,0.3,0.0,749,887,0
L,,2428794,-0.052,0.996,0.230,1.2,-0.4,-0.2,748,888,0
L,,2428853,-0.017,1.007,0.206,1.7,-0.1,-0.6,743,883,0
L,,2428913,-0.033,0.998,0.187,2.3,-0.4,-1.4,739,885,0
L,,2428973,-0.036,1.010,0.175,3.0,-0.3,-2.0,732,886,0
L,,2429033,-0.110,1.019,0.177,4.2,0.0,-2.5,672,869,0
L,,2429093,-0.058,1.113,0.172,5.5,0.1,-3.5,327,863,0
L,,2429153,-0.078,1.139,0.028,6.1,0.3,-4.5,187,872,0
L,,2429213,-0.130,1.089,0.110,7.0,-0.3,-5.9,169,852,0
L,,2429273,-0.171,1.039,0.001,6.6,0.5,-7.2,150,836,0
L,,2429333,-0.248,0.981,-0.013,5.1,1.9,-8.0,148,838,0
L,,2429393,-0.441,0.869,-0.070,3.5,4.0,-6.5,162,832,0
L,,2429453,-0.391,0.784,-0.109,2.5,7.9,-4.2,156,818,0
L,,2429514,-0.493,0.881,-0.173,0.0,11.2,-1.8,147,802,0
L,,2429573,-0.199,0.730,-0.139,0.3,13.0,-2.3,418,745,0
L,,2429633,0.098,0.793,-0.062,-4.8,-1.8,0.9,429,753,0
L,,2429693,-0.033,0.804,-0.193,-7.6,8.6,4.7,456,750,0
L,,2429753,0.146,0.964,-0.238,-9.8,9.0,7.2,468,755,0
L,,2429813,0.188,1.109,-0.301,-10.6,7.5,9.1,473,752,0
L,,2429873,0.176,1.102,-0.314,-9.7,6.3,11.0,440,691,0
L,,2429933,0.230,1.102,-0.283,-8.7,3.7,12.1,486,753,0
L,,2429993,0.217,1.062,-0.132,-8.6,-4.5,12.6,473,744,0
L,,2430053,-0.056,1.198,0.048,-6.1,-6.7,13.9,477,763,0
L,,2430113,-0.272,1.143,-0.022,-2.0,-4.1,8.9,465,764,0
L,,2430174,-0.415,1.001,0.127,0.1,-12.0,-1.0,476,774,0
L,,2430233,-0.579,0.777,0.493,-1.7,0.0,-4.5,467,747,0
L,,2430293,0.614,1.130,-0.072,-0.3,-2.8,0.4,646,789,0
L,,2430353,0.257,1.017,0.360,-6.9,2.1,-8.4,700,828,0
L,,2430413,0.340,1.081,0.226,-1.1,-0.9,-8.0,693,817,0
L,,2430473,0.083,1.048,0.131,-0.5,0.7,-6.5,722,852,0
L,,2430533,0.046,0.985,0.246,0.1,0.0,-5.3,728,860,0
L,,2430593,0.039,0.981,0.234,0.2,1.3,-4.9,726,867,0
L,,2430653,0.018,1.024,0.229,1.5,0.0,-4.8,719,868,0
L,,2430713,-0.057,1.022,0.290,3.0,0.8,-4.8,667,875,0
L,,2430773,0.054,1.135,0.176,4.7,1.4,-8.1,223,886,0
L,,2430833,0.034,1.248,0.223,6.0,1.0,-12.8,149,877,0
L,,2430895,0.127,1.525,0.142,3.5,-0.1,-20.5,142,865,0
L,,2430953,-0.496,0.955,-0.031,1.2,0.6,-18.0,146,804,0
L,,2431013,-0.268,0.329,0.298,-0.7,8.5,-2.2,452,781,0
L,,2431073,-0.075,0.088,0.017,-2.7,11.8,13.5,460,776,0
L,,2431133,-0.073,0.427,-0.131,-9.3,9.5,24.4,442,744,0
L,,2431193,-0.312,1.273,-0.179,-12.1,-5.2,24.0,431,768,0
L,,2431253,-0.701,1.526,0.054,-6.8,-9.5,16.1,513,757,0
L,,2431313,1.563,0.194,-0.189,-11.6,4.5,-3.5,667,814,0
L,,2431374,0.195,1.018,-0.132,-0.5,3.4,-0.2,664,820,0
L,,2431433,-0.041,0.996,0.199,-1.0,0.8,1.3,680,835,0
L,,2431493,0.138,1.005,0.147,-0.6,1.5,1.1,697,849,0
L,,2431554,0.035,0.991,0.188,-0.1,-0.6,-0.5,702,852,0
L,,2431613,0.065,0.962,0.157,0.1,-0.1,-0.4,708,859,0
L,,2431673,0.060,0.991,0.181,-0.3,-1.3,-1.2,705,855,0
L,,2431733,0.048,0.994,0.194,0.0,-0.7,-1.8,704,853,0
L,,2431793,0.052,0.992,0.156,0.4,-0.9,-2.3,703,856,0
L,,2431853,0.023,0.978,0.205,0.6,-2.4,-3.4,707,856,0
L,,2431914,-0.061,0.980,0.162,2.3,-2.2,-3.7,722,867,0
L,,2431973,-0.167,0.983,0.064,1.6,-0.9,-2.2,728,874,0
L,,2432063,-0.137,0.998,0.140,0.0,0.2,2.0,729,877,0
L,,2432124,-0.060,0.999,0.152,-0.3,1.2,3.4,737,883,0
L,,2432183,0.017,0.993,0.159,0.3,1.2,3.0,728,871,0
L,,2432243,0.045,1.037,0.177,2.6,1.0,1.2,730,873,0
L,,2432304,0.016,1.054,0.180,4.6,0.6,-0.2,724,871,0
L,,2432363,0.044,1.091,0.189,8.0,-0.2,-1.8,575,860,0
L,,2432423,-0.054,1.240,0.264,7.5,-5.8,-4.3,344,839,0
L,,2432483,-0.457,0.891,0.354,2.7,7.4,-7.5,491,808,0
L,,2432543,0.203,0.608,0.221,-6.3,5.9,-0.5,541,779,0
L,,2432603,0.213,0.867,-0.223,-12.9,-8.8,4.2,540,774,0
L,,2432664,-0.245,1.149,-0.108,-8.8,-7.8,6.3,518,755,0
L,,2432723,-0.387,1.312,-0.154,-2.5,5.2,1.8,531,759,0
L,,2432783,-0.063,1.255,-0.142,1.5,5.1,-2.5,529,759,0
L,,2432843,0.041,1.037,-0.078,3.1,3.5,-4.9,534,760,0
L,,2432903,0.064,0.930,-0.217,3.9,7.9,-1.2,540,764,0
L,,2432963,0.106,0.962,-0.325,4.6,6.6,1.3,541,761,0
L,,2433025,0.026,0.974,-0.228,4.6,1.0,2.6,541,766,0
L,,2433083,0.089,0.961,-0.209,5.1,2.4,5.8,543,766,0
L,,2433143,0.126,0.931,-0.087,4.2,2.1,8.5,540,772,0
L,,2433204,0.153,0.947,0.137,0.9,-6.9,9.1,536,784,0
L,,2433263,-0.791,0.793,0.921,-2.2,-1.9,9.5,563,778,0
L,,2433323,0.234,0.749,0.939,-9.5,0.8,0.5,447,534,0
L,,2433383,0.072,0.737,0.579,-8.6,-1.5,-5.0,626,735,0
L,,2433443,0.030,1.103,-0.029,-3.5,4.0,0.3,688,808,0
L,,2433503,0.068,0.986,0.235,-3.7,-1.7,-0.2,727,855,0
L,,2433563,0.109,1.002,0.182,-2.4,1.6,0.5,735,864,0
L,,2433624,0.085,0.991,0.231,-1.2,2.3,0.2,737,866,0
L,,2433685,0.085,0.941,0.252,-1.6,2.2,-0.4,733,864,0
L,,2433744,0.104,1.021,0.136,-1.1,2.0,-0.5,732,862,0
L,,2433803,0.035,0.986,0.239,-1.5,-0.3,-0.4,735,865,0
L,,2433863,0.089,0.976,0.229,-1.0,-0.6,-0.8,740,868,0
L,,2433923,0.057,0.981,0.236,-0.5,-1.1,-0.8,740,869,0
L,,2433983,0.061,0.968,0.242,-0.5,-1.9,-0.5,730,857,0
L,,2434043,0.058,0.979,0.247,-0.2,-1.1,-0.1,743,873,0
L,,2434103,0.071,1.011,0.264,0.1,-0.4,-0.4,744,870,0
L,,2434164,0.052,0.984,0.250,0.4,-0.7,-0.4,743,872,0
L,,2434223,0.029,0.980,0.255,0.6,-0.7,-0.7,748,875,0
L,,2434284,0.024,0.981,0.245,1.4,0.4,-1.1,746,874,0
L,,2434343,0.074,0.990,0.283,2.5,0.7,-2.7,739,873,0
L,,2434405,-0.011,0.986,0.178,2.4,-1.1,-3.1,722,871,0
L,,2434462,-0.087,0.964,0.145,1.6,-0.5,-1.5,662,871,0
L,,2434523,-0.080,0.968,0.166,1.2,-0.9,-0.9,502,825,0
L,,2434583,-0.039,0.973,0.190,0.9,-0.6,-0.9,564,865,0
L,,2434643,-0.054,1.012,0.144,0.7,-0.6,-0.6,617,869,0
L,,2434704,-0.019,1.003,0.203,0.9,-0.2,-0.7,654,879,0
L,,2434763,-0.065,1.013,0.174,1.9,-0.5,-0.6,652,888,0
L,,2434823,-0.067,1.005,0.124,2.2,-0.3,-0.5,618,890,0
L,,2434883,-0.099,0.999,0.124,2.5,-0.1,-0.5,511,871,0
L,,2434943,-0.092,1.016,0.114,2.9,-0.1,-0.8,425,868,0
L,,2435003,-0.033,1.022,0.050,3.6,-0.2,-1.6,281,854,0
L,,2435063,-0.060,1.130,0.107,4.4,-0.1,-3.0,167,736,0
L,,2435125,-0.038,1.218,0.082,6.1,-1.6,-4.6,143,787,0
L,,2435183,-0.079,1.100,-0.018,6.0,-2.1,-6.8,96,712,0
L,,2435273,-0.219,1.036,-0.065,6.6,-1.0,-7.6,91,671,0
L,,2435333,-0.345,1.017,-0.196,4.3,-1.4,-6.0,116,688,0
L,,2435393,-0.382,0.808,-0.266,5.1,1.4,-4.6,124,703,0
L,,2435454,-0.183,0.600,-0.170,6.3,-2.2,-1.5,222,739,0
L,,2435513,-0.198,0.681,-0.029,2.5,-7.6,2.4,387,746,0
L,,2435574,-0.294,0.774,-0.060,-0.7,-1.1,5.1,408,749,0
L,,2435633,-0.182,0.897,-0.171,-3.5,-4.3,6.3,401,720,0
L,,2435693,-0.340,1.021,-0.203,-3.2,-8.5,6.1,422,743,0
L,,2435753,-0.322,0.957,-0.101,-2.0,-5.9,7.2,439,749,0
L,,2435815,-0.224,0.961,-0.043,-2.1,-4.2,8.2,449,753,0
L,,2435874,-0.153,0.991,0.017,-3.1,-6.2,8.5,452,756,0
L,,2435933,-0.111,1.047,0.081,-3.5,-6.4,9.0,459,762,0
L,,2435994,-0.057,1.086,0.121,-4.2,-6.1,9.1,464,761,0
L,,2436053,-0.009,1.056,0.103,-4.5,-5.7,8.3,469,764,0
L,,2436114,0.003,1.070,0.121,-5.4,-6.8,7.8,465,763,0
L,,2436173,0.037,1.082,0.131,-5.2,-6.2,6.6,465,762,0
L,,2436233,0.105,1.018,0.120,-4.7,-6.4,4.8,458,769,0
L,,2436292,0.158,1.037,0.130,-4.2,-8.6,3.7,433,734,0
L,,2436353,0.187,0.961,0.137,-3.4,-9.1,2.5,444,761,0
L,,2436414,0.164,0.947,0.099,-3.4,-11.1,1.6,445,761,0
L,,2436473,0.057,0.874,0.121,-3.9,-12.3,0.8,451,766,0
L,,2436535,-0.355,0.809,0.062,-4.5,-7.0,0.2,501,721,0
L,,2436593,0.080,1.444,0.199,-0.3,12.4,0.3,632,763,0
L,,2436653,0.338,0.941,0.165,-1.2,-0.4,-4.7,694,826,0
L,,2436713,0.137,0.871,0.257,0.7,2.9,-5.0,703,829,0
L,,2436773,0.195,0.991,0.203,-0.8,-2.2,-3.9,711,837,0
L,,2436864,0.186,0.959,0.286,-1.1,-0.9,-2.3,709,835,0
L,,2436923,0.212,0.939,0.282,0.1,0.2,-2.3,711,835,0
L,,2436983,0.178,0.931,0.345,0.7,0.0,-3.6,712,835,0
L,,2437043,0.172,0.999,0.242,1.5,-0.4,-4.1,714,839,0
L,,2437103,0.120,0.979,0.232,2.0,0.0,-4.2,716,841,0
L,,2437164,0.066,1.037,0.228,3.1,2.3,-4.1,725,856,0
L,,2437223,0.072,1.016,0.156,4.4,1.1,-5.8,725,869,0
L,,2437285,0.041,1.059,0.212,6.0,-0.6,-7.8,673,860,0
L,,2437343,0.002,1.237,0.144,8.5,0.8,-9.0,97,641,0
L,,2437404,-0.067,1.196,0.030,8.6,-0.5,-10.0,116,712,0
L,,2437463,-0.274,0.850,-0.026,5.7,-2.1,-10.5,130,681,0
L,,2437523,-0.426,0.814,-0.061,3.6,0.0,-7.7,115,664,0
L,,2437583,-0.434,0.841,-0.105,2.8,1.9,-5.2,140,755,0
L,,2437643,-0.435,0.838,-0.140,3.0,0.0,-3.8,140,720,0
L,,2437704,-0.423,0.855,-0.238,2.6,-4.2,-2.8,140,661,0
L,,2437763,-0.458,0.947,-0.180,4.1,-1.4,-1.3,154,724,0
L,,2437824,-0.447,0.925,-0.097,5.0,-3.5,-1.5,115,671,0
L,,2437883,-0.266,0.763,-0.028,2.4,-5.3,0.4,162,683,0
L,,2437945,-0.160,0.716,-0.006,2.5,-1.0,6.1,194,745,0
L,,2438034,-0.035,0.905,-0.045,0.0,-6.2,14.2,385,736,0
L,,2438093,-0.060,1.055,0.102,-1.5,-11.5,17.1,409,748,0
L,,2438154,-0.050,1.151,0.158,-2.9,-14.1,17.2,434,755,0
L,,2438213,-0.066,1.212,0.267,-4.6,-17.3,15.9,446,754,0
L,,2438273,-0.172,1.243,0.287,-5.9,-14.7,13.2,453,758,0
L,,2438333,-0.063,1.141,0.172,-6.1,-12.0,10.3,437,760,0
L,,2438393,-0.114,1.105,0.129,-6.3,-15.1,7.4,433,763,0
L,,2438454,-0.100,1.148,0.168,-6.1,-19.7,4.0,437,760,0
L,,2438513,-0.202,1.068,0.197,-5.5,-20.5,0.0,442,763,0
L,,2438574,-0.184,0.914,0.219,-6.3,-16.2,-2.1,436,743,0
L,,2438633,0.202,0.953,-0.575,0.1,-10.8,-2.0,467,670,0
L,,2438695,-0.386,2.552,-0.718,-0.6,10.0,-4.9,633,741,0
L,,2438753,0.327,0.913,0.464,-4.4,-4.8,-8.9,657,778,0
L,,2438813,0.125,0.884,0.231,0.6,-2.4,-9.2,659,779,0
L,,2438874,0.042,0.951,0.039,0.5,-1.8,-6.9,676,800,0
L,,2438932,-0.095,1.043,0.089,1.1,1.0,-3.3,673,802,0
L,,2438994,-0.084,0.994,0.083,0.6,-0.3,-1.4,661,795,0
L,,2439053,-0.058,1.013,0.149,1.0,0.3,0.9,684,825,0
L,,2439114,-0.023,1.002,0.102,1.1,0.8,1.8,688,832,0
L,,2439173,0.051,1.020,0.085,1.3,1.2,0.8,687,838,0
L,,2439234,0.068,1.020,0.094,2.5,0.0,-1.1,551,698,0
L,,2439293,0.019,1.063,0.126,4.8,-1.3,-3.6,553,827,0
L,,2439355,-0.005,1.148,0.063,8.6,-0.6,-4.7,138,859,0
L,,2439414,0.131,1.428,-0.083,9.9,-4.5,-7.8,124,759,0
L,,2439473,0.205,1.413,0.078,12.0,-6.9,-12.0,116,737,0
L,,2439534,0.152,1.269,0.068,14.0,-5.3,-13.6,95,616,0
L,,2439593,-0.017,0.973,-0.032,9.7,-11.1,-10.1,104,655,0
L,,2439654,-0.322,0.509,-0.051,9.7,-19.6,-3.0,370,684,0
L,,2439713,-0.056,0.447,0.130,4.9,-12.9,8.1,391,727,0
L,,2439774,-0.334,0.546,0.060,2.9,-9.2,17.7,410,733,0
L,,2439833,-0.383,0.986,-0.075,2.9,-17.6,22.2,361,643,0
L,,2439893,-0.655,1.149,0.241,2.5,-25.3,18.4,420,762,0
L,,2439953,-0.483,1.205,0.312,2.5,-17.7,13.6,396,656,0
L,,2440013,-0.167,0.990,0.329,-2.7,-15.9,10.0,425,678,0
L,,2440075,0.020,0.972,0.417,-6.7,-22.8,8.9,445,692,0
L,,2440133,-0.371,1.160,0.544,-7.2,-12.8,12.1,445,694,0
L,,2440194,-0.152,1.462,0.072,-9.8,-6.9,10.4,399,711,0
L,,2440253,-0.922,1.397,-0.295,-3.5,-18.1,-2.6,218,739,0
L,,2440313,-0.276,0.804,-0.266,1.5,-23.0,-14.2,273,754,0
L,,2440374,-0.546,0.373,-0.234,5.9,-4.7,-3.0,135,711,0
L,,2440433,0.184,1.164,0.013,-0.7,-2.5,-2.9,174,834,0
L,,2440494,0.071,1.261,0.151,-2.1,-1.4,-5.3,175,838,0
L,,2440553,-0.143,1.096,0.151,-0.5,0.0,-4.2,168,818,0
L,,2440614,-0.240,1.002,0.027,-0.4,2.2,-0.6,170,825,0
L,,2440673,-0.097,0.961,0.043,-0.2,2.6,0.4,161,815,0
L,,2440734,-0.168,0.893,0.111,0.1,2.0,0.1,164,818,0
L,,2440795,-0.127,1.007,0.100,0.4,0.6,0.0,158,825,0
L,,2440853,-0.093,1.084,0.078,0.6,-0.1,-0.1,163,829,0
L,,2440914,-0.063,1.074,0.041,1.3,0.5,-1.3,150,833,0
L,,2440973,-0.094,1.055,0.085,2.6,0.0,-4.0,137,797,0
L,,2441034,-0.125,1.038,0.044,3.4,-1.3,-7.4,108,823,0
L,,2441093,-0.010,1.386,0.105,6.2,-2.1,-9.3,95,800,0
L,,2441154,0.116,1.389,0.147,7.9,0.4,-14.3,103,801,0
L,,2441213,-0.156,1.313,0.027,4.4,-0.6,-14.6,83,647,0
L,,2441274,-0.002,0.577,0.010,6.9,-2.5,-4.8,235,663,0
L,,2441333,-0.004,0.368,0.079,0.0,3.1,5.8,176,706,0
L,,2441393,-0.119,0.460,0.026,-5.3,3.6,14.3,266,717,0
L,,2441455,-0.074,0.825,0.035,-9.6,-2.0,20.6,186,731,0
L,,2441513,-0.229,1.249,-0.047,-10.6,-7.6,22.4,180,733,0
L,,2441574,-0.337,1.412,0.102,-8.2,-9.9,20.9,200,749,0
L,,2441633,-0.075,1.262,0.217,-7.6,-4.6,17.1,181,749,0
L,,2441694,-0.142,1.316,0.117,-6.0,-0.2,12.4,187,752,0
L,,2441753,0.133,1.057,0.059,-2.6,-0.6,5.4,190,748,0
L,,2441814,0.239,1.019,0.108,-0.1,-4.9,-0.7,194,745,0
L,,2441874,0.108,0.858,0.181,2.4,-12.0,-4.4,180,729,0
L,,2441933,0.117,0.908,0.197,-2.5,-16.5,-7.0,272,700,0
L,,2441994,-0.660,0.945,0.181,0.0,-18.0,-13.9,177,765,0
L,,2442083,0.079,1.174,-0.078,3.7,-4.3,-10.5,259,767,0
L,,2442143,-0.086,0.988,0.018,-1.1,0.9,-6.0,238,841,0
L,,2442235,0.060,1.091,0.089,-0.1,-0.7,-2.0,193,844,0
L,,2442293,-0.103,0.905,0.182,-0.8,-0.8,-0.9,198,850,0
L,,2442354,-0.071,0.958,0.022,-0.6,-0.9,-0.2,179,835,0
L,,2442444,-0.068,0.989,0.143,-1.9,-0.8,0.0,192,846,0
L,,2442503,-0.017,1.016,0.073,-1.6,-1.5,0.3,205,857,0
L,,2442564,-0.028,1.053,0.168,-1.5,-0.9,0.0,229,875,0
L,,2442624,-0.085,1.008,0.156,-1.1,-1.1,-1.5,283,897,0
L,,2442683,-0.059,1.002,0.182,-0.5,-0.2,-0.4,293,896,0
L,,2442744,-0.073,1.005,0.181,0.0,-0.1,-0.9,260,895,0
L,,2442803,-0.122,0.967,0.159,0.0,0.0,-0.5,245,893,0
L,,2442864,-0.095,0.991,0.185,0.0,0.0,-0.2,233,892,0
L,,2442923,-0.122,0.955,0.155,0.3,-0.5,0.0,231,892,0
L,,2442985,-0.112,0.989,0.149,-0.2,-0.6,0.0,243,887,0
L,,2443043,-0.096,0.976,0.163,-0.7,-0.2,0.6,257,900,0
L,,2443104,-0.067,1.004,0.147,-1.0,-0.6,0.5,275,889,0
L,,2443164,-0.151,1.033,0.126,-1.3,0.5,0.0,293,897,0
L,,2443223,0.040,0.963,0.335,-0.7,-0.3,1.2,366,895,0
L,,2443284,-0.085,0.984,0.214,0.0,-0.4,-0.3,429,895,0
L,,2443343,-0.071,0.995,0.211,0.4,0.0,-0.7,420,895,0
L,,2443404,-0.111,0.974,0.189,-0.2,0.0,-0.1,421,895,0
L,,2443463,-0.067,1.011,0.263,0.0,0.0,0.0,380,897,0
L,,2443524,-0.140,0.997,0.229,0.3,0.4,0.0,330,899,0
L,,2443583,-0.080,1.005,0.216,0.3,1.2,0.0,216,904,0
L,,2443645,-0.076,0.984,0.203,1.3,0.8,-0.1,199,855,0
L,,2443734,-0.085,1.020,0.204,1.8,0.2,-1.4,191,869,0
L,,2443793,-0.206,0.936,0.172,0.9,0.1,-1.1,180,832,0
L,,2443854,-0.126,0.946,0.095,0.6,0.7,-0.7,194,832,0
L,,2443914,-0.210,0.941,0.197,0.1,-0.2,-0.5,190,841,0
L,,2443973,-0.121,0.955,0.119,0.4,-0.3,-0.2,200,878,0
L,,2444034,-0.154,0.978,0.115,0.5,-0.3,0.4,217,887,0
L,,2444093,-0.124,1.015,0.140,0.4,-0.3,0.6,216,897,0
L,,2444154,-0.121,1.016,0.126,0.6,-0.5,0.0,193,806,0
L,,2444244,-0.156,1.014,0.138,1.3,-0.3,-0.1,214,859,0
L,,2444303,-0.153,1.021,0.119,1.0,0.1,-0.3,205,868,0
L,,2444364,-0.188,1.015,0.106,0.8,0.1,-0.4,193,855,0
L,,2444425,-0.188,1.034,0.106,2.8,0.9,-0.5,176,868,0
L,,2444513,-0.146,0.992,0.079,2.1,-0.3,-2.4,134,812,0
L,,2444574,-0.140,1.121,0.054,3.3,0.9,-3.0,124,771,0
L,,2444633,-0.193,1.118,0.141,3.7,-0.6,-4.8,113,835,0
L,,2444694,-0.102,1.211,-0.005,4.2,-1.3,-8.3,111,796,0
L,,2444753,-0.338,1.076,0.084,4.6,-0.1,-9.3,116,731,0
L,,2444814,-0.232,0.983,-0.086,3.6,-0.7,-8.5,121,737,0
L,,2444874,-0.622,0.764,-0.106,3.6,-1.0,-5.4,112,613,0
L,,2444934,-0.453,0.573,0.099,3.5,-2.8,-1.8,135,672,0
L,,2444994,-0.382,0.595,-0.081,1.7,-2.4,2.9,140,645,0
L,,2445053,-0.471,0.732,-0.126,-0.4,-3.1,5.0,150,678,0
L,,2445114,-0.457,0.816,-0.118,-0.6,-4.0,6.1,163,758,0
L,,2445175,-0.477,0.893,-0.101,-1.0,-1.2,6.2,147,685,0
L,,2445234,-0.461,1.032,-0.088,-0.9,-0.4,4.9,146,697,0
L,,2445293,-0.420,0.983,-0.086,-0.7,-0.1,3.2,154,700,0
L,,2445354,-0.360,0.974,-0.139,-0.7,0.7,2.7,156,706,0
L,,2445414,-0.216,0.986,-0.172,0.3,-3.7,3.3,155,707,0
L,,2445474,-0.214,0.946,-0.075,0.6,-4.9,5.0,150,706,0
L,,2445534,-0.118,0.855,0.054,0.3,-4.6,5.7,151,699,0
L,,2445593,-0.165,1.004,0.111,-1.5,-5.6,5.9,138,688,0
L,,2445654,-0.190,1.051,0.133,-3.0,-6.6,5.1,141,691,0
L,,2445713,-0.272,1.054,0.141,-4.2,-6.5,3.6,139,697,0
L,,2445774,-0.240,0.963,0.044,-4.2,-5.6,2.0,149,687,0
L,,2445835,-0.315,0.979,0.083,-3.0,-6.3,1.0,157,709,0
L,,2445894,-0.218,0.829,0.225,-0.7,8.6,1.5,182,761,0
L,,2445954,0.198,0.772,-0.076,0.1,4.0,1.4,156,740,0
L,,2446014,0.019,0.897,-0.245,2.4,-7.4,-6.2,708,848,0
L,,2446074,-0.175,1.025,0.044,1.4,0.4,0.6,723,866,0
L,,2446133,-0.040,0.960,0.101,-2.0,-2.6,4.1,729,869,0
L,,2446194,-0.030,0.997,0.185,-2.0,1.2,5.1,717,851,0
L,,2446253,0.088,0.994,0.177,-0.9,1.1,3.3,669,791,0
L,,2446314,0.173,1.136,0.203,2.7,-0.1,-3.2,699,823,0
L,,2446374,0.057,1.144,0.230,7.1,-3.0,-6.2,689,835,0
L,,2446434,0.072,1.251,0.116,5.8,-1.3,-6.1,435,729,0
L,,2446494,0.155,0.851,0.258,2.9,-0.9,-6.1,498,734,0
L,,2446585,0.240,0.766,0.035,-2.1,4.2,3.9,514,744,0
L,,2446644,0.180,0.951,-0.022,-4.6,1.3,6.2,513,745,0
L,,2446704,0.208,1.035,0.004,-4.4,1.8,8.8,499,738,0
L,,2446764,0.251,1.061,0.071,-4.2,0.8,10.8,495,743,0
L,,2446824,0.220,1.044,0.088,-4.9,2.7,11.1,494,745,0
L,,2446883,0.203,1.011,0.067,-4.1,2.7,11.3,479,742,0
L,,2446944,0.107,0.972,0.093,-2.2,1.7,9.9,480,747,0
L,,2447003,-0.099,0.951,0.167,-0.7,0.7,5.8,482,760,0
L,,2447064,-0.430,0.810,0.143,0.0,3.3,0.4,502,746,0
L,,2447124,0.023,1.096,0.578,0.3,9.9,-1.5,656,803,0
L,,2447184,0.096,1.103,0.204,-1.5,0.3,-7.4,689,817,0
L,,2447246,0.150,0.888,0.344,-0.5,-0.2,-7.0,696,825,0
L,,2447304,0.198,1.002,0.270,-0.2,5.1,-6.3,709,835,0
L,,2447364,0.160,0.994,0.306,0.5,2.5,-5.2,714,842,0
L,,2447423,0.114,0.962,0.337,1.4,2.2,-4.8,719,850,0
L,,2447484,0.062,0.949,0.311,1.5,1.4,-4.5,717,858,0
L,,2447543,0.036,0.989,0.353,1.6,0.4,-4.6,707,859,0
L,,2447604,-0.032,0.985,0.313,1.3,1.3,-3.7,661,865,0
L,,2447664,-0.047,0.955,0.257,1.2,1.3,-3.3,349,876,0
L,,2447724,-0.094,0.962,0.246,0.4,1.1,-2.5,261,883,0
L,,2447784,-0.125,0.958,0.255,-0.3,0.7,-1.3,210,891,0
L,,2447844,-0.095,0.982,0.281,-0.2,0.8,-1.2,168,876,0
L,,2447904,-0.075,1.001,0.305,0.2,0.5,-3.2,139,877,0
L,,2447965,-0.148,1.009,0.277,0.4,0.6,-4.9,137,879,0
L,,2448024,-0.146,1.020,0.281,0.3,0.8,-6.2,146,867,0
L,,2448114,-0.076,1.299,0.343,2.1,1.6,-10.9,128,886,0
L,,2448173,0.026,1.438,0.221,0.9,4.4,-15.1,98,872,0
L,,2448234,-0.244,1.315,0.130,1.8,11.2,-14.0,97,853,0
L,,2448293,-0.064,0.548,0.097,4.0,9.4,-4.0,93,615,0
L,,2448354,-0.084,0.444,0.023,0.5,6.0,3.1,164,762,0
L,,2448414,0.073,0.481,0.062,-5.4,21.7,16.5,147,715,0
L,,2448503,0.363,1.037,-0.169,-14.9,19.5,26.2,372,737,0
L,,2448563,0.042,1.385,-0.109,-15.7,12.5,28.1,397,721,0
L,,2448624,0.129,1.419,0.034,-16.1,12.2,27.5,407,715,0
L,,2448713,-0.528,1.314,-0.209,-12.2,-1.2,14.0,422,727,0
L,,2448775,-0.986,1.504,-0.303,0.5,-9.1,-5.0,567,734,0
L,,2448833,-0.090,1.372,0.730,5.8,10.3,-5.7,662,790,0
L,,2448894,-0.105,1.065,0.512,-1.3,-4.9,-9.0,689,812,0
L,,2448954,0.194,0.846,0.389,3.9,10.6,-3.9,698,819,0
L,,2449014,0.158,0.956,0.315,1.6,0.4,-4.6,708,834,0
L,,2449104,0.120,0.950,0.398,3.3,4.4,-2.8,719,848,0
L,,2449164,0.123,0.938,0.335,2.9,0.9,-2.9,709,846,0
L,,2449224,0.138,0.956,0.332,1.6,1.1,-2.6,707,847,0
L,,2449284,0.029,0.962,0.311,1.4,1.1,-2.7,695,844,0
L,,2449344,-0.015,0.955,0.312,0.9,0.6,-1.9,704,864,0
L,,2449404,-0.035,0.947,0.268,0.0,0.2,-0.9,721,873,0
L,,2449465,-0.030,1.017,0.284,0.5,-0.9,-1.8,728,871,0
L,,2449524,0.011,1.044,0.317,1.5,1.2,-2.7,728,863,0
L,,2449583,-0.048,1.025,0.300,2.5,1.8,-4.0,695,878,0
L,,2449644,0.016,1.064,0.272,3.1,3.3,-6.4,388,882,0
L,,2449704,0.060,1.153,0.158,1.8,4.9,-12.5,192,879,0
L,,2449764,-0.191,1.371,0.202,0.8,6.3,-12.6,119,797,0
L,,2449824,-0.481,0.916,-0.235,2.2,6.8,-4.1,75,621,0
L,,2449884,-0.615,0.636,-0.147,-5.2,6.0,-0.1,117,494,0
L,,2449944,-0.046,0.355,0.202,3.0,28.5,11.8,334,589,0
L,,2450003,0.326,0.463,-0.169,-1.4,26.7,19.5,388,631,0
L,,2450064,-0.168,1.305,-0.142,-5.4,10.9,23.6,437,689,0
L,,2450124,-0.759,1.114,0.013,-4.1,10.4,13.4,440,625,0
L,,2450185,0.404,0.941,1.778,-16.2,-2.4,0.7,576,686,0
L,,2450244,-0.141,0.903,0.296,-5.0,1.8,-1.3,696,819,0
L,,2450304,0.121,0.888,0.128,-2.3,2.9,0.1,624,734,0
L,,2450364,0.046,0.977,0.213,-2.2,0.7,-0.8,696,819,0
L,,2450424,0.151,0.989,0.217,-1.6,-0.4,-1.2,720,845,0
L,,2450484,0.050,1.000,0.221,-0.8,-0.8,-1.9,725,849,0
L,,2450543,0.021,0.976,0.251,0.0,0.2,-0.8,726,852,0
L,,2450604,0.020,0.989,0.207,-1.4,-2.0,0.5,726,854,0
L,,2450664,0.051,0.977,0.239,-0.3,-1.3,-0.5,729,855,0
L,,2450724,-0.005,0.984,0.268,-0.1,-1.3,-0.4,730,855,0
L,,2450784,0.006,0.930,0.247,-0.7,0.6,0.4,719,844,0
L,,2450844,0.042,0.963,0.221,-1.0,0.7,0.6,714,836,0
L,,2450906,0.068,0.991,0.241,-1.3,-1.0,1.0,717,840,0
L,,2450964,0.089,0.988,0.263,-0.7,-0.4,0.0,656,767,0
L,,2451024,0.080,0.975,0.299,-0.2,-2.0,-1.2,656,763,0
L,,2451083,-0.003,0.993,0.262,0.3,-1.6,-0.8,670,779,0
L,,2451144,0.064,0.982,0.314,1.3,0.8,-1.4,702,820,0
L,,2451204,0.081,1.016,0.290,2.9,1.3,-2.6,706,823,0
L,,2451264,0.044,1.035,0.256,4.6,2.1,-3.9,723,846,0
L,,2451324,0.139,1.108,0.259,6.8,0.9,-7.4,711,847,0
L,,2451384,0.033,1.304,0.219,10.2,0.9,-12.4,252,851,0
L,,2451444,0.124,1.411,0.080,9.0,1.6,-16.7,123,661,0
L,,2451504,-0.286,1.119,-0.027,4.2,-1.1,-17.7,134,776,0
L,,2451566,0.285,0.281,0.068,0.0,1.4,-6.1,465,750,0
L,,2451624,0.035,0.433,0.173,-4.4,9.0,8.5,486,757,0
L,,2451684,0.165,0.702,-0.046,-9.1,10.8,16.8,496,762,0
L,,2451744,0.110,1.050,0.023,-12.4,-0.2,22.9,495,762,0
L,,2451804,-0.454,1.463,0.089,-13.8,-11.7,23.1,477,758,0
L,,2451864,-0.882,1.202,-0.045,-7.6,-3.9,15.1,502,733,0
L,,2451924,0.630,0.588,1.394,0.5,-0.9,-3.9,680,807,0
L,,2451984,0.148,1.196,0.021,3.3,1.9,-8.8,718,845,0
L,,2452044,-0.179,0.918,0.273,1.3,0.9,-4.4,717,865,0
L,,2452104,-0.013,0.976,0.261,0.5,1.8,-0.3,700,853,0
L,,2452194,0.018,0.996,0.195,0.2,1.2,-1.4,676,877,0
L,,2452254,-0.044,0.966,0.211,-0.3,0.4,-1.8,596,875,0
L,,2452316,-0.059,0.956,0.221,-0.3,-0.2,-0.5,577,868,0
L,,2452374,-0.036,0.996,0.243,0.0,0.0,-0.2,591,874,0
L,,2452434,-0.041,0.975,0.125,0.2,0.4,0.0,574,867,0
L,,2452494,-0.076,0.997,0.222,0.0,0.1,0.2,558,830,0
L,,2452554,-0.076,0.987,0.253,-0.3,0.0,0.3,573,829,0
L,,2452614,-0.009,0.997,0.246,0.0,-0.2,-0.3,588,837,0
L,,2452674,-0.060,0.986,0.248,0.1,-1.6,-0.3,577,815,0
L,,2452734,-0.112,0.927,0.300,-0.2,-3.1,1.2,638,873,0
L,,2452794,-0.034,1.002,0.236,0.0,-1.7,1.1,664,873,0
L,,2452854,0.005,0.993,0.238,0.4,-0.6,0.7,685,872,0
L,,2452914,-0.006,0.971,0.252,0.5,-0.3,0.1,687,860,0
L,,2452974,-0.027,1.002,0.244,0.7,0.4,-0.6,699,871,0
L,,2453036,-0.013,0.960,0.221,0.8,1.4,-1.3,702,874,0
L,,2453094,-0.061,0.981,0.206,0.7,0.8,-1.5,703,873,0
L,,2453154,-0.039,1.009,0.253,1.0,0.8,-2.4,698,876,0
L,,2453214,-0.020,1.018,0.204,1.6,0.9,-4.1,647,872,0
L,,2453274,-0.066,1.170,0.264,3.3,0.8,-5.6,322,893,0
L,,2453334,-0.021,1.189,0.109,4.3,1.8,-7.5,135,851,0
L,,2453394,-0.154,1.038,0.159,3.4,0.0,-9.7,122,823,0
L,,2453454,-0.308,1.049,0.189,3.4,1.2,-10.7,105,810,0
L,,2453514,-0.391,1.044,0.111,1.7,4.2,-10.0,123,812,0
L,,2453574,-0.421,0.581,-0.071,0.4,2.5,-5.6,125,723,0
L,,2453634,-0.505,0.527,0.101,0.2,4.9,-3.5,152,732,0
L,,2453696,-0.207,0.545,0.091,-3.0,10.8,4.4,190,757,0
L,,2453754,-0.214,0.716,-0.059,-5.2,11.0,10.7,217,754,0
L,,2453814,-0.137,0.996,-0.176,-7.9,6.8,12.6,360,729,0
L,,2453875,-0.145,1.139,-0.129,-6.8,7.4,12.9,401,731,0
L,,2453934,-0.100,1.151,-0.109,-5.9,8.7,12.8,422,739,0
L,,2453994,-0.083,1.204,-0.149,-4.5,8.8,11.2,435,747,0
L,,2454053,-0.094,1.101,-0.094,-2.0,5.7,8.2,437,754,0
L,,2454114,-0.131,1.001,-0.033,-0.6,3.4,6.1,426,756,0
L,,2454174,-0.131,1.035,0.126,0.0,4.0,3.6,413,754,0
L,,2454234,0.011,0.952,0.122,0.0,3.8,1.7,415,751,0
L,,2454294,0.151,0.874,0.122,-0.7,1.8,2.1,437,753,0
L,,2454354,0.034,0.869,0.191,-1.8,0.2,3.3,429,754,0
L,,2454416,0.178,1.154,0.115,-4.5,4.8,7.8,477,729,0
L,,2454474,-0.454,2.239,0.170,-6.4,9.5,-2.9,677,814,0
L,,2454534,0.072,0.924,0.261,-3.1,-4.3,-3.1,707,841,0
L,,2454594,-0.024,0.907,0.263,-1.3,-2.4,-0.6,719,849,0
L,,2454654,0.278,1.045,0.215,-2.2,-1.2,-1.1,716,842,0
L,,2454714,0.054,0.986,0.299,-0.8,1.2,-1.0,692,811,0
L,,2454774,0.127,0.958,0.284,0.3,2.5,-0.6,724,848,0
L,,2454834,0.079,0.949,0.263,0.8,4.8,0.0,727,856,0
L,,2454894,0.128,1.000,0.219,1.6,1.9,-1.0,732,861,0
L,,2454954,0.083,0.974,0.264,1.5,1.0,-2.2,730,863,0
L,,2455014,0.190,1.018,0.268,2.2,-0.6,-5.1,726,865,0
L,,2455076,0.024,1.064,0.277,4.7,-0.2,-7.9,663,872,0
L,,2455134,0.089,1.313,0.246,4.9,1.7,-11.8,213,878,0
L,,2455194,0.070,1.352,0.154,4.0,0.3,-14.4,143,800,0
L,,2455254,-0.187,0.724,0.265,1.8,1.5,-12.2,274,768,0
L,,2455314,0.180,0.422,0.214,-1.0,12.3,4.6,453,744,0
L,,2455375,0.278,0.680,0.064,-4.6,19.4,14.6,456,748,0
L,,2455434,0.243,1.024,-0.012,-8.5,10.9,18.8,462,751,0
L,,2455494,0.263,1.157,0.082,-9.8,4.8,20.0,452,738,0
L,,2455554,0.138,1.193,0.126,-10.8,1.7,19.6,445,734,0
L,,2455614,-0.227,1.148,-0.063,-8.5,-2.4,16.0,446,745,0
L,,2455674,-0.535,1.076,-0.065,-4.2,-5.0,3.6,404,749,0
L,,2455734,1.684,0.486,1.484,-1.6,-0.4,-0.3,661,802,0
L,,2455795,0.183,1.125,0.188,0.7,0.4,-7.6,700,824,0
L,,2455854,0.142,0.930,0.357,1.9,3.5,-7.3,643,754,0
L,,2455915,0.335,0.954,0.218,2.6,1.7,-5.7,708,831,0
L,,2455974,0.136,0.969,0.347,1.8,3.2,-3.6,726,855,0
L,,2456034,0.136,0.958,0.365,1.5,0.1,-3.6,729,864,0
L,,2456094,0.095,0.954,0.271,1.9,-0.3,-3.4,721,862,0
L,,2456154,0.058,0.978,0.277,1.7,-0.1,-3.2,720,870,0
L,,2456214,0.022,0.976,0.259,1.7,-0.3,-3.3,719,880,0
L,,2456274,-0.005,0.985,0.243,1.9,-0.2,-3.2,705,878,0
L,,2456334,-0.055,0.987,0.204,1.6,-0.5,-3.4,693,873,0
L,,2456394,-0.042,1.014,0.262,2.3,-0.2,-2.5,665,863,0
L,,2456455,-0.106,0.995,0.229,3.0,0.1,-1.5,551,880,0
L,,2456516,-0.073,1.018,0.190,2.9,1.0,-1.3,380,884,0
L,,2456574,0.053,1.157,0.164,2.1,-0.1,-4.2,250,888,0
L,,2456634,0.120,1.344,0.144,3.3,1.1,-9.2,216,870,0
L,,2456693,-0.283,0.874,-0.053,1.1,-1.3,-8.5,240,800,0
L,,2456754,0.067,0.650,0.051,1.2,8.0,3.9,310,688,0
L,,2456814,0.241,0.797,-0.218,-0.3,19.2,11.5,379,689,0
L,,2456875,0.274,1.008,-0.345,-1.5,16.1,15.9,396,691,0
L,,2456934,0.210,1.140,-0.229,-1.3,9.3,17.0,394,702,0
L,,2456995,-0.001,1.119,-0.155,-1.2,2.3,15.9,406,742,0
L,,2457054,0.000,1.067,0.058,-0.7,-3.6,13.0,317,747,0
L,,2457114,-0.090,0.997,0.185,-0.6,0.3,8.4,392,747,0
L,,2457175,-0.078,0.916,0.162,0.0,1.7,3.2,408,750,0
L,,2457234,0.252,0.797,0.713,-0.1,1.9,0.4,582,766,0
L,,2457294,0.789,1.033,0.955,-4.6,3.1,-3.1,682,797,0
L,,2457354,0.234,1.065,0.131,-7.1,-1.9,-7.9,696,819,0
L,,2457415,0.263,0.994,0.267,-2.0,4.9,-3.7,669,786,0
L,,2457474,0.261,0.968,0.155,-4.0,1.0,-1.4,694,812,0
L,,2457534,0.316,0.925,0.334,-2.2,2.4,-0.4,697,816,0
L,,2457594,0.325,0.971,0.239,-0.2,1.1,-2.8,706,828,0
L,,2457654,0.240,0.960,0.283,-0.6,0.0,-2.7,717,837,0
L,,2457714,0.271,0.929,0.304,-0.8,-1.0,-2.6,718,838,0
L,,2457774,0.179,1.015,0.262,-0.9,-1.7,-2.8,709,830,0
L,,2457834,0.157,0.941,0.281,-0.2,-1.3,-3.2,715,833,0
L,,2457896,0.188,0.936,0.306,0.0,-1.2,0.0,710,831,0
L,,2457955,0.133,0.971,0.292,0.5,0.1,-2.1,709,829,0
L,,2458014,0.131,0.964,0.303,0.4,-0.3,-2.1,709,829,0
L,,2458074,0.066,0.981,0.283,1.1,0.8,-1.9,711,832,0
L,,2458134,0.071,0.991,0.248,1.8,1.6,-1.7,721,841,0
L,,2458194,0.066,0.997,0.282,2.4,0.7,-1.9,728,854,0
L,,2458254,0.067,1.005,0.248,3.4,0.6,-2.7,728,855,0
L,,2458314,0.057,1.002,0.244,4.7,0.4,-3.0,714,840,0
L,,2458375,0.081,1.048,0.209,6.6,-0.2,-4.2,727,866,0
L,,2458434,0.043,1.115,0.190,9.4,-2.6,-7.4,601,852,0
L,,2458495,0.033,1.300,0.129,10.1,-0.1,-9.6,253,799,0
L,,2458584,-0.044,1.183,0.065,9.5,-3.1,-12.9,178,792,0
L,,2458646,-0.398,0.939,-0.054,5.4,-2.1,-13.3,178,812,0
L,,2458705,-0.160,0.418,-0.014,6.0,6.0,-4.8,424,743,0
L,,2458764,0.084,0.354,0.009,-2.5,-2.8,3.9,454,765,0
L,,2458825,-0.018,0.642,-0.140,-5.0,-4.5,10.1,475,764,0
L,,2458884,-0.207,1.046,-0.074,-5.0,-10.7,13.2,485,762,0
L,,2458944,-0.453,1.192,-0.109,-3.5,-5.6,11.8,484,781,0
L,,2459003,-0.183,1.105,0.096,-5.7,-5.8,12.1,488,777,0
L,,2459064,-0.072,1.073,0.143,-7.1,-2.5,12.7,489,774,0
L,,2459154,0.111,1.056,0.083,-8.6,-4.6,12.3,470,768,0
L,,2459214,-0.121,1.064,0.062,-7.5,-7.6,10.4,459,768,0
L,,2459274,-0.280,1.085,0.094,-4.6,-13.3,5.6,457,774,0
L,,2459335,-0.569,0.964,0.284,-1.8,-5.5,0.2,463,781,0
L,,2459394,0.930,0.967,-0.073,1.8,0.0,2.0,619,786,0
L,,2459455,0.171,1.184,0.391,-3.9,1.4,-5.6,682,812,0
L,,2459514,0.130,0.974,0.324,-2.0,4.1,-7.5,699,830,0
L,,2459575,0.103,0.938,0.196,0.5,-0.6,-6.1,707,839,0
L,,2459634,0.218,0.984,0.175,-0.5,-0.7,-6.0,720,852,0
L,,2459694,0.085,0.997,0.280,0.2,-1.1,-5.2,728,861,0
L,,2459754,0.041,0.965,0.211,0.3,-1.4,-3.4,733,867,0
L,,2459814,0.027,0.980,0.243,-0.3,-0.8,-1.8,733,868,0
L,,2459875,0.000,0.974,0.252,-0.8,-0.9,-1.3,728,862,0
L,,2459934,0.012,0.977,0.271,0.0,-1.1,-1.3,733,863,0
L,,2459995,0.002,0.983,0.260,0.2,-1.3,-0.5,733,864,0
L,,2460056,0.001,0.975,0.242,0.2,-0.4,0.2,734,867,0
L,,2460115,0.061,0.977,0.224,0.0,-0.2,0.7,737,867,0
L,,2460174,0.003,1.007,0.288,0.5,0.4,0.1,738,863,0
L,,2460234,0.028,1.008,0.236,0.7,1.2,-1.0,737,864,0
L,,2460325,0.055,1.047,0.300,3.2,0.8,-3.8,725,865,0
L,,2460384,-0.026,1.028,0.208,3.5,1.1,-5.0,630,849,0
L,,2460444,-0.097,1.010,0.180,3.0,0.2,-5.2,239,871,0
L,,2460504,-0.189,0.946,0.109,1.6,1.0,-3.4,216,875,0
L,,2460564,-0.172,0.958,0.109,0.3,0.7,-2.2,182,871,0
L,,2460625,-0.180,0.987,0.128,-0.1,0.3,-1.7,156,860,0
L,,2460684,-0.154,0.993,0.149,0.1,0.4,-2.0,171,849,0
L,,2460745,-0.166,1.046,0.161,0.5,0.8,-3.4,183,833,0
L,,2460806,-0.200,1.071,0.178,0.1,-0.1,-4.6,181,813,0
L,,2460865,-0.141,1.105,0.146,0.8,5.4,-3.3,402,771,0
L,,2460924,0.329,0.809,0.163,-1.4,18.6,5.9,453,761,0
L,,2460984,0.442,0.829,0.127,-5.0,20.0,16.0,471,766,0
L,,2461044,0.342,1.022,0.064,-9.2,13.5,19.8,477,764,0
L,,2461104,0.170,1.166,0.100,-10.5,8.3,20.7,458,769,0
L,,2461165,-0.049,1.196,0.058,-9.7,5.8,19.6,459,780,0
L,,2461224,-0.458,1.202,-0.060,-6.2,4.9,12.3,451,780,0
L,,2461285,-0.229,1.416,-0.002,-0.2,1.8,-0.4,544,770,0
L,,2461344,0.512,0.923,0.626,2.4,5.5,-1.3,657,798,0
L,,2461405,0.061,1.161,0.377,1.4,-1.1,-6.2,691,818,0
L,,2461466,0.262,0.899,0.331,2.3,3.9,-4.5,698,822,0
L,,2461524,0.092,0.939,0.364,0.6,2.7,-4.6,698,821,0
L,,2461584,0.192,0.961,0.285,1.1,1.4,-3.0,711,834,0
L,,2461644,0.111,0.949,0.339,0.0,0.1,-1.6,719,843,0
L,,2461734,0.124,0.953,0.391,1.5,0.8,-1.8,737,868,0
L,,2461794,0.091,0.953,0.326,1.4,0.2,-2.2,739,870,0
L,,2461854,0.067,0.950,0.316,1.0,0.3,-1.8,743,874,0
L,,2461915,0.072,0.946,0.340,0.5,-0.1,-1.6,743,874,0
L,,2461974,0.069,0.988,0.342,0.8,0.3,-2.3,744,873,0
L,,2462064,0.036,0.934,0.386,1.5,0.6,-3.4,737,873,0
L,,2462124,-0.014,0.968,0.304,2.0,1.7,-3.9,722,870,0
L,,2462184,-0.058,1.001,0.276,1.5,1.8,-4.1,645,878,0
L,,2462246,-0.069,0.990,0.258,1.3,1.4,-4.4,314,883,0
L,,2462304,-0.148,0.988,0.245,0.7,0.9,-4.3,207,894,0
L,,2462394,-0.211,0.976,0.309,0.1,1.0,-4.1,184,896,0
L,,2462455,-0.103,1.009,0.228,0.1,1.2,-6.6,147,896,0
L,,2462514,-0.119,1.155,0.187,0.3,0.9,-10.2,153,892,0
L,,2462575,-0.102,1.333,0.239,0.6,2.4,-12.8,126,886,0
L,,2462634,-0.179,1.326,0.110,-2.1,11.7,-11.0,127,872,0
L,,2462695,-0.326,0.564,0.068,1.8,7.6,-4.7,118,726,0
L,,2462754,-0.318,0.337,0.339,6.5,14.9,7.7,130,671,0
L,,2462814,-0.097,0.448,0.118,-3.6,26.2,13.6,104,607,0
L,,2462875,0.145,0.802,-0.234,-8.7,25.0,20.2,129,651,0
L,,2462936,0.003,1.180,-0.340,-10.5,14.7,23.6,344,690,0
L,,2462995,0.016,1.296,-0.255,-8.1,13.3,22.0,167,664,0
L,,2463054,-0.080,1.225,-0.233,-6.5,12.5,21.7,203,744,0
L,,2463115,-0.399,1.158,-0.150,-5.4,0.1,12.3,231,763,0
L,,2463205,-0.727,1.177,0.175,1.3,3.0,-0.8,531,741,0
L,,2463294,0.553,1.051,0.040,1.9,-1.7,-8.0,682,812,0
L,,2463354,0.010,1.075,0.220,-2.5,-3.9,-7.6,689,813,0
L,,2463415,0.020,1.044,0.212,-1.5,0.2,-8.1,699,823,0
L,,2463474,0.128,1.016,0.316,-0.3,-0.7,-9.4,715,839,0
L,,2463535,-0.082,0.970,0.285,0.1,-0.3,-6.4,718,846,0
L,,2463635,-0.036,1.016,0.232,1.0,-0.2,-5.5,719,854,0
L,,2463655,-0.095,0.984,0.266,1.1,-0.3,-5.6,725,864,0
L,,2463716,-0.195,0.975,0.221,0.8,0.0,-5.2,695,851,0
L,,2463775,-0.181,0.972,0.213,-0.6,0.2,-7.0,624,859,0
L,,2463834,-0.190,1.001,0.244,0.1,1.0,-6.2,395,872,0
L,,2463894,-0.254,1.048,0.229,-0.2,1.2,-7.0,264,891,0
L,,2463954,-0.265,1.300,0.214,-0.5,3.8,-8.6,204,889,0
L,,2464014,-0.033,1.554,0.302,2.1,7.1,-12.7,100,879,0
L,,2464075,-0.041,1.329,0.294,0.1,13.4,-14.7,108,870,0
L,,2464134,-0.014,0.655,0.024,1.3,10.2,-7.8,125,695,0
L,,2464195,-0.371,0.573,0.272,-3.8,7.3,-1.1,371,747,0
L,,2464254,0.142,0.452,-0.031,-4.7,20.3,14.5,359,729,0
L,,2464314,0.294,0.711,0.020,-11.1,17.0,20.9,388,737,0
L,,2464375,0.072,1.160,-0.174,-14.3,5.4,24.5,424,736,0
L,,2464466,-0.040,1.316,0.085,-12.9,6.1,25.0,436,748,0
L,,2464525,-0.782,1.566,-0.385,-12.8,7.3,20.2,401,748,0
L,,2464584,-1.272,1.146,-0.370,-0.7,-8.6,-2.7,456,735,0
L,,2464644,-0.225,2.780,-0.878,8.1,4.7,-11.9,689,811,0
L,,2464705,-0.577,1.041,0.243,0.1,-4.5,-15.1,706,831,0
L,,2464764,-0.088,0.970,0.263,2.2,1.6,-9.3,724,861,0
L,,2464825,-0.176,0.968,0.181,2.0,0.3,-5.5,713,858,0
L,,2464884,-0.181,0.967,0.268,1.5,0.7,-3.0,673,836,0
L,,2464945,-0.126,0.963,0.206,1.1,0.8,-2.6,569,810,0
L,,2465004,-0.191,0.987,0.245,0.3,0.6,-3.6,471,873,0
L,,2465065,-0.179,0.981,0.242,1.1,0.6,-4.6,354,873,0
L,,2465126,-0.118,1.246,0.297,2.2,1.4,-8.0,187,870,0
L,,2465184,-0.019,1.578,0.336,5.1,4.3,-12.9,109,818,0
L,,2465245,0.422,1.945,0.251,4.5,6.1,-23.0,88,862,0
L,,2465304,-0.002,1.089,-0.113,-1.6,15.0,-14.7,79,757,0
L,,2465365,-0.348,-0.021,0.433,-14.8,9.7,-1.8,462,726,0
L,,2465424,0.375,0.426,-0.096,-10.2,16.1,19.7,472,742,0
L,,2465485,0.371,0.713,-0.020,-16.6,16.3,28.9,477,740,0
L,,2465544,0.341,1.265,-0.029,-20.9,11.0,34.9,487,743,0
L,,2465605,-0.084,1.886,-0.152,-21.7,5.4,32.7,483,738,0
L,,2465665,-1.366,1.813,-0.805,-10.0,-6.5,17.2,486,737,0
L,,2465724,-0.340,1.227,0.309,13.3,-3.2,-9.6,616,759,0
L,,2465784,-0.038,1.537,0.030,0.5,-4.3,-16.8,671,789,0
L,,2465846,-0.458,0.757,0.530,0.3,1.5,-10.9,647,758,0
L,,2465905,0.116,0.958,0.265,0.8,4.8,-4.9,669,785,0
L,,2465964,-0.060,0.958,0.384,0.8,0.8,-5.3,704,825,0
L,,2466025,-0.042,0.944,0.365,1.8,3.0,-4.9,686,813,0
L,,2466084,-0.156,1.009,0.352,2.2,1.5,-5.7,681,817,0
L,,2466144,-0.076,1.057,0.369,2.8,3.9,-7.1,563,845,0
L,,2466205,-0.011,1.309,0.337,5.6,3.9,-12.9,203,849,0
L,,2466264,0.506,1.923,0.259,6.9,5.7,-23.8,140,864,0
L,,2466325,0.355,2.112,0.395,2.0,13.0,-23.2,97,861,0
L,,2466384,0.559,0.278,0.082,-1.3,3.9,-3.1,475,717,0
L,,2466445,0.550,0.161,-0.131,-10.7,22.0,17.5,466,717,0
L,,2466504,0.213,0.414,-0.096,-15.6,20.3,29.9,481,724,0
L,,2466566,0.230,1.136,-0.157,-20.4,12.8,36.7,485,724,0
L,,2466625,-0.700,1.902,-0.209,-21.4,-4.6,35.6,484,734,0
L,,2466684,-1.964,1.873,-0.431,-6.5,4.9,14.0,481,734,0
L,,2466745,2.254,1.057,1.368,-3.0,1.7,-3.7,678,804,0
L,,2466804,0.496,0.624,-0.102,3.1,-2.9,-13.8,683,802,0
L,,2466865,0.024,0.987,0.230,2.8,6.2,-7.6,700,822,0
L,,2466924,-0.026,0.981,0.303,1.4,0.9,-5.4,703,832,0
L,,2466985,-0.098,0.959,0.328,1.4,2.3,-4.7,703,847,0
L,,2467044,-0.103,0.972,0.305,2.7,2.1,-4.1,683,862,0
L,,2467105,-0.069,1.044,0.246,2.8,2.0,-5.8,492,868,0
L,,2467165,0.008,1.220,0.280,4.9,2.2,-10.7,224,863,0
L,,2467226,0.158,1.580,0.266,6.6,3.9,-18.8,160,866,0
L,,2467285,0.012,1.510,0.355,4.9,4.5,-23.7,144,838,0
L,,2467344,-0.048,0.468,0.196,-1.3,11.9,-12.8,336,743,0
L,,2467405,0.237,0.251,-0.146,-9.0,19.4,4.5,367,730,0
L,,2467464,-0.051,0.386,-0.133,-13.2,14.3,14.6,394,732,0
L,,2467525,-0.055,0.918,-0.373,-15.0,12.0,19.4,405,744,0
L,,2467584,-0.239,1.184,-0.339,-11.2,10.1,21.5,416,751,0
L,,2467645,-0.187,1.390,-0.188,-8.2,8.2,22.2,407,751,0
L,,2467705,-0.165,1.341,-0.099,-7.7,-2.4,17.4,391,745,0
L,,2467764,-0.538,1.170,0.088,-5.7,-8.0,9.0,389,737,0
L,,2467825,-0.922,1.025,0.111,-1.2,5.1,2.5,518,735,0
L,,2467915,0.334,1.523,-0.206,1.7,0.4,-8.8,682,800,0
L,,2467976,-0.051,0.975,0.283,-0.2,-0.8,-9.2,705,827,0
L,,2468035,-0.070,0.989,0.254,0.5,0.1,-5.4,727,852,0
L,,2468094,-0.083,0.948,0.250,0.0,0.0,-1.1,731,858,0
L,,2468155,-0.050,0.933,0.273,-0.2,1.0,1.3,727,859,0
L,,2468214,0.019,0.995,0.245,-0.4,1.9,1.6,733,860,0
L,,2468275,0.101,1.014,0.326,-0.4,0.0,-1.0,736,862,0
L,,2468365,-0.020,0.997,0.331,1.8,1.0,-4.1,729,862,0
L,,2468424,-0.122,0.983,0.292,1.2,1.2,-4.2,709,861,0
L,,2468485,-0.039,1.022,0.286,1.1,2.1,-5.6,610,861,0
L,,2468544,-0.051,1.200,0.243,2.6,1.7,-8.2,211,873,0
L,,2468605,-0.036,1.299,0.349,0.8,1.4,-11.8,143,866,0
L,,2468695,-0.561,0.848,0.109,-3.8,10.2,-12.3,184,786,0
L,,2468756,-0.325,0.463,-0.174,-4.4,10.5,-4.8,170,679,0
L,,2468815,0.308,0.560,-0.205,-2.2,24.0,14.0,371,685,0
L,,2468875,0.320,1.150,-0.108,-6.3,22.9,29.9,411,694,0
L,,2468935,-0.110,1.334,0.188,-8.8,6.7,32.0,423,712,0
L,,2468995,-0.669,0.752,0.034,-10.9,5.8,20.8,440,719,0
L,,2469054,-1.663,0.573,0.000,-3.7,2.4,1.1,629,761,0
L,,2469115,-0.510,-0.412,0.133,5.5,2.4,-19.5,670,785,0
L,,2469174,-0.250,0.973,-0.006,-0.2,0.1,-2.7,635,744,0
L,,2469235,-0.075,1.025,0.277,0.4,3.9,3.3,694,820,0
L,,2469294,0.088,0.933,0.179,0.3,3.9,3.9,698,839,0
L,,2469355,0.096,0.939,0.190,-0.2,-1.2,-0.4,704,855,0
L,,2469416,0.020,1.064,0.278,0.3,-0.7,-2.3,707,856,0
L,,2469475,-0.075,1.015,0.191,1.0,0.1,-0.8,703,861,0
L,,2469535,-0.077,0.918,0.188,-1.0,-0.2,1.9,668,851,0
L,,2469594,0.040,1.020,0.221,-1.2,0.6,2.0,689,862,0
L,,2469655,0.038,1.005,0.270,-0.5,1.0,0.3,698,863,0
L,,2469714,0.062,1.004,0.262,0.8,-0.4,-1.0,700,867,0
L,,2469775,0.000,0.976,0.206,0.6,-0.1,-1.3,687,864,0
L,,2469834,-0.024,0.988,0.203,0.3,-0.7,-1.0,677,863,0
L,,2469895,-0.023,0.978,0.200,0.0,-0.3,-0.6,676,861,0
L,,2469955,-0.036,0.978,0.228,-0.2,-0.5,-0.1,681,864,0
L,,2470015,-0.002,0.999,0.235,-0.3,-0.8,0.0,691,867,0
L,,2470075,-0.011,0.989,0.228,-0.1,-0.2,-0.1,693,868,0
L,,2470136,-0.018,0.984,0.214,0.1,-0.4,-0.3,699,869,0
L,,2470195,-0.029,0.985,0.229,0.3,-0.4,-0.6,698,868,0
L,,2470254,0.013,1.009,0.266,0.8,-0.2,-1.9,697,865,0
L,,2470315,-0.080,0.952,0.133,1.6,0.1,-3.9,682,846,0
L,,2470375,-0.045,0.977,0.137,1.0,-1.7,-6.8,706,863,0
L,,2470435,-0.246,1.094,0.234,1.7,0.0,-5.7,711,871,0
L,,2470495,-0.307,1.101,0.153,2.3,2.9,0.0,629,863,0
L,,2470555,-0.184,1.055,0.142,2.1,4.7,3.3,215,875,0
L,,2470615,-0.067,0.910,0.118,1.7,0.1,2.8,133,844,0
L,,2470674,-0.040,0.883,0.103,0.1,0.7,-1.8,128,831,0
L,,2470734,-0.083,1.206,0.129,2.4,-3.5,-4.3,145,717,0
L,,2470796,-0.272,1.006,0.227,1.6,-0.5,-3.3,313,636,0
L,,2470855,0.039,0.862,0.100,1.8,5.2,2.9,383,648,0
L,,2470915,0.107,0.861,0.072,0.6,2.8,5.6,415,672,0
L,,2470975,-0.049,0.953,0.099,-0.7,0.7,6.2,470,750,0
L,,2471035,-0.025,1.034,0.091,-1.3,-0.3,5.7,451,719,0
L,,2471094,-0.024,1.095,0.097,-0.9,-1.1,5.2,468,739,0
L,,2471155,-0.040,1.053,0.098,-0.6,-2.4,4.0,469,743,0
L,,2471214,-0.003,0.988,0.074,-0.9,-2.4,3.1,476,748,0
L,,2471275,0.004,0.988,0.060,-0.5,-1.7,2.0,473,750,0
L,,2471334,0.052,0.992,0.005,0.0,-0.7,0.8,479,756,0
L,,2471395,0.089,1.049,0.021,0.8,-1.7,0.1,483,762,0
L,,2471485,0.036,0.972,0.111,-0.9,-9.3,-0.3,478,765,0
L,,2471546,-0.200,0.724,0.318,-3.4,-8.2,2.7,492,777,0
L,,2471605,-0.364,0.919,-0.394,-2.8,-3.0,0.0,600,771,0
L,,2471665,1.127,0.492,-0.359,-2.5,6.5,-1.3,681,806,0
L,,2471725,0.098,1.052,0.200,0.4,0.7,-4.7,719,846,0
L,,2471785,-0.079,0.964,0.195,-0.5,-2.1,-2.1,731,858,0
L,,2471845,-0.057,0.982,0.218,-1.2,1.0,1.4,730,858,0
L,,2471905,0.111,1.004,0.209,-1.6,0.0,1.7,732,856,0
L,,2471964,0.034,1.013,0.249,-0.7,-0.2,0.2,734,858,0
L,,2472025,0.061,0.989,0.281,-0.3,-1.6,-1.8,735,859,0
L,,2472084,0.006,0.990,0.246,0.5,-1.1,-1.3,733,858,0
L,,2472145,0.031,0.983,0.236,0.5,-2.4,-2.0,723,846,0
L,,2472205,0.018,0.984,0.261,0.6,-0.5,-2.1,718,842,0
L,,2472266,-0.036,0.976,0.249,0.8,-0.3,-2.4,728,853,0
L,,2472325,-0.053,1.016,0.215,1.5,0.0,-2.5,721,851,0
L,,2472385,-0.054,1.035,0.291,1.6,0.6,-2.5,722,861,0
L,,2472445,-0.101,1.044,0.214,3.2,3.0,-3.1,572,737,0
L,,2472504,-0.098,1.097,0.101,4.0,5.8,-3.1,166,767,0
L,,2472565,0.151,1.243,0.216,8.7,3.7,-4.2,108,649,0
L,,2472625,0.234,1.502,0.126,4.4,-6.1,-16.8,114,756,0
L,,2472685,-0.659,0.820,0.079,5.1,-2.8,-12.2,158,767,0
L,,2472745,-0.246,0.401,0.116,3.1,1.9,-3.1,165,710,0
L,,2472805,-0.122,0.454,0.154,1.8,4.0,7.2,157,716,0
L,,2472865,-0.269,0.722,-0.057,-3.5,2.5,11.5,145,639,0
L,,2472926,-0.242,1.069,-0.048,-4.6,-1.5,11.5,164,679,0
L,,2472985,-0.142,1.085,0.009,-3.7,1.8,11.0,167,682,0
L,,2473044,-0.059,1.127,0.009,-3.8,2.2,10.1,173,682,0
L,,2473135,0.008,1.133,-0.061,-3.5,3.4,7.6,215,706,0
L,,2473195,0.172,1.174,-0.023,-1.9,0.6,4.7,206,722,0
L,,2473254,0.120,1.040,0.109,-2.4,-5.3,4.1,196,736,0
L,,2473315,-0.324,0.946,0.172,-3.2,-3.2,5.1,217,747,0
L,,2473375,-0.305,0.521,-0.090,-1.2,0.9,3.1,222,745,0
L,,2473435,-0.571,3.568,0.807,1.3,28.2,-6.8,598,696,0
L,,2473495,-0.352,0.936,0.390,-0.1,-1.8,-7.0,628,736,0
L,,2473555,-0.140,0.972,0.208,-0.4,1.9,-4.6,679,794,0
L,,2473615,0.041,1.009,0.214,-0.6,1.2,-0.4,684,799,0
L,,2473676,0.087,0.974,0.248,-0.3,0.6,-0.9,672,784,0
L,,2473735,0.078,0.979,0.227,0.0,0.7,-2.7,672,787,0
L,,2473794,-0.018,0.977,0.218,0.0,-0.1,-3.3,676,792,0
L,,2473885,-0.070,0.998,0.215,0.4,0.1,-1.6,710,830,0
L,,2473945,-0.031,0.994,0.222,0.5,0.4,-2.1,691,813,0
L,,2474004,-0.029,1.002,0.239,1.3,0.0,-3.9,717,851,0
L,,2474065,-0.110,1.025,0.236,2.3,-0.1,-6.0,709,856,0
L,,2474125,-0.188,0.996,0.180,2.4,0.8,-5.8,627,862,0
L,,2474185,-0.293,1.027,0.194,2.1,1.9,-2.5,275,761,0
L,,2474245,-0.199,1.115,0.183,1.5,2.5,-1.8,213,846,0
L,,2474305,-0.114,1.091,0.128,1.8,2.4,-3.9,181,851,0
L,,2474365,-0.140,1.042,0.210,3.5,3.2,-10.2,132,817,0
L,,2474426,-0.241,1.372,0.160,3.6,0.0,-13.3,118,836,0
L,,2474485,-0.480,1.023,-0.003,1.9,2.1,-10.8,129,732,0
L,,2474544,-0.262,0.378,0.257,0.5,1.9,-5.7,138,731,0
L,,2474605,-0.054,0.467,0.135,-0.3,9.8,6.7,154,730,0
L,,2474665,-0.053,0.681,0.045,-3.8,11.1,12.1,180,752,0
L,,2474725,-0.095,1.007,-0.109,-6.7,-1.4,14.2,186,758,0
L,,2474785,-0.151,1.176,0.067,-5.6,-3.5,15.1,231,763,0
L,,2474845,-0.136,1.150,0.078,-5.7,-0.1,15.6,236,782,0
L,,2474905,-0.123,1.248,0.183,-6.5,1.5,17.9,214,783,0
L,,2474965,-0.423,1.202,0.107,-8.3,4.3,16.8,239,765,0
L,,2475025,-0.543,1.144,-0.122,-4.2,4.4,7.7,210,759,0
L,,2475086,0.099,0.578,0.575,3.0,-7.2,-3.7,614,777,0
L,,2475145,2.175,2.247,-0.693,28.2,-8.3,-6.3,712,838,0
L,,2475205,0.033,1.173,0.428,0.0,-0.8,-4.1,714,841,0
L,,2475265,0.093,0.920,0.196,0.0,2.3,0.1,721,846,0
L,,2475325,0.121,0.951,0.300,-0.5,-1.9,-0.3,722,845,0
L,,2475385,0.162,0.944,0.327,0.0,1.8,-1.3,720,845,0
L,,2475445,0.020,0.973,0.297,0.0,-0.7,-1.9,719,840,0
L,,2475505,0.059,0.966,0.338,0.3,0.0,-1.5,717,839,0
L,,2475565,0.013,0.970,0.272,0.2,0.4,-0.6,723,843,0
L,,2475625,0.040,0.974,0.310,0.6,1.6,-0.9,721,842,0
L,,2475684,0.068,0.975,0.322,1.9,1.1,-3.3,719,841,0
L,,2475745,0.006,0.999,0.315,3.3,0.7,-5.3,718,844,0
L,,2475806,0.012,1.070,0.267,5.5,-1.0,-7.4,637,776,0
L,,2475865,-0.135,1.144,0.224,5.4,0.8,-8.9,285,833,0
L,,2475925,-0.134,1.112,0.168,5.6,1.7,-9.0,194,817,0
L,,2475985,-0.188,1.071,0.181,4.4,1.4,-11.3,165,815,0
L,,2476044,-0.233,1.120,0.100,2.2,3.7,-12.9,156,822,0
L,,2476105,-0.276,1.046,0.040,0.2,4.9,-11.1,180,806,0
L,,2476195,-0.041,0.447,0.310,-4.0,11.3,0.4,420,733,0
L,,2476255,0.091,0.688,0.018,-9.1,9.5,8.6,441,717,0
L,,2476315,0.157,0.754,-0.046,-13.2,21.4,17.4,443,690,0
L,,2476375,0.205,1.058,-0.162,-16.2,11.0,22.3,464,694,0
L,,2476435,-0.057,1.285,-0.095,-14.6,13.7,23.6,471,701,0
L,,2476495,0.046,1.419,-0.336,-11.8,4.5,21.6,456,720,0
L,,2476556,-0.515,1.283,0.001,-6.0,-4.3,13.8,462,739,0
L,,2476615,-1.200,1.219,0.133,-1.7,12.7,4.9,467,664,0
L,,2476675,0.303,1.361,0.317,3.5,11.9,-2.5,639,762,0
L,,2476735,-0.337,1.068,0.244,0.0,-4.4,-8.2,688,808,0
L,,2476795,0.014,0.906,0.289,0.1,1.7,-6.9,710,833,0
L,,2476855,0.071,0.986,0.343,-0.7,0.9,-4.6,713,838,0
L,,2476915,0.098,0.993,0.357,0.1,1.7,-4.9,724,845,0
L,,2476975,-0.014,0.957,0.359,0.3,0.5,-3.9,729,851,0
L,,2477035,-0.011,0.978,0.352,0.8,0.7,-4.2,730,857,0
L,,2477095,-0.082,0.962,0.327,2.1,1.1,-4.6,705,834,0
L,,2477155,-0.141,0.981,0.278,1.6,0.6,-5.6,716,867,0
L,,2477216,-0.123,1.035,0.296,1.4,2.5,-7.5,476,868,0
L,,2477275,-0.243,1.005,0.284,0.6,1.9,-9.0,209,882,0
L,,2477335,-0.199,1.278,0.352,-2.6,6.0,-12.8,189,892,0
L,,2477395,-0.069,1.674,0.336,-1.6,7.0,-15.9,148,883,0
L,,2477455,-0.401,1.147,0.076,-2.2,19.3,-6.6,123,850,0
L,,2477514,-0.432,0.353,0.500,-2.3,12.9,-3.9,119,669,0
L,,2477575,-0.416,0.277,0.101,-6.7,17.5,-0.2,179,723,0
L,,2477635,-0.412,0.414,-0.239,-4.4,17.9,5.8,167,744,0
L,,2477695,-0.548,0.475,-0.249,-5.1,5.5,4.9,197,736,0
L,,2477755,-0.660,0.776,-0.284,-4.5,-1.7,4.5,187,732,0
L,,2477815,-0.465,0.824,0.036,-1.5,7.9,7.8,191,742,0
L,,2477875,-0.006,0.772,0.043,-3.1,15.1,9.7,216,769,0
L,,2477937,0.038,0.965,0.082,-7.2,8.9,13.3,386,754,0
L,,2477995,0.148,1.024,0.151,-10.0,2.9,15.0,404,760,0
L,,2478055,0.080,1.143,0.261,-11.4,-1.2,16.6,390,759,0
L,,2478115,0.012,1.220,0.342,-11.8,-1.1,17.1,232,767,0
L,,2478175,-0.153,1.175,0.323,-11.0,5.2,15.9,224,766,0
L,,2478235,-0.064,1.097,0.141,-8.9,8.2,10.4,224,773,0
L,,2478295,-0.273,1.083,-0.110,-4.3,-3.0,-2.3,407,730,0
L,,2478355,0.983,1.041,0.556,-0.5,-5.0,-4.5,634,764,0
L,,2478415,0.193,1.069,0.170,4.5,-0.9,-14.5,689,811,0
L,,2478475,-0.307,1.010,0.379,5.3,2.0,-10.4,698,820,0
L,,2478535,-0.125,0.936,0.264,2.9,0.0,-7.5,718,847,0
L,,2478596,-0.163,0.940,0.330,2.0,1.2,-4.9,703,845,0
L,,2478685,-0.157,0.984,0.285,1.5,0.7,-3.1,673,834,0
L,,2478745,-0.146,1.003,0.278,1.8,2.0,-3.8,604,857,0
L,,2478805,-0.091,1.116,0.269,3.4,2.8,-5.8,331,855,0
L,,2478864,0.099,1.474,0.173,5.2,3.4,-13.8,177,857,0
L,,2478925,0.356,2.202,0.379,4.3,5.3,-23.6,103,885,0
L,,2478985,-0.203,1.081,-0.007,2.3,12.7,-15.3,85,738,0
L,,2479045,-0.461,-0.366,0.519,-2.1,8.2,-2.8,401,725,0
L,,2479105,0.400,0.239,0.063,-5.6,18.4,19.3,422,731,0
L,,2479166,0.406,0.665,0.034,-12.2,8.1,30.8,432,713,0
L,,2479225,0.104,1.323,0.342,-18.8,-6.2,34.0,442,724,0
L,,2479285,-1.473,2.228,0.039,-17.2,-3.2,29.2,409,720,0
L,,2479346,-1.730,1.567,-0.958,-2.3,0.4,1.0,593,763,0
L,,2479405,0.096,2.205,-0.304,6.9,-3.0,-19.3,678,799,0
L,,2479465,-0.264,0.865,0.282,5.9,-0.1,-13.3,688,807,0
L,,2479525,-0.074,0.956,0.179,2.1,1.0,-6.4,703,828,0
L,,2479585,-0.139,0.966,0.323,1.6,1.1,-3.4,709,851,0
L,,2479645,-0.082,0.985,0.279,1.3,1.7,-2.4,670,837,0
L,,2479705,-0.067,1.017,0.263,1.9,1.8,-3.5,561,850,0
L,,2479765,-0.050,1.052,0.240,3.4,1.6,-6.0,371,883,0
L,,2479825,-0.049,1.232,0.257,5.6,1.1,-10.3,197,869,0
L,,2479885,0.289,1.721,0.249,7.6,3.5,-19.7,135,799,0
L,,2479945,0.043,1.744,0.077,2.6,-0.6,-25.6,112,842,0
L,,2480035,-0.121,-0.112,0.251,-5.6,3.6,-3.5,401,731,0
L,,2480096,0.334,0.266,0.020,-6.0,13.7,17.6,410,732,0
L,,2480155,0.185,0.580,0.199,-11.6,14.9,29.6,430,732,0
L,,2480215,-0.014,1.095,0.223,-17.3,9.9,34.7,441,734,0
L,,2480275,-1.026,2.142,-0.340,-16.9,-0.9,23.8,411,729,0
L,,2480335,-2.077,1.458,-1.061,-1.4,-4.0,-2.7,631,787,0
L,,2480395,-0.456,1.086,0.129,-3.6,-4.1,-14.5,684,807,0
L,,2480456,-0.231,0.974,0.380,0.0,1.5,-7.9,703,830,0
L,,2480515,-0.100,0.989,0.252,0.0,0.9,-4.5,716,860,0
L,,2480575,-0.174,0.985,0.340,-0.4,2.4,-3.1,627,869,0
L,,2480634,-0.117,0.984,0.303,0.9,3.7,-3.0,352,881,0
L,,2480695,-0.048,1.063,0.277,2.1,4.2,-5.5,173,885,0
L,,2480756,0.114,1.298,0.363,5.9,2.2,-12.1,146,883,0
L,,2480815,0.414,1.840,0.095,5.2,3.1,-22.4,105,853,0
L,,2480875,-0.152,1.597,-0.068,-0.1,12.4,-20.5,113,776,0
L,,2480935,0.535,0.207,0.047,-1.9,7.3,-2.6,370,656,0
L,,2480995,0.619,0.240,0.031,-7.6,27.8,18.3,403,666,0
L,,2481055,0.339,0.634,0.208,-14.5,25.8,35.6,428,678,0
L,,2481115,0.034,1.315,0.165,-24.7,8.8,34.0,426,655,0
L,,2481175,-1.635,2.232,-0.422,-20.0,-7.1,25.5,434,687,0
L,,2481235,-3.097,2.608,-1.916,0.0,-0.8,-8.3,627,745,9
L,,2481325,-0.217,1.140,0.324,9.2,5.1,-10.6,702,826,0
L,,2481385,-0.153,1.016,0.141,3.3,2.1,-5.9,704,840,0
L,,2481444,-0.256,0.967,0.352,1.1,2.1,-2.8,630,817,0
L,,2481506,-0.174,0.979,0.277,1.2,3.1,-2.1,389,784,0
L,,2481565,-0.072,1.057,0.236,2.2,2.6,-4.2,254,830,0
L,,2481625,-0.093,1.149,0.250,3.9,1.3,-8.7,158,876,0
L,,2481685,0.031,1.452,0.203,5.1,1.6,-14.7,136,895,0
L,,2481746,0.255,2.140,0.244,4.1,2.4,-26.0,109,879,0
L,,2481805,0.183,1.252,0.012,-0.4,14.9,-17.0,105,824,0
L,,2481865,-0.662,0.007,0.377,-14.2,13.8,-3.6,474,735,0
L,,2481925,0.477,0.248,-0.064,-11.9,9.4,18.9,454,731,0
L,,2481985,0.202,0.681,0.137,-16.5,6.0,33.4,471,726,0
L,,2482045,0.184,1.117,0.089,-20.5,7.1,39.1,480,734,0
L,,2482105,-0.967,2.467,-0.079,-19.5,6.3,35.2,443,715,0
L,,2482166,-1.629,1.819,-0.863,-6.9,-2.4,5.1,513,733,0
L,,2482227,-0.702,2.598,-0.732,5.1,2.4,-12.9,652,766,0
L,,2482286,-1.013,1.029,0.425,3.4,-0.6,-16.1,697,821,0
L,,2482345,-0.043,1.004,0.134,2.3,3.3,-7.2,707,836,0
L,,2482405,-0.103,0.938,0.361,0.3,1.5,-4.3,715,869,0
L,,2482464,-0.089,0.987,0.358,0.7,4.1,-3.1,579,880,0
L,,2482525,-0.110,0.978,0.331,1.7,2.9,-3.5,345,883,0
L,,2482585,-0.017,1.139,0.338,3.2,2.9,-6.1,188,876,0
L,,2482645,0.114,1.343,0.247,5.6,3.2,-12.6,141,875,0
L,,2482706,0.475,1.975,0.135,5.5,3.4,-25.9,103,857,0
L,,2482765,-0.716,1.098,0.114,-4.4,12.1,-19.2,114,827,0
L,,2482825,-0.857,-0.456,0.580,-11.1,17.1,-9.8,393,728,0
L,,2482887,0.402,0.300,-0.002,-11.7,24.6,21.4,419,730,0
L,,2482945,0.402,0.712,0.010,-18.6,15.1,33.4,419,706,0
L,,2483005,0.214,1.390,0.161,-24.8,6.0,38.1,442,699,0
L,,2483065,-1.565,2.283,-0.567,-13.1,2.1,28.8,413,689,0
L,,2483125,-2.202,1.459,-0.715,1.7,-8.0,-8.1,647,793,0
L,,2483185,-0.005,1.231,0.234,2.1,0.9,-16.0,686,807,0
L,,2483246,-0.265,0.954,0.232,3.1,1.0,-9.1,705,829,0
L,,2483305,-0.084,0.975,0.288,1.3,1.7,-4.7,681,817,0
L,,2483365,-0.160,0.992,0.317,1.4,3.2,-2.7,679,880,0
L,,2483425,-0.107,0.988,0.266,2.1,3.5,-2.9,461,867,0
L,,2483485,-0.060,1.019,0.305,3.0,3.7,-4.6,298,878,0
L,,2483545,0.062,1.164,0.175,4.2,2.2,-9.1,155,878,0
L,,2483637,0.624,1.949,0.174,9.3,0.0,-21.4,72,737,0
L,,2483725,0.076,0.801,0.257,0.4,2.2,-14.4,135,661,0
L,,2483786,0.382,0.319,0.226,-7.2,9.2,5.1,390,701,0
L,,2483845,0.149,0.344,0.124,-9.4,19.4,23.7,412,699,0
L,,2483905,0.360,0.744,0.127,-15.5,13.9,34.1,417,700,0
L,,2483996,-0.779,2.413,-0.189,-22.7,-2.0,33.2,385,697,0
L,,2484055,-2.308,1.809,-1.240,-0.2,-2.7,2.9,621,780,0
L,,2484116,1.064,0.034,0.826,7.1,-17.8,-26.8,664,779,0
L,,2484175,-0.034,0.965,-0.004,4.4,3.0,-11.3,706,832,0
L,,2484235,-0.083,1.004,0.143,2.2,2.0,-5.8,721,860,0
L,,2484326,-0.159,0.958,0.291,1.1,3.4,-1.8,557,820,0
L,,2484385,-0.075,1.002,0.263,1.4,2.6,-2.7,405,811,0
L,,2484447,-0.061,1.105,0.272,2.6,1.8,-5.7,248,856,0
L,,2484505,0.046,1.385,0.216,5.9,1.7,-11.9,183,890,0
L,,2484565,0.252,1.851,0.290,6.7,2.8,-23.2,110,861,0
L,,2484625,-0.096,1.510,0.387,-2.5,8.5,-22.0,116,861,0
L,,2484715,-0.154,0.028,0.833,-14.0,12.1,0.1,448,695,0
L,,2484775,0.373,0.325,0.018,-13.4,14.3,22.7,474,729,0
L,,2484835,0.332,0.891,0.081,-19.0,13.6,31.9,484,728,0
L,,2484895,0.269,1.381,-0.005,-21.8,3.2,34.1,482,729,0
L,,2484956,-1.206,2.089,-0.072,-15.9,-7.9,26.1,456,730,0
L,,2485015,-1.539,1.710,-0.501,-3.6,0.0,7.9,552,742,0
L,,2485076,-1.111,3.159,-0.265,6.4,0.7,-18.0,683,805,0
L,,2485137,-0.408,0.881,0.363,3.8,1.1,-10.1,717,840,0
L,,2485195,-0.083,0.959,0.222,1.1,2.1,-4.7,726,853,0
L,,2485255,-0.070,0.951,0.386,-0.7,0.5,-1.8,728,855,0
L,,2485315,0.006,0.961,0.351,0.0,3.8,-1.2,728,864,0
L,,2485375,-0.044,1.025,0.428,0.9,3.2,-3.2,724,863,0
L,,2485435,0.083,1.157,0.430,3.8,4.4,-7.8,655,870,0
L,,2485496,0.081,1.400,0.258,6.1,4.4,-15.3,182,873,0
L,,2485555,0.796,2.242,0.072,5.7,5.6,-29.3,118,891,0
L,,2485616,-0.156,0.991,-0.360,1.9,9.7,-17.0,94,818,0
L,,2485675,-0.188,0.361,0.609,-13.7,3.7,1.2,474,738,0
L,,2485735,0.496,0.112,0.020,-4.1,31.1,28.6,465,727,0
L,,2485795,0.480,0.969,-0.094,-16.3,14.5,36.8,472,717,0
L,,2485857,-0.733,1.844,-0.196,-21.3,-6.8,34.5,457,707,0
L,,2485916,-2.214,1.386,-0.337,-5.7,9.0,11.2,509,738,0
L,,2485975,0.765,3.822,-0.066,0.3,-2.6,-15.6,676,795,0
L,,2486036,-0.427,1.234,0.372,0.3,1.2,-10.1,690,811,0
L,,2486125,-0.086,0.988,0.283,0.7,1.2,-4.0,719,851,0
L,,2486185,-0.142,0.973,0.295,-0.4,1.7,-2.3,715,860,0
L,,2486246,-0.081,0.988,0.323,0.3,2.1,-2.2,673,847,0
L,,2486305,0.025,1.120,0.267,1.3,3.6,-6.1,496,812,0
L,,2486366,-0.136,1.148,0.303,3.9,3.1,-11.2,200,891,0
L,,2486425,0.193,1.631,0.345,5.9,6.2,-17.4,128,889,0
L,,2486485,0.637,2.354,0.226,3.7,8.0,-26.1,109,878,0
L,,2486546,0.264,0.417,0.472,-0.4,8.8,-9.7,154,720,0
L,,2486605,0.447,0.170,0.142,-11.9,12.1,7.0,442,724,0
L,,2486666,0.419,0.387,-0.039,-16.1,21.5,27.3,460,744,0
L,,2486725,0.614,1.151,0.002,-21.7,11.7,36.1,480,734,0
L,,2486786,-0.390,1.934,-0.277,-24.4,-0.7,36.1,482,728,0
L,,2486845,-1.860,2.552,-0.707,-9.5,9.1,17.7,532,739,0
L,,2486906,2.065,1.059,1.716,-5.5,-6.1,-9.1,687,814,0
L,,2486965,-0.449,0.937,0.347,0.8,1.8,-10.9,711,836,0
L,,2487055,-0.112,0.921,0.336,0.7,0.9,-4.4,724,861,0
L,,2487116,-0.091,1.001,0.316,0.8,3.6,-2.9,703,868,0
L,,2487175,-0.073,0.993,0.411,2.3,3.9,-3.8,528,865,0
L,,2487265,0.064,1.219,0.109,4.9,2.8,-9.9,196,883,0
L,,2487327,0.254,1.746,0.387,5.8,4.3,-19.3,130,872,0
L,,2487385,0.808,2.404,0.002,4.8,6.4,-29.3,93,792,0
L,,2487446,0.192,0.278,0.372,-1.7,0.9,-11.3,82,572,0
L,,2487505,0.122,0.151,0.468,-7.9,11.5,14.0,423,716,0
L,,2487565,0.364,0.509,0.147,-10.7,23.8,33.3,449,709,0
L,,2487625,0.222,0.998,-0.020,-19.2,19.5,39.9,460,710,0
L,,2487685,-1.015,1.986,-0.525,-21.5,-9.4,31.4,430,699,0
L,,2487746,-2.666,1.456,-0.416,-4.1,2.3,-0.5,559,722,0
L,,2487805,0.293,1.385,-0.207,9.7,-16.6,-23.3,680,798,0
L,,2487866,-0.054,1.287,0.227,3.4,1.8,-12.4,699,817,0
L,,2487925,-0.168,0.981,0.191,1.4,1.0,-5.2,695,816,0
L,,2487986,-0.215,0.966,0.325,-0.1,0.7,-1.1,696,838,0
L,,2488047,-0.059,1.044,0.353,1.4,4.2,-0.8,636,842,0
L,,2488105,0.104,1.207,0.282,3.8,4.2,-7.6,400,877,0
L,,2488166,0.103,1.521,0.149,6.0,2.3,-18.0,191,885,0
L,,2488225,0.439,2.422,0.248,3.0,3.6,-31.5,101,881,0
L,,2488286,0.268,1.017,-0.022,-0.9,8.4,-17.1,118,743,0
L,,2488345,0.764,0.324,0.155,-6.1,23.0,9.0,434,725,0
L,,2488406,0.375,0.316,0.080,-15.7,16.1,32.9,463,727,0
L,,2488465,-0.132,0.987,-0.409,-23.1,4.1,39.6,413,639,0
L,,2488526,-1.449,2.207,-0.297,-13.0,-13.9,26.2,420,679,0
L,,2488585,-2.001,1.083,-0.685,0.3,2.7,-3.7,652,784,0
L,,2488645,-1.315,-0.426,0.744,-1.9,4.2,-23.2,694,813,0
L,,2488707,-0.579,0.919,0.391,1.4,-2.6,-15.7,664,778,0
L,,2488765,-0.414,1.102,0.192,1.3,3.4,-2.7,724,856,0
L,,2488826,0.043,1.554,0.474,5.0,5.0,1.2,407,873,0
L,,2488916,0.508,1.452,-0.086,2.0,7.7,-18.8,171,839,0
L,,2488975,-0.386,1.155,-0.072,3.8,0.1,-21.6,431,748,0
L,,2489036,0.669,0.200,0.426,-1.9,8.1,2.8,508,745,0
L,,2489095,0.168,0.463,0.271,-8.8,15.9,27.7,501,721,0
L,,2489156,-0.001,1.207,0.106,-17.0,9.0,36.8,489,735,0
L,,2489246,-1.349,1.662,-0.531,-10.3,-13.1,14.1,494,722,0
L,,2489305,0.245,0.762,2.882,-20.8,0.3,-11.7,641,755,0
L,,2489366,-0.847,0.709,0.142,2.9,-0.5,-21.7,711,846,0
L,,2489425,-0.648,1.106,0.304,4.2,2.3,-5.7,615,794,0
L,,2489487,-0.133,1.416,0.368,2.6,4.9,-1.6,229,892,0
L,,2489545,0.040,1.252,0.095,0.8,5.7,-6.4,136,879,0
L,,2489605,0.272,1.117,0.090,3.7,-2.4,-19.0,108,855,0
L,,2489696,-0.288,1.014,0.045,-0.2,1.3,-16.1,189,750,0
L,,2489786,0.261,0.427,0.093,-7.8,20.2,21.6,451,744,0
L,,2489875,0.213,1.301,0.055,-18.4,14.3,34.0,466,737,0
L,,2489935,0.088,1.602,-0.024,-19.0,10.0,34.0,441,731,0
L,,2489995,-0.546,1.662,-0.205,-15.9,6.3,27.3,427,733,0
L,,2490055,-1.709,1.564,-0.789,-1.6,1.4,0.1,586,760,0
L,,2490116,0.036,2.238,-0.160,8.5,-3.9,-11.1,623,733,0
L,,2490175,-0.182,0.818,0.290,3.4,-3.5,-15.5,679,796,0
L,,2490236,0.164,0.911,0.164,4.3,4.2,-6.7,724,852,0
L,,2490297,0.011,0.965,0.277,0.2,1.3,-4.6,727,860,0
L,,2490355,-0.032,0.960,0.329,-0.3,1.5,-3.3,727,868,0
L,,2490416,0.005,0.978,0.359,-0.4,1.1,-2.2,730,876,0
L,,2490475,-0.052,0.967,0.326,0.2,1.5,-2.7,714,875,0
L,,2490536,-0.067,0.964,0.328,0.7,2.5,-3.0,667,871,0
L,,2490595,-0.064,0.956,0.333,0.6,2.5,-4.1,554,868,0
L,,2490656,-0.031,1.070,0.287,1.0,2.4,-7.0,396,883,0
L,,2490715,-0.089,1.211,0.277,0.0,3.2,-12.0,191,870,0
L,,2490776,0.111,1.643,0.445,1.2,5.0,-17.9,151,878,0
L,,2490835,0.078,1.510,0.309,-2.1,20.0,-16.7,104,868,0
L,,2490895,-0.159,0.579,0.116,0.3,16.0,-4.8,101,647,0
L,,2490957,0.512,0.360,-0.006,10.9,27.0,11.7,395,726,0
L,,2491015,0.177,0.459,0.031,-11.5,23.2,22.7,430,731,0
L,,2491076,0.456,0.903,-0.126,-16.2,14.9,28.9,420,710,0
L,,2491135,0.148,1.602,-0.284,-17.3,-0.5,30.6,451,731,0
L,,2491196,-0.510,1.739,0.222,-12.4,-19.3,23.9,441,733,0
L,,2491255,-1.340,1.316,0.126,-5.3,2.1,13.9,498,728,0
L,,2491316,1.783,1.130,0.187,16.1,-5.7,-4.2,672,804,0
L,,2491375,0.054,1.340,-0.050,1.8,-2.9,-16.0,700,818,0
L,,2491435,-0.110,0.968,0.122,5.0,4.3,-11.7,717,842,0
L,,2491496,0.027,0.932,0.269,1.6,0.3,-7.2,724,859,0
L,,2491555,-0.028,0.999,0.275,2.0,2.1,-5.4,690,860,0
L,,2491616,-0.061,0.976,0.231,2.1,1.5,-4.6,464,850,0
L,,2491677,-0.069,0.992,0.232,1.5,1.3,-4.9,287,877,0
L,,2491736,-0.111,0.989,0.216,1.9,1.0,-5.7,256,887,0
L,,2491795,-0.192,0.997,0.159,1.5,0.4,-6.5,222,893,0
L,,2491856,-0.262,0.982,0.266,1.7,0.8,-6.5,177,900,0
L,,2491916,-0.052,1.272,0.252,2.7,1.9,-10.9,139,900,0
L,,2491975,0.184,1.865,0.345,5.8,1.1,-18.4,111,871,0
L,,2492036,-0.097,1.442,0.074,1.5,10.3,-18.0,102,859,0
L,,2492095,0.038,0.370,0.097,0.7,1.1,-7.3,134,740,0
L,,2492156,0.119,0.304,0.181,-3.8,10.1,7.7,195,756,0
L,,2492215,-0.028,0.371,0.036,-6.0,14.6,21.9,392,733,0
L,,2492276,0.276,0.718,0.000,-12.3,12.0,28.3,385,706,0
L,,2492335,0.037,1.337,-0.021,-15.7,1.0,31.5,431,723,0
L,,2492397,-0.288,1.562,0.052,-15.3,-0.7,26.0,438,740,0
L,,2492456,-0.481,1.447,0.108,-12.0,-6.3,16.9,434,757,0
L,,2492515,-0.871,1.269,-0.108,-4.9,-4.5,2.3,439,760,0
L,,2492576,1.871,0.683,0.860,3.1,-10.5,-4.4,661,806,0
L,,2492635,0.108,1.260,0.191,0.6,2.8,-14.0,700,823,0
L,,2492696,-0.032,1.014,0.339,2.5,-3.5,-12.3,697,819,0
L,,2492755,0.204,0.995,0.197,1.5,3.4,-7.6,706,829,0
L,,2492816,0.011,0.973,0.311,1.1,0.1,-5.3,719,845,0
L,,2492875,0.026,0.973,0.245,1.8,0.7,-4.9,718,845,0
L,,2492936,-0.022,0.988,0.254,1.5,-0.3,-4.6,722,852,0
L,,2492996,-0.051,0.994,0.263,1.7,0.1,-4.7,708,845,0
L,,2493057,-0.071,1.022,0.210,2.3,1.0,-5.4,675,851,0
L,,2493115,-0.064,1.058,0.247,3.4,0.8,-7.8,447,841,0
L,,2493175,-0.149,1.246,0.244,4.7,0.7,-11.1,246,863,0
L,,2493236,0.223,1.715,0.138,6.5,3.0,-18.1,188,825,0
L,,2493295,-0.075,1.163,0.296,2.8,5.4,-20.8,137,866,0
L,,2493356,-0.157,0.916,0.012,-0.7,9.0,-13.0,122,755,0
L,,2493416,-0.310,0.266,0.366,-6.5,8.5,-2.3,418,742,0
L,,2493476,0.031,0.446,-0.081,-8.5,9.1,11.8,442,756,0
L,,2493536,0.207,0.575,-0.079,-12.7,10.8,21.9,449,739,0
L,,2493595,0.043,1.065,-0.115,-14.5,5.1,27.6,456,740,0
L,,2493656,-0.077,1.451,-0.078,-12.2,2.5,28.1,471,753,0
L,,2493715,-0.429,1.645,0.065,-11.9,3.4,23.9,458,751,0
L,,2493777,-1.111,1.342,-0.184,-5.2,6.7,9.4,468,758,0
L,,2493835,-0.299,1.080,-0.527,5.6,-3.7,-7.4,643,797,0
L,,2493896,-0.165,1.324,0.172,-1.9,-2.8,-13.5,606,712,0
L,,2493956,-0.121,0.900,0.442,1.5,3.3,-8.4,719,842,0
L,,2494015,0.000,0.995,0.325,0.3,1.2,-5.7,731,859,0
L,,2494076,-0.098,0.955,0.357,0.8,1.2,-4.4,732,866,0
L,,2494135,-0.042,0.974,0.355,1.3,2.4,-3.9,716,881,0
L,,2494196,-0.082,0.997,0.302,1.3,3.1,-4.4,574,882,0
L,,2494255,-0.092,0.976,0.243,1.1,2.7,-4.9,354,872,0
L,,2494316,-0.169,0.987,0.241,0.7,2.0,-4.7,217,883,0
L,,2494375,-0.193,0.975,0.258,0.2,2.2,-4.6,205,888,0
L,,2494437,-0.269,0.926,0.301,0.2,2.5,-4.7,198,887,0
L,,2494496,-0.267,0.939,0.215,0.4,1.1,-6.4,170,893,0
L,,2494555,-0.311,1.022,0.244,0.1,1.1,-8.8,164,892,0
L,,2494616,-0.158,1.333,0.261,0.6,2.2,-11.0,127,891,0
L,,2494675,-0.135,1.480,0.361,0.1,8.6,-12.6,135,879,0
L,,2494736,0.069,1.200,-0.050,0.0,9.5,-9.6,131,688,0
L,,2494795,-0.408,0.726,0.740,-14.0,5.0,-4.8,189,742,0
L,,2494885,-0.142,0.486,0.056,-3.8,18.3,14.1,221,728,0
L,,2494945,0.045,0.595,-0.212,-7.7,14.2,20.5,390,704,0
L,,2495005,-0.096,1.037,-0.146,-9.4,-1.0,24.2,435,717,0
L,,2495066,-0.286,1.247,0.076,-9.2,-4.1,24.9,449,734,0
L,,2495125,-0.196,1.259,0.202,-9.6,0.7,23.9,446,735,0
L,,2495187,-0.089,1.313,0.189,-11.5,1.4,20.5,447,727,0
L,,2495246,-0.177,1.213,0.143,-9.6,-0.7,11.2,455,742,0
