side,stage,device_ms,ax,ay,az,gx,gy,gz,toe,heel,phase,L_toe,L_heel,R_toe,R_heel
R,,5012459.0,-0.038,0.967,-0.338,-1.7,-2.6,-2.9,594,824,0,,,,
R,,5012469.0,0.007,0.962,-0.271,-1.6,-2.1,-2.8,594,827,0,,,,
R,,5012479.0,-0.037,0.966,-0.264,-1.7,-1.6,-2.7,606,825,0,,,,
R,,5012489.0,-0.013,0.995,-0.233,-1.6,-1.7,-2.6,621,825,0,,,,
R,,5012499.0,-0.004,0.986,-0.23,-1.7,-1.6,-2.7,618,824,0,,,,
R,,5012509.0,-0.007,0.984,-0.205,-1.5,-1.5,-2.9,614,826,0,,,,
R,,5012519.0,-0.042,0.969,-0.23,-1.6,-1.3,-2.9,611,825,0,,,,
R,,5012529.0,-0.032,0.997,-0.37,-1.6,-1.4,-2.3,613,825,0,,,,
R,,5012539.0,-0.053,0.954,-0.252,-2.2,-2.0,-2.8,610,825,0,,,,
R,,5012549.0,-0.054,0.977,-0.254,-2.2,-2.5,-2.6,598,825,0,,,,
R,,5012559.0,-0.05,0.957,-0.253,-2.5,-2.4,-2.6,590,826,0,,,,
R,,5012569.0,-0.05,0.968,-0.237,-2.5,-2.3,-2.7,580,827,0,,,,
R,,5012579.0,-0.112,0.958,-0.277,-2.4,-2.6,-2.6,565,827,0,,,,
R,,5012589.0,-0.057,0.977,-0.237,-2.7,-3.0,-2.6,540,828,0,,,,
R,,5012599.0,-0.048,0.966,-0.195,-2.8,-3.0,-2.6,520,831,0,,,,
R,,5012609.0,-0.075,0.981,-0.213,-2.6,-2.7,-2.6,576,828,0,,,,
R,,5012619.0,-0.056,0.992,-0.189,-2.6,-2.7,-2.5,577,828,0,,,,
R,,5012629.0,-0.073,0.988,-0.23,-3.1,-2.5,-2.7,551,828,0,,,,
R,,5012639.0,-0.059,0.972,-0.239,-3.4,-2.4,-2.8,552,828,0,,,,
R,,5012649.0,-0.058,0.984,-0.229,-3.7,-2.2,-3.0,472,832,0,,,,
R,,5012659.0,-0.075,0.97,-0.226,-3.7,-2.0,-3.1,579,825,0,,,,
R,,5012669.0,-0.036,1.004,-0.205,-3.9,-1.7,-3.2,586,823,0,,,,
R,,5012679.0,-0.065,1.014,-0.216,-4.0,-1.6,-3.8,564,824,0,,,,
R,,5012689.0,-0.063,1.021,-0.199,-4.3,-1.4,-4.0,556,825,0,,,,
R,,5012699.0,-0.034,1.006,-0.204,-4.4,-1.3,-4.2,499,830,0,,,,
R,,5012709.0,-0.056,1.036,-0.218,-4.8,-1.3,-4.4,532,827,0,,,,
R,,5012719.0,-0.05,1.082,-0.21,-4.6,-1.3,-4.9,529,826,0,,,,
R,,5012729.0,-0.033,1.108,-0.181,-5.1,-1.2,-5.4,521,826,0,,,,
R,,5012739.0,-0.022,1.125,-0.181,-5.3,-1.2,-5.6,496,709,0,,,,
R,,5012749.0,-0.044,1.131,-0.217,-6.2,-1.0,-6.7,432,648,0,,,,
R,,5012759.0,-0.006,1.016,-0.305,-6.4,-0.8,-7.2,493,732,0,,,,
R,,5012769.0,-0.065,1.155,-0.203,-8.8,-0.5,-8.3,291,718,0,,,,
R,,5012779.0,-0.039,1.154,-0.215,-8.9,-1.4,-7.7,513,731,0,,,,
R,,5012789.0,-0.035,1.125,-0.28,-8.4,-1.4,-7.9,437,703,0,,,,
R,,5012799.0,-0.105,1.21,-0.345,-9.5,-1.2,-9.3,418,712,0,,,,
R,,5012809.0,-0.051,1.299,-0.233,-10.4,-1.8,-9.5,364,703,0,,,,
R,,5012819.0,-0.089,1.278,-0.205,-11.6,-2.1,-11.3,271,680,0,,,,
R,,5012829.0,-0.055,1.506,-0.356,-11.9,-2.4,-10.9,369,754,0,,,,
R,,5012839.0,0.106,1.539,-0.352,-13.3,-2.4,-11.5,382,795,0,,,,
R,,5012849.0,0.084,1.581,-0.352,-14.5,-2.9,-12.6,346,805,0,,,,
R,,5012859.0,0.093,1.754,-0.327,-15.3,-3.7,-13.9,348,815,0,,,,
R,,5012869.0,0.171,1.856,-0.354,-16.1,-4.2,-15.1,190,818,0,,,,
R,,5012879.0,0.188,1.843,-0.445,-17.2,-4.7,-16.3,293,813,0,,,,
R,,5012889.0,0.201,2.131,-0.591,-16.8,-5.6,-17.4,285,807,0,,,,
R,,5012899.0,0.408,2.05,-0.665,-17.0,-6.7,-16.8,282,798,0,,,,
R,,5012909.0,0.689,1.96,-0.769,-16.9,-6.8,-16.1,236,787,0,,,,
R,,5012919.0,0.56,1.701,-0.791,-16.3,-6.4,-17.2,246,772,0,,,,
R,,5012929.0,0.552,1.39,-0.64,-13.3,-4.8,-18.6,214,757,0,,,,
R,,5012939.0,0.163,1.226,-0.392,-12.4,-2.2,-19.4,212,603,0,,,,
R,,5012949.0,-0.439,1.214,-0.141,-12.5,-1.3,-20.6,226,715,0,,,,
R,,5012959.0,-0.635,1.267,-0.069,-14.0,1.2,-21.7,63,304,0,,,,
R,,5012969.0,-0.331,1.244,-0.305,-13.5,6.2,-20.5,53,271,0,,,,
R,,5012979.0,-0.079,1.148,-0.495,-12.2,11.4,-18.9,196,569,0,,,,
R,,5012989.0,-0.051,1.007,-0.419,-11.8,15.2,-17.2,243,547,0,,,,
R,,5012999.0,-0.248,0.702,-0.519,-12.0,15.2,-15.6,247,487,0,,,,
R,,5013009.0,-0.393,0.37,-0.47,-11.0,11.0,-13.2,283,482,0,,,,
R,,5013019.0,-0.386,0.336,0.068,-10.9,3.6,-7.7,311,520,0,,,,
R,,5013029.0,-0.507,0.424,-0.15,-11.0,3.7,-6.9,324,528,0,,,,
R,,5013039.0,-0.086,0.343,-0.471,-8.6,8.4,-3.2,333,531,0,,,,
R,,5013049.0,0.269,0.018,-0.561,-5.2,11.5,0.0,338,533,0,,,,
R,,5013059.0,0.323,0.072,-0.583,-2.6,12.8,2.0,328,529,0,,,,
R,,5013069.0,0.284,0.179,-0.353,-2.6,14.1,3.5,325,532,0,,,,
R,,5013079.0,0.16,0.107,-0.31,-3.8,15.3,4.5,268,545,0,,,,
R,,5013089.0,0.128,-0.026,-0.342,-3.2,16.2,7.0,275,547,0,,,,
R,,5013099.0,0.028,-0.027,-0.414,-0.3,15.6,9.8,339,540,0,,,,
R,,5013109.0,-0.008,0.051,-0.482,1.6,14.7,12.7,311,549,0,,,,
R,,5013119.0,-0.01,0.061,-0.469,1.5,14.6,14.5,327,550,0,,,,
R,,5013129.0,0.023,0.153,-0.445,1.7,13.9,17.5,333,549,0,,,,
R,,5013139.0,0.026,0.16,-0.431,2.7,13.3,20.1,334,551,0,,,,
R,,5013149.0,0.048,0.124,-0.524,3.2,13.3,22.2,318,561,0,,,,
R,,5013159.0,0.047,0.262,-0.503,4.4,13.4,24.1,291,564,0,,,,
R,,5013169.0,0.101,0.29,-0.569,6.6,12.5,26.7,335,558,0,,,,
R,,5013179.0,0.091,0.425,-0.574,7.6,12.4,28.2,351,551,0,,,,
R,,5013189.0,0.079,0.583,-0.544,8.4,11.7,29.2,338,535,0,,,,
R,,5013199.0,0.046,0.607,-0.556,9.5,11.0,31.5,358,531,0,,,,
R,,5013209.0,0.026,0.732,-0.607,10.6,10.8,33.1,314,546,0,,,,
R,,5013219.0,-0.019,0.853,-0.646,12.5,10.6,34.8,316,534,0,,,,
R,,5013229.0,-0.065,1.021,-0.716,13.8,10.2,36.0,330,529,0,,,,
R,,5013239.0,-0.057,1.217,-0.722,15.0,10.1,36.8,352,528,0,,,,
R,,5013249.0,-0.097,1.389,-0.757,16.9,9.8,37.3,362,528,0,,,,
R,,5013259.0,-0.142,1.511,-0.744,19.4,9.8,37.3,290,508,0,,,,
R,,5013269.0,-0.255,1.7,-0.749,21.7,10.0,36.6,354,526,0,,,,
R,,5013279.0,-0.398,1.868,-0.77,24.1,11.6,34.8,354,528,0,,,,
R,,5013289.0,-0.398,2.182,-0.748,26.1,14.1,33.5,348,538,0,,,,
R,,5013299.0,-0.583,2.471,-0.646,27.1,16.3,31.2,355,538,0,,,,
R,,5013309.0,-0.798,2.646,-0.527,26.6,17.7,29.5,351,543,0,,,,
R,,5013319.0,-1.025,2.652,-0.269,25.2,17.1,28.5,351,549,0,,,,
R,,5013329.0,-0.957,2.475,0.125,23.3,16.6,28.3,344,550,0,,,,
R,,5013339.0,-1.02,2.268,0.199,20.9,16.0,25.3,339,556,0,,,,
R,,5013349.0,-1.109,2.12,-0.134,18.1,15.6,20.1,331,558,0,,,,
R,,5013359.0,-1.411,1.811,-0.294,14.8,16.8,14.1,321,560,0,,,,
R,,5013369.0,-1.679,1.689,-0.069,11.6,15.2,12.4,331,564,0,,,,
R,,5013379.0,-2.019,1.512,0.258,9.8,12.3,9.2,329,574,0,,,,
R,,5013389.0,-2.257,1.306,0.331,4.9,7.3,3.6,340,573,0,,,,
R,,5013399.0,-2.154,1.277,0.375,4.6,3.2,-0.7,333,577,0,,,,
R,,5013409.0,-1.791,1.652,0.606,3.8,-0.2,-6.7,253,585,0,,,,
R,,5013419.0,-1.621,1.082,0.47,3.0,0.9,-8.7,367,585,0,,,,
R,,5013429.0,-1.293,1.698,-0.092,-4.6,0.6,-13.7,359,559,0,,,,
R,,5013439.0,-0.424,1.53,-0.071,-7.4,4.6,-14.4,347,574,0,,,,
R,,5013449.0,0.996,0.598,-1.079,-9.3,11.0,-16.4,390,596,0,,,,
R,,5013459.0,2.006,0.91,-0.801,-2.5,10.1,-11.3,346,621,0,,,,
R,,5013469.0,1.373,1.781,0.498,-5.7,7.1,-15.7,419,624,0,,,,
R,,5013479.0,0.08,1.474,0.538,-7.2,4.3,-20.2,450,644,0,,,,
R,,5013489.0,-0.289,1.446,0.608,-7.5,0.2,-17.9,516,665,0,,,,
R,,5013499.0,-0.357,1.446,0.095,-8.4,-3.7,-15.7,537,691,0,,,,
R,,5013509.0,-0.919,1.203,-0.31,-5.0,-6.4,-17.0,555,713,0,,,,
R,,5013519.0,-0.596,1.502,-0.353,-6.6,-5.3,-17.4,506,734,0,,,,
R,,5013529.0,0.305,1.439,0.278,-7.5,-1.2,-15.9,485,759,0,,,,
R,,5013539.0,0.112,0.98,0.296,-5.9,5.2,-15.5,554,762,0,,,,
R,,5013549.0,-0.283,0.715,0.13,-3.6,5.7,-13.9,592,769,0,,,,
R,,5013559.0,-0.19,0.809,-0.205,-2.0,6.3,-11.6,587,779,0,,,,
R,,5013569.0,-0.105,0.993,-0.259,-2.6,4.6,-9.5,586,786,0,,,,
R,,5013579.0,-0.252,0.977,-0.294,-2.5,1.6,-8.8,579,790,0,,,,
R,,5013589.0,-0.006,0.894,-0.36,-2.0,-0.2,-7.8,610,796,0,,,,
R,,5013599.0,-0.085,0.893,-0.38,-1.8,-1.9,-7.1,604,801,0,,,,
R,,5013609.0,-0.175,0.883,-0.356,-1.7,-4.2,-6.5,615,803,0,,,,
R,,5013619.0,-0.101,0.912,-0.345,-2.0,-5.7,-4.9,615,803,0,,,,
R,,5013629.0,0.007,0.945,-0.207,-2.1,-5.6,-4.2,620,807,0,,,,
R,,5013639.0,0.032,0.899,-0.203,-1.5,-4.1,-4.0,624,809,0,,,,
R,,5013649.0,0.057,0.973,-0.202,-1.6,-2.7,-3.8,628,812,0,,,,
R,,5013659.0,0.059,1.037,-0.163,-1.9,-2.5,-3.7,630,810,0,,,,
R,,5013669.0,0.07,1.052,-0.154,-1.5,-1.7,-3.7,633,814,0,,,,
R,,5013679.0,0.07,1.04,-0.177,-1.1,-0.6,-3.8,632,815,0,,,,
R,,5013689.0,0.04,1.007,-0.233,-0.9,-0.4,-3.8,624,815,0,,,,
R,,5013699.0,-0.116,1.074,-0.369,-0.9,0.0,-3.4,627,818,0,,,,
R,,5013750.0,-0.032,0.966,-0.222,-2.1,-2.3,-2.2,625,823,0,,,,
R,,5013809.0,-0.04,0.98,-0.269,-2.0,-1.4,-2.5,628,824,0,,,,
R,,5013869.0,0.002,0.994,-0.203,-2.9,-1.1,-4.5,492,831,0,,,,
R,,5013931.0,-0.088,1.037,-0.168,-3.5,-1.0,-6.4,601,823,0,,,,
R,,5013990.0,-0.152,1.126,-0.196,-4.7,-2.1,-6.4,525,817,0,,,,
R,,5014049.0,-0.111,1.183,-0.176,-7.6,-2.1,-8.3,400,738,0,,,,
R,,5014110.0,-0.015,1.498,-0.31,-11.9,-3.9,-10.9,389,805,0,,,,
R,,5014169.0,0.254,1.832,-0.779,-12.6,-7.3,-16.4,246,782,0,,,,
R,,5014229.0,-0.6,1.345,-0.135,-12.6,-3.4,-19.5,189,629,0,,,,
R,,5014290.0,-0.692,0.648,0.108,-8.5,-3.4,-9.1,285,535,0,,,,
R,,5014349.0,0.168,0.15,-0.16,1.0,8.0,3.5,327,549,0,,,,
R,,5014410.0,0.09,0.184,-0.233,8.9,8.5,16.9,293,555,0,,,,
R,,5014469.0,0.193,0.635,-0.265,16.2,10.9,27.5,343,556,0,,,,
R,,5014530.0,0.067,1.519,-0.421,21.7,9.1,34.9,363,583,0,,,,
R,,5014589.0,-0.422,2.605,-0.001,22.4,11.6,33.6,365,582,0,,,,
R,,5014651.0,-1.711,1.762,0.563,10.1,5.9,13.5,341,571,0,,,,
R,,5014709.0,-1.131,0.796,-0.994,-4.0,-4.3,-14.9,280,601,0,,,,
R,,5014769.0,-0.252,1.339,-0.113,-5.0,-10.2,-16.1,520,713,0,,,,
R,,5014830.0,-0.246,1.001,-0.386,-0.8,0.5,-9.0,613,782,0,,,,
R,,5014889.0,0.034,0.967,-0.276,-2.3,-4.2,-4.3,633,805,0,,,,
R,,5014950.0,-0.007,0.965,-0.339,-0.8,-0.1,-5.1,654,814,0,,,,
R,,5015009.0,-0.056,0.956,-0.326,-2.6,-3.1,-2.7,663,820,0,,,,
R,,5015070.0,-0.066,0.988,-0.253,-1.9,-1.7,-2.4,642,823,0,,,,
R,,5015129.0,-0.074,0.954,-0.25,-2.4,-2.7,-1.9,569,829,0,,,,
R,,5015190.0,-0.06,1.023,-0.181,-3.7,-3.0,-3.5,624,821,0,,,,
R,,5015250.0,-0.097,1.056,-0.261,-5.1,-3.3,-4.9,612,821,0,,,,
R,,5015309.0,-0.056,1.126,-0.24,-6.8,-2.4,-8.0,519,809,0,,,,
R,,5015371.0,-0.131,1.382,-0.27,-10.7,-3.8,-10.5,406,813,0,,,,
R,,5015429.0,0.273,1.861,-0.49,-14.3,-5.2,-16.6,272,820,0,,,,
R,,5015490.0,-0.188,1.265,-0.088,-8.6,-5.3,-20.6,195,684,0,,,,
R,,5015549.0,-0.188,0.79,-0.438,-8.1,2.9,-14.0,279,485,0,,,,
R,,5015610.0,0.411,0.072,-0.425,0.1,1.6,4.7,324,533,0,,,,
R,,5015669.0,0.207,0.155,-0.317,5.0,8.1,16.6,334,532,0,,,,
R,,5015730.0,0.191,0.592,-0.458,10.7,12.8,27.0,358,540,0,,,,
R,,5015790.0,-0.029,1.392,-0.701,16.9,18.4,34.7,322,556,0,,,,
R,,5015849.0,-1.13,2.493,-0.849,23.4,23.0,31.2,337,515,0,,,,
R,,5015910.0,-1.198,1.699,0.386,15.4,-0.4,17.0,287,538,0,,,,
R,,5015969.0,-1.326,1.492,0.346,-2.2,6.5,-15.7,302,570,0,,,,
R,,5016031.0,0.025,1.616,0.778,-6.2,6.4,-21.1,503,662,0,,,,
R,,5016089.0,-0.076,0.944,0.246,-3.3,6.7,-17.1,593,780,0,,,,
R,,5016150.0,-0.178,0.905,-0.42,-2.5,-3.7,-6.1,616,809,0,,,,
R,,5016209.0,0.053,1.045,-0.112,-1.5,-1.3,-3.2,644,823,0,,,,
R,,5016270.0,0.004,0.971,-0.305,-2.3,-2.6,-2.0,572,828,0,,,,
R,,5016330.0,0.031,0.981,-0.222,-2.8,-1.8,-3.4,628,821,0,,,,
R,,5016389.0,-0.045,1.009,-0.191,-3.4,-0.8,-4.2,604,825,0,,,,
R,,5016449.0,-0.111,1.009,-0.161,-3.7,-1.2,-3.7,555,824,0,,,,
R,,5016509.0,-0.115,1.007,-0.198,-4.8,-1.1,-3.8,476,819,0,,,,
R,,5016570.0,-0.035,1.137,-0.183,-7.1,-2.2,-5.4,408,767,0,,,,
R,,5016629.0,0.001,1.388,-0.203,-11.2,-2.2,-9.1,324,806,0,,,,
R,,5016690.0,0.233,1.843,-0.671,-15.1,-3.1,-14.9,313,795,0,,,,
R,,5016751.0,-0.268,1.115,-0.254,-10.0,-4.1,-18.9,147,516,0,,,,
R,,5016810.0,-0.195,0.508,-0.371,-10.1,10.4,-11.2,282,488,0,,,,
R,,5016870.0,0.411,0.142,-0.49,-1.3,14.6,1.9,323,533,0,,,,
R,,5016929.0,-0.114,0.165,-0.46,3.6,14.1,14.8,340,539,0,,,,
R,,5016990.0,0.146,0.621,-0.564,8.6,15.4,27.2,350,546,0,,,,
R,,5017049.0,-0.133,1.371,-0.789,13.1,19.9,31.6,329,518,0,,,,
R,,5017110.0,-0.995,2.093,-0.887,22.6,27.4,27.8,354,527,0,,,,
R,,5017169.0,-1.321,1.702,0.106,12.3,-3.4,20.1,325,538,0,,,,
R,,5017230.0,-1.272,1.315,0.5,1.3,5.6,-9.9,207,594,0,,,,
R,,5017290.0,-0.561,1.603,0.491,-4.9,0.5,-18.7,509,662,0,,,,
R,,5017349.0,-0.029,0.984,0.19,-3.0,7.0,-17.3,587,778,0,,,,
R,,5017410.0,-0.338,0.829,-0.43,-3.8,-5.3,-7.4,575,814,0,,,,
R,,5017471.0,0.076,1.057,-0.065,-1.9,-1.2,-5.8,541,826,0,,,,
R,,5017530.0,-0.134,0.963,-0.333,-2.4,-3.2,-3.3,610,828,0,,,,
R,,5017620.0,-0.115,0.982,-0.242,-3.3,-1.7,-2.8,477,835,0,,,,
R,,5017679.0,-0.183,0.983,-0.272,-3.0,-0.9,-2.8,506,829,0,,,,
R,,5017740.0,-0.121,1.026,-0.175,-4.1,-0.9,-4.2,426,824,0,,,,
R,,5017799.0,-0.163,1.054,-0.178,-5.0,-0.5,-5.0,475,807,0,,,,
R,,5017860.0,-0.113,1.189,-0.197,-7.9,-1.0,-7.5,404,808,0,,,,
R,,5017919.0,-0.057,1.508,-0.27,-11.7,-3.6,-10.7,395,814,0,,,,
R,,5017980.0,0.418,1.833,-0.744,-15.0,-9.2,-14.5,246,792,0,,,,
R,,5018040.0,-0.571,1.266,-0.128,-13.5,-0.1,-17.9,135,442,0,,,,
R,,5018100.0,-0.542,0.495,0.098,-10.5,5.3,-7.7,276,535,0,,,,
R,,5018162.0,0.18,0.179,-0.229,-4.4,17.8,5.3,339,555,0,,,,
R,,5018219.0,-0.072,0.22,-0.416,1.6,13.5,19.7,290,561,0,,,,
R,,5018279.0,0.049,0.688,-0.533,8.9,10.6,31.9,283,545,0,,,,
R,,5018339.0,-0.065,1.519,-0.699,17.0,13.5,36.8,353,531,0,,,,
R,,5018400.0,-1.299,2.67,-0.484,23.7,19.0,28.9,356,526,0,,,,
R,,5018459.0,-1.691,1.555,0.28,10.3,9.1,10.0,284,553,0,,,,
R,,5018520.0,-0.555,1.767,-0.647,-4.8,1.5,-14.7,344,584,0,,,,
R,,5018580.0,-0.306,1.279,0.165,-5.6,-3.9,-14.3,532,690,0,,,,
R,,5018639.0,-0.409,0.777,-0.29,0.8,7.2,-12.4,579,782,0,,,,
R,,5018700.0,-0.083,0.934,-0.341,-2.7,-5.3,-3.7,610,797,0,,,,
R,,5018759.0,0.118,1.022,-0.217,-0.3,0.5,-3.7,619,807,0,,,,
R,,5018820.0,-0.06,0.953,-0.357,-1.2,-1.8,-1.9,556,817,0,,,,
R,,5018881.0,0.026,0.98,-0.224,-1.3,-1.2,-1.8,611,817,0,,,,
R,,5018940.0,0.001,0.964,-0.263,-1.8,-2.1,-2.5,632,817,0,,,,
R,,5019000.0,0.027,1.001,-0.239,-3.2,-1.0,-4.8,625,821,0,,,,
R,,5019060.0,-0.058,1.045,-0.244,-5.7,-1.4,-6.3,560,829,0,,,,
R,,5019120.0,-0.02,1.213,-0.224,-9.9,-2.1,-9.2,467,824,0,,,,
R,,5019179.0,-0.069,1.618,-0.419,-15.0,-5.3,-11.4,420,800,0,,,,
R,,5019240.0,0.61,2.063,-0.563,-18.7,-6.0,-16.7,282,798,0,,,,
R,,5019299.0,-0.582,1.187,-0.161,-14.2,3.2,-22.4,190,588,0,,,,
R,,5019360.0,-0.202,0.499,0.248,-12.5,7.4,-8.9,332,507,0,,,,
R,,5019419.0,0.084,-0.009,-0.287,-4.1,19.1,6.3,259,562,0,,,,
R,,5019480.0,0.009,0.221,-0.449,4.3,9.1,22.4,370,554,0,,,,
R,,5019540.0,0.06,0.746,-0.499,10.8,5.7,34.4,375,537,0,,,,
R,,5019601.0,-0.008,1.81,-0.599,21.7,8.4,36.9,372,545,0,,,,
R,,5019660.0,-1.05,2.6,0.389,21.9,16.9,26.8,358,565,0,,,,
R,,5019719.0,-2.271,2.222,-0.139,-7.6,3.2,2.7,365,588,0,,,,
R,,5019780.0,0.137,1.379,-0.131,-1.6,-0.7,-17.0,442,650,0,,,,
R,,5019839.0,0.276,0.894,0.21,-5.4,-2.5,-15.8,584,763,0,,,,
R,,5019900.0,-0.059,0.896,-0.337,-3.6,-0.3,-6.6,599,796,0,,,,
R,,5019990.0,0.171,1.015,-0.259,-1.2,-3.0,-4.7,621,815,0,,,,
R,,5020049.0,-0.084,0.974,-0.297,-2.8,-1.5,-4.2,630,822,0,,,,
R,,5020140.0,-0.078,0.987,-0.202,-2.6,-1.1,-3.1,546,831,0,,,,
R,,5020200.0,-0.054,0.999,-0.146,-2.6,-1.8,-3.0,483,835,0,,,,
R,,5020259.0,-0.095,0.999,-0.187,-3.9,-1.3,-4.3,550,827,0,,,,
R,,5020321.0,-0.027,1.123,-0.166,-6.5,-1.8,-7.0,518,782,0,,,,
R,,5020379.0,-0.091,1.371,-0.198,-10.6,-2.5,-9.6,414,809,0,,,,
R,,5020440.0,0.217,1.746,-0.295,-13.9,-5.0,-12.5,336,810,0,,,,
R,,5020500.0,0.481,1.426,-0.715,-12.8,-9.0,-15.1,163,649,0,,,,
R,,5020560.0,0.121,1.061,-0.293,-10.9,5.8,-18.0,193,595,0,,,,
R,,5020620.0,-0.17,0.407,-0.598,-2.7,0.9,-1.4,293,533,0,,,,
R,,5020680.0,0.082,0.119,-0.413,7.1,6.9,11.8,302,551,0,,,,
R,,5020740.0,0.108,0.406,-0.369,11.5,10.5,22.8,352,540,0,,,,
R,,5020799.0,0.117,1.055,-0.48,18.2,15.2,31.4,334,529,0,,,,
R,,5020860.0,-0.183,1.954,-0.549,23.0,15.2,34.1,358,558,0,,,,
R,,5020919.0,-1.61,1.95,-0.259,18.9,19.5,22.1,305,556,0,,,,
R,,5020980.0,-1.647,0.658,0.43,6.5,6.6,-3.9,343,561,0,,,,
R,,5021071.0,-0.853,1.248,-0.491,-5.0,-7.5,-16.8,560,714,0,,,,
R,,5021129.0,-0.093,0.923,-0.176,-2.8,2.9,-10.3,609,784,0,,,,
R,,5021220.0,0.025,1.009,-0.203,-2.1,-3.9,-4.4,629,810,0,,,,
R,,5021310.0,-0.104,0.991,-0.311,-1.7,-2.2,-2.9,642,825,0,,,,
R,,5021370.0,0.017,0.975,-0.201,-1.7,-2.3,-2.7,609,828,0,,,,
R,,5021430.0,-0.035,0.962,-0.231,-1.6,-2.0,-3.8,606,828,0,,,,
R,,5021490.0,-0.095,0.951,-0.173,-2.1,-1.5,-4.7,454,838,0,,,,
R,,5021549.0,-0.104,1.001,-0.335,-4.1,-1.3,-5.5,483,825,0,,,,
R,,5021610.0,-0.102,1.169,-0.219,-8.7,-2.3,-7.7,523,802,0,,,,
R,,5021669.0,-0.113,1.39,-0.27,-11.2,-2.9,-10.1,377,806,0,,,,
R,,5021730.0,0.196,1.774,-0.437,-14.3,-4.5,-15.3,289,812,0,,,,
R,,5021791.0,-0.248,1.107,-0.169,-10.0,-3.0,-19.8,164,659,0,,,,
R,,5021850.0,-0.11,0.781,-0.308,-9.3,9.3,-15.6,271,522,0,,,,
R,,5021910.0,0.452,0.189,-0.451,-0.4,4.5,3.2,256,573,0,,,,
R,,5021970.0,0.253,0.223,-0.291,6.5,8.5,16.3,363,551,0,,,,
R,,5022030.0,0.184,0.54,-0.355,11.7,9.7,27.7,352,536,0,,,,
R,,5022089.0,0.125,1.484,-0.434,16.7,10.9,35.3,339,575,0,,,,
R,,5022150.0,-0.81,2.293,-0.36,19.9,24.6,29.4,363,562,0,,,,
R,,5022208.0,-1.835,1.724,0.006,11.0,15.3,12.8,266,575,0,,,,
R,,5022270.0,-1.552,1.302,0.135,-3.9,3.6,-15.4,407,574,0,,,,
R,,5022330.0,-0.448,1.295,-0.121,-4.2,-8.8,-13.7,540,713,0,,,,
R,,5022390.0,-0.214,0.855,-0.311,1.4,2.4,-8.2,559,775,0,,,,
R,,5022450.0,0.02,0.834,-0.308,-0.8,-5.8,-2.7,592,794,0,,,,
R,,5022511.0,0.116,0.993,-0.249,0.6,0.3,-4.2,558,809,0,,,,
R,,5022570.0,0.013,0.989,-0.28,-0.9,-3.0,-2.1,627,809,0,,,,
R,,5022629.0,0.038,0.998,-0.268,-0.9,-1.7,-2.5,533,824,0,,,,
R,,5022689.0,0.014,0.953,-0.26,-1.8,-2.0,-3.1,580,823,0,,,,
R,,5022750.0,-0.018,0.969,-0.274,-2.7,-1.2,-4.7,609,823,0,,,,
R,,5022810.0,-0.075,0.997,-0.265,-4.4,-0.3,-6.0,599,827,0,,,,
R,,5022870.0,-0.012,1.094,-0.197,-6.7,-2.1,-7.2,369,839,0,,,,
R,,5022930.0,-0.07,1.273,-0.267,-10.3,-3.8,-9.4,477,809,0,,,,
R,,5022990.0,0.2,1.765,-0.178,-14.5,-4.9,-14.1,293,816,0,,,,
R,,5023049.0,0.645,1.548,-0.592,-16.2,-7.8,-16.9,226,779,0,,,,
R,,5023110.0,-0.023,1.129,-0.417,-12.6,13.6,-17.2,178,596,0,,,,
R,,5023169.0,0.062,0.248,-0.511,-9.8,10.4,-2.0,332,553,0,,,,
R,,5023231.0,0.01,0.009,-0.456,-0.8,13.1,12.1,310,547,0,,,,
R,,5023290.0,0.02,0.316,-0.444,4.1,11.6,24.7,351,541,0,,,,
R,,5023350.0,-0.013,0.991,-0.644,11.1,13.9,33.9,366,555,0,,,,
R,,5023410.0,-0.488,1.911,-0.914,20.6,20.1,33.3,377,560,0,,,,
R,,5023500.0,-1.301,1.624,0.139,12.0,11.1,13.7,235,425,0,,,,
R,,5023560.0,-1.637,1.555,0.07,2.6,11.6,-13.8,367,559,0,,,,
R,,5023620.0,-0.562,1.367,0.294,-4.7,-5.2,-17.2,368,703,0,,,,
R,,5023709.0,-0.059,1.041,-0.192,1.8,3.3,-9.9,551,794,0,,,,
R,,5023770.0,0.097,0.986,-0.223,-1.6,-4.4,-3.2,618,808,0,,,,
R,,5023830.0,-0.027,0.956,-0.24,-0.3,0.9,-5.0,611,822,0,,,,
R,,5023890.0,-0.024,1.01,-0.268,-1.5,-2.2,-1.8,641,822,0,,,,
R,,5023952.0,-0.024,0.977,-0.225,-1.3,-0.9,-2.1,648,823,0,,,,
R,,5024010.0,0.009,0.964,-0.242,-2.0,-0.5,-3.3,637,824,0,,,,
R,,5024070.0,-0.078,0.982,-0.173,-2.5,-0.4,-4.9,631,828,0,,,,
R,,5024129.0,-0.166,1.037,-0.289,-4.7,-1.1,-5.3,475,840,0,,,,
R,,5024190.0,-0.006,1.092,-0.342,-9.0,-2.3,-8.0,580,823,0,,,,
R,,5024250.0,-0.053,1.404,-0.294,-12.6,-6.4,-8.9,445,810,0,,,,
R,,5024310.0,0.395,1.916,-0.471,-15.3,-7.5,-14.2,245,815,0,,,,
R,,5024370.0,-0.244,1.218,-0.412,-13.5,1.5,-21.7,202,637,0,,,,
R,,5024430.0,-0.339,0.533,-0.374,-10.5,12.5,-12.9,316,502,0,,,,
R,,5024490.0,0.281,0.08,-0.49,-3.8,17.4,2.2,245,572,0,,,,
R,,5024550.0,-0.007,0.097,-0.45,1.6,14.1,16.9,370,544,0,,,,
R,,5024610.0,0.066,0.509,-0.566,8.8,9.7,29.8,320,558,0,,,,
R,,5024671.0,0.017,1.37,-0.727,18.6,8.3,36.5,380,547,0,,,,
R,,5024730.0,-0.898,2.585,-0.314,28.5,17.0,27.3,322,556,0,,,,
R,,5024790.0,-1.686,1.688,-0.101,13.1,19.7,10.7,313,561,0,,,,
R,,5024850.0,-0.89,1.661,-0.26,-1.7,2.4,-12.5,389,581,0,,,,
R,,5024910.0,-0.284,1.475,0.195,-7.8,-8.1,-13.5,515,699,0,,,,
R,,5024970.0,-0.244,0.704,-0.248,-0.8,5.6,-12.5,544,777,0,,,,
R,,5025030.0,-0.205,0.848,-0.422,-3.3,-6.4,-5.8,583,805,0,,,,
R,,5025090.0,0.118,1.031,-0.243,-0.9,-0.3,-5.0,578,818,0,,,,
R,,5025150.0,-0.093,0.957,-0.344,-1.8,-3.2,-3.2,628,821,0,,,,
R,,5025209.0,-0.029,0.957,-0.247,-1.7,-1.9,-3.5,627,824,0,,,,
R,,5025270.0,-0.064,0.956,-0.236,-1.9,-2.0,-3.5,561,829,0,,,,
R,,5025329.0,-0.068,0.996,-0.21,-2.7,-1.7,-4.7,598,826,0,,,,
R,,5025391.0,-0.123,1.064,-0.191,-5.5,-2.7,-5.5,564,830,0,,,,
R,,5025450.0,-0.106,1.086,-0.304,-7.0,-4.6,-6.7,543,778,0,,,,
R,,5025510.0,-0.136,1.308,-0.133,-8.7,-3.3,-9.5,369,739,0,,,,
R,,5025570.0,0.009,1.635,-0.357,-12.7,-4.8,-13.1,330,823,0,,,,
R,,5025630.0,0.54,1.728,-0.676,-13.6,-3.2,-18.3,242,782,0,,,,
R,,5025690.0,-0.005,1.133,-0.489,-9.7,8.2,-19.1,172,614,0,,,,
R,,5025750.0,0.13,0.308,-0.514,-5.9,2.5,-1.3,332,540,0,,,,
R,,5025809.0,0.158,0.058,-0.26,1.3,8.7,13.7,330,531,0,,,,
R,,5025870.0,0.153,0.381,-0.395,7.1,9.7,26.5,352,539,0,,,,
R,,5025930.0,-0.055,1.026,-0.603,15.0,9.3,35.8,370,526,0,,,,
R,,5025990.0,-0.592,2.066,-0.632,25.5,10.8,33.9,370,538,0,,,,
R,,5026082.0,-1.693,1.667,0.044,11.6,15.8,9.5,286,574,0,,,,
R,,5026140.0,-1.158,1.849,-0.267,-6.3,4.3,-13.7,381,533,0,,,,
R,,5026200.0,-0.527,1.314,0.205,-8.3,-2.6,-16.7,459,687,0,,,,
R,,5026260.0,-0.257,0.81,-0.025,-2.9,4.5,-12.6,535,772,0,,,,
R,,5026320.0,-0.159,0.878,-0.376,-2.6,-6.4,-4.5,598,798,0,,,,
R,,5026380.0,0.103,0.979,-0.222,0.1,0.0,-4.5,609,811,0,,,,
R,,5026440.0,0.007,0.926,-0.34,-1.2,-1.9,-2.4,589,818,0,,,,
R,,5026500.0,-0.006,0.98,-0.274,-1.8,-0.9,-3.3,611,817,0,,,,
R,,5026560.0,-0.029,0.953,-0.264,-4.1,-1.4,-4.5,559,825,0,,,,
R,,5026620.0,-0.125,0.974,-0.23,-3.8,-2.1,-5.3,601,832,0,,,,
R,,5026680.0,-0.103,1.059,-0.277,-3.9,-4.2,-5.6,591,822,0,,,,
R,,5026740.0,-0.086,1.105,-0.269,-6.4,-3.9,-8.5,493,823,0,,,,
R,,5026801.0,-0.051,1.667,-0.352,-10.9,-6.0,-13.8,322,775,0,,,,
R,,5026860.0,0.512,2.143,-0.629,-13.3,-6.3,-21.2,160,794,0,,,,
R,,5026920.0,-0.521,1.279,0.155,-7.6,-10.5,-21.4,47,163,0,,,,
R,,5026980.0,-0.064,0.383,0.245,-6.1,3.5,-9.4,300,540,0,,,,
R,,5027040.0,0.06,-0.034,-0.284,7.1,6.9,8.1,305,564,0,,,,
R,,5027099.0,0.314,0.36,-0.136,11.2,0.4,23.7,299,566,0,,,,
R,,5027160.0,0.199,0.942,-0.192,14.8,-0.4,34.1,296,577,0,,,,
R,,5027220.0,0.153,1.804,-0.023,21.0,3.1,36.9,304,570,0,,,,
R,,5027280.0,-1.044,2.174,-0.284,15.1,20.2,28.1,343,558,0,,,,
R,,5027340.0,-1.238,1.76,0.407,4.7,-13.9,4.9,235,579,0,,,,
R,,5027400.0,1.656,0.782,-0.975,-5.8,5.1,-10.3,381,616,0,,,,
R,,5027459.0,-0.92,1.579,-0.384,-3.5,-2.0,-16.7,546,730,0,,,,
R,,5027522.0,-0.192,0.909,-0.353,-6.8,-1.7,-10.3,581,785,0,,,,
R,,5027580.0,-0.019,0.965,-0.163,-2.7,-2.2,-5.7,617,813,0,,,,
R,,5027640.0,-0.189,0.947,-0.391,-2.4,-4.3,-3.4,616,822,0,,,,
R,,5027700.0,-0.034,0.991,-0.209,-2.5,-1.5,-2.7,597,827,0,,,,
R,,5027760.0,-0.1,0.925,-0.235,-2.4,-2.1,-2.3,601,827,0,,,,
R,,5027820.0,-0.11,0.983,-0.188,-2.1,-2.0,-2.4,632,826,0,,,,
R,,5027880.0,-0.155,0.991,-0.234,-2.4,-3.7,-2.9,629,824,0,,,,
R,,5027940.0,-0.095,1.115,-0.239,-3.3,-5.9,-4.5,562,820,0,,,,
R,,5028000.0,-0.029,1.237,-0.231,-6.9,-5.4,-8.0,471,817,0,,,,
R,,5028060.0,0.142,1.65,-0.382,-10.7,-7.7,-13.6,335,818,0,,,,
R,,5028120.0,0.248,1.296,-0.583,-7.0,-6.0,-21.0,211,763,0,,,,
R,,5028181.0,-0.222,0.987,-0.277,-6.5,0.4,-16.7,225,583,0,,,,
R,,5028240.0,0.348,0.264,-0.252,-1.2,-10.3,0.9,258,532,0,,,,
R,,5028300.0,0.171,0.047,-0.235,8.1,-6.6,11.2,271,535,0,,,,
R,,5028360.0,0.322,0.459,-0.25,13.5,2.2,21.1,341,534,0,,,,
R,,5028420.0,0.166,1.136,-0.35,20.0,17.4,27.2,351,542,0,,,,
R,,5028510.0,-0.763,2.3,-0.67,23.3,20.5,26.2,318,553,0,,,,
R,,5028570.0,-1.11,1.372,0.45,14.5,0.0,13.9,148,500,0,,,,
R,,5028630.0,-1.012,1.394,0.269,-6.7,8.3,-15.2,355,547,0,,,,
R,,5028690.0,-2.168,1.726,-0.091,-8.2,4.4,-26.0,500,736,0,,,,
R,,5028750.0,-0.31,0.797,-0.308,-4.4,2.3,-10.8,581,789,0,,,,
R,,5028810.0,-0.13,0.933,-0.268,-3.3,-4.2,-4.2,626,808,0,,,,
R,,5028870.0,0.01,0.971,-0.278,-0.7,0.1,-3.4,611,823,0,,,,
R,,5028931.0,-0.025,0.973,-0.278,-2.1,-1.8,-2.1,645,824,0,,,,
R,,5028990.0,-0.071,0.937,-0.213,-1.4,-1.2,-1.5,636,827,0,,,,
R,,5029050.0,-0.057,0.964,-0.235,-1.3,-1.7,-1.0,623,829,0,,,,
R,,5029110.0,-0.04,0.966,-0.206,-1.9,-1.9,-1.4,631,828,0,,,,
R,,5029170.0,-0.034,1.036,-0.298,-4.9,-1.4,-3.4,598,827,0,,,,
R,,5029230.0,0.082,1.08,-0.246,-8.6,-2.5,-6.5,579,828,0,,,,
R,,5029290.0,-0.116,1.485,-0.455,-13.0,-2.7,-10.3,471,805,0,,,,
R,,5029350.0,0.176,1.78,-0.302,-14.3,-7.0,-14.1,265,804,0,,,,
R,,5029410.0,-0.186,1.149,-0.412,-12.9,-2.3,-17.7,202,704,0,,,,
R,,5029470.0,-0.229,0.589,-0.397,-10.4,14.2,-14.1,269,452,0,,,,
R,,5029530.0,0.313,0.093,-0.732,-2.2,21.8,0.9,327,541,0,,,,
R,,5029591.0,0.108,0.107,-0.586,2.5,15.8,19.7,344,551,0,,,,
R,,5029650.0,-0.087,0.584,-0.64,8.5,9.8,30.0,358,542,0,,,,
R,,5029710.0,-0.542,1.506,-0.68,19.5,8.5,33.5,353,514,0,,,,
R,,5029800.0,-1.45,1.867,-0.151,10.7,27.2,13.8,236,506,0,,,,
R,,5029860.0,-1.719,1.407,0.53,-0.7,10.7,-9.1,283,559,0,,,,
R,,5029920.0,0.317,1.167,-0.01,0.1,7.6,-14.0,510,682,0,,,,
R,,5029980.0,0.085,0.504,0.177,-2.4,0.1,-9.0,551,767,0,,,,
R,,5030041.0,0.158,1.008,-0.266,1.5,0.0,-2.9,585,766,0,,,,
R,,5030100.0,0.136,1.019,-0.217,-0.5,-2.2,-2.0,570,780,0,,,,
R,,5030160.0,-0.064,1.023,-0.307,0.3,0.0,-3.1,609,787,0,,,,
R,,5030220.0,0.0,0.975,-0.226,-0.7,-2.1,-1.6,619,792,0,,,,
R,,5030321.0,0.024,0.972,-0.281,-1.0,-0.9,-3.1,604,801,0,,,,
R,,5030341.0,-0.087,1.007,-0.188,-1.4,-0.9,-3.3,605,804,0,,,,
R,,5030400.0,-0.04,1.012,-0.235,-2.6,-1.2,-4.4,573,816,0,,,,
R,,5030460.0,0.033,1.09,-0.286,-6.5,-1.8,-7.8,497,832,0,,,,
R,,5030520.0,-0.199,1.143,-0.256,-10.1,-3.0,-11.5,544,826,0,,,,
R,,5030581.0,0.149,1.741,-0.193,-14.1,-8.2,-14.8,340,818,0,,,,
R,,5030640.0,0.464,1.812,-0.718,-14.5,-4.4,-21.0,133,798,0,,,,
R,,5030700.0,0.074,1.068,-0.226,-10.3,9.8,-18.3,163,628,0,,,,
R,,5030760.0,-0.405,0.087,-0.366,-7.1,7.5,-1.7,270,556,0,,,,
R,,5030820.0,0.075,-0.116,-0.331,-1.1,12.2,13.6,267,581,0,,,,
R,,5030880.0,0.008,0.369,-0.567,5.8,9.5,28.0,266,542,0,,,,
R,,5030970.0,-0.238,1.68,-0.775,20.2,14.9,35.2,354,542,0,,,,
R,,5031030.0,-1.095,2.301,-0.778,25.6,18.0,25.3,352,515,0,,,,
R,,5031091.0,-1.561,1.479,0.175,10.7,11.4,6.6,321,551,0,,,,
R,,5031150.0,-0.367,1.755,0.377,-5.8,4.8,-12.7,372,582,0,,,,
R,,5031210.0,-0.26,1.403,0.29,-4.8,-1.6,-17.2,458,691,0,,,,
R,,5031270.0,-0.325,0.805,0.025,0.5,7.0,-12.7,534,782,0,,,,
R,,5031331.0,-0.109,0.834,-0.463,-3.5,-7.3,-4.7,578,799,0,,,,
R,,5031420.0,-0.031,0.962,-0.345,-1.1,0.0,-4.9,518,821,0,,,,
R,,5031480.0,-0.023,0.987,-0.273,-1.8,-1.8,-2.8,633,820,0,,,,
R,,5031570.0,-0.058,0.975,-0.265,-2.1,-1.5,-3.4,525,828,0,,,,
R,,5031630.0,-0.104,0.978,-0.222,-2.3,-1.2,-4.1,487,832,0,,,,
R,,5031690.0,-0.138,1.001,-0.214,-3.8,-1.7,-4.1,561,830,0,,,,
R,,5031750.0,0.0,1.027,-0.316,-6.4,-2.7,-6.3,594,824,0,,,,
R,,5031812.0,-0.076,1.319,-0.215,-9.1,-3.2,-10.7,435,802,0,,,,
R,,5031871.0,0.021,1.592,-0.365,-13.2,-3.9,-14.8,259,703,0,,,,
R,,5031930.0,0.707,1.87,-0.589,-14.9,-3.9,-18.8,186,798,0,,,,
R,,5031990.0,-0.242,1.156,-0.387,-13.1,8.0,-17.9,175,558,0,,,,
R,,5032049.0,0.088,0.251,-0.6,-6.0,2.5,-0.1,316,570,0,,,,
R,,5032110.0,0.015,0.022,-0.338,0.8,7.2,13.0,308,569,0,,,,
R,,5032170.0,0.122,0.308,-0.336,7.2,7.9,26.1,349,558,0,,,,
R,,5032230.0,0.058,0.987,-0.508,13.6,9.7,34.9,357,553,0,,,,
R,,5032291.0,-0.132,2.102,-0.71,22.4,17.3,35.3,293,559,0,,,,
R,,5032350.0,-1.455,2.063,-0.507,20.8,18.8,24.9,298,554,0,,,,
R,,5032410.0,-1.924,1.365,0.638,0.8,0.5,-7.4,242,589,0,,,,
R,,5032470.0,1.632,2.166,0.789,-9.1,9.2,-18.7,458,634,0,,,,
R,,5032532.0,0.594,1.045,0.157,-5.3,-0.9,-15.1,456,750,0,,,,
R,,5032590.0,-0.019,0.996,-0.401,-1.0,0.3,-8.6,590,789,0,,,,
R,,5032650.0,0.013,0.983,-0.224,-2.0,-3.3,-3.8,547,816,0,,,,
R,,5032710.0,-0.041,0.974,-0.28,-1.3,-1.0,-4.1,587,822,0,,,,
R,,5032770.0,-0.024,0.971,-0.212,-2.3,-2.1,-2.7,641,822,0,,,,
R,,5032831.0,-0.094,0.995,-0.202,-1.8,-1.7,-2.6,640,825,0,,,,
R,,5032890.0,-0.062,0.983,-0.177,-2.0,-2.0,-2.7,551,831,0,,,,
R,,5032950.0,-0.075,0.992,-0.168,-2.9,-1.2,-4.8,538,826,0,,,,
R,,5033010.0,-0.072,1.117,-0.215,-4.8,-2.0,-6.9,566,817,0,,,,
R,,5033070.0,-0.081,1.31,-0.147,-8.4,-2.1,-9.7,407,751,0,,,,
R,,5033130.0,0.009,1.511,-0.333,-11.9,-3.4,-13.1,322,812,0,,,,
R,,5033190.0,0.393,1.587,-0.708,-11.3,-9.5,-14.9,224,787,0,,,,
R,,5033251.0,-0.013,1.341,-0.322,-11.7,3.0,-17.9,126,476,0,,,,
R,,5033310.0,-0.558,0.446,-0.457,-5.4,-2.5,-5.2,325,542,0,,,,
R,,5033371.0,0.164,0.087,-0.262,2.8,7.7,8.5,205,583,0,,,,
R,,5033460.0,0.151,0.509,-0.351,12.8,9.4,27.0,294,569,0,,,,
R,,5033520.0,0.128,1.285,-0.476,19.9,10.3,35.0,347,562,0,,,,
R,,5033581.0,-0.591,2.508,-0.375,24.1,14.8,33.0,365,560,0,,,,
R,,5033640.0,-1.97,1.878,0.102,13.6,11.7,16.4,322,583,0,,,,
R,,5033700.0,-1.261,1.409,-0.243,-5.3,-1.1,-12.8,237,592,0,,,,
R,,5033760.0,-0.353,1.743,-0.091,-9.2,-3.2,-16.8,536,678,0,,,,
R,,5033820.0,-0.261,0.775,0.156,-1.0,0.0,-12.6,597,770,0,,,,
R,,5033880.0,-0.166,0.861,-0.442,-1.2,-3.9,-6.3,597,801,0,,,,
R,,5033942.0,0.019,1.0,-0.245,-1.0,-2.5,-3.8,620,813,0,,,,
R,,5034000.0,-0.134,0.95,-0.373,-1.3,-2.7,-2.6,620,822,0,,,,
R,,5034060.0,-0.047,0.99,-0.244,-1.2,-2.5,-2.2,593,827,0,,,,
R,,5034121.0,-0.067,0.979,-0.289,-1.3,-3.2,-2.1,618,827,0,,,,
R,,5034180.0,-0.026,1.032,-0.193,-3.1,-2.2,-4.7,530,833,0,,,,
R,,5034240.0,-0.08,1.072,-0.265,-4.3,-1.7,-6.3,588,825,0,,,,
R,,5034300.0,-0.078,1.119,-0.269,-6.5,-2.1,-8.9,473,801,0,,,,
R,,5034360.0,-0.105,1.299,-0.236,-9.3,-2.8,-12.5,395,811,0,,,,
R,,5034420.0,0.219,1.748,-0.383,-13.4,-5.0,-17.2,196,822,0,,,,
R,,5034480.0,0.029,1.263,-0.419,-6.9,-8.5,-22.6,215,725,0,,,,
R,,5034541.0,0.037,0.818,-0.28,-6.9,2.6,-14.4,260,516,0,,,,
R,,5034600.0,0.497,0.002,-0.35,0.4,-0.3,4.2,301,544,0,,,,
R,,5034662.0,0.288,0.095,-0.137,7.0,7.3,17.3,339,535,0,,,,
R,,5034720.0,0.266,0.539,-0.36,13.4,9.0,28.6,322,547,0,,,,
R,,5034780.0,0.178,1.38,-0.415,18.4,7.8,37.9,347,542,0,,,,
R,,5034840.0,-0.6,2.711,-0.289,21.8,15.2,34.3,360,550,0,,,,
R,,5034900.0,-2.19,1.819,-0.017,13.0,3.6,18.0,368,549,0,,,,
R,,5034960.0,1.179,1.557,-0.69,-9.7,-0.9,-7.1,386,639,0,,,,
R,,5035020.0,-0.201,2.055,0.206,-9.3,-9.2,-17.6,579,746,0,,,,
R,,5035081.0,-0.254,0.875,-0.358,-2.2,1.8,-8.6,615,790,0,,,,
R,,5035140.0,0.119,0.957,-0.298,-1.9,-4.4,-3.6,638,811,0,,,,
R,,5035201.0,-0.018,1.005,-0.368,-1.4,-3.2,-3.3,562,826,0,,,,
R,,5035291.0,-0.005,0.985,-0.256,-2.9,-2.3,-3.7,618,827,0,,,,
R,,5035350.0,-0.068,0.969,-0.198,-3.8,-1.8,-4.3,619,825,0,,,,
R,,5035412.0,-0.12,0.996,-0.174,-3.5,-1.3,-4.6,544,831,0,,,,
R,,5035470.0,-0.173,1.002,-0.185,-3.6,-1.1,-5.0,500,829,0,,,,
R,,5035530.0,-0.081,1.17,-0.187,-5.6,-2.4,-6.9,465,817,0,,,,
R,,5035590.0,-0.153,1.307,-0.201,-9.5,-2.5,-10.2,337,821,0,,,,
R,,5035650.0,0.133,1.657,-0.41,-14.1,-5.0,-15.5,290,817,0,,,,
R,,5035710.0,0.265,1.372,-0.603,-10.8,-7.1,-19.6,210,760,0,,,,
R,,5035770.0,0.127,0.768,-0.622,-11.8,5.1,-16.4,229,539,0,,,,
R,,5035831.0,0.35,0.226,-0.491,-2.0,-0.6,0.8,297,544,0,,,,
R,,5035890.0,0.136,0.037,-0.272,2.6,10.1,13.3,329,532,0,,,,
R,,5035951.0,0.135,0.406,-0.472,9.3,13.7,25.4,273,539,0,,,,
R,,5036010.0,0.001,1.083,-0.619,15.2,17.5,34.7,340,528,0,,,,
R,,5036072.0,-0.43,2.317,-0.848,22.0,20.8,35.5,317,528,0,,,,
R,,5036130.0,-1.413,2.049,-0.313,21.5,12.1,23.7,327,525,0,,,,
R,,5036190.0,-1.397,1.466,0.242,2.2,3.8,-7.3,335,547,0,,,,
R,,5036250.0,1.204,1.852,0.665,-9.7,4.6,-18.0,390,639,0,,,,
R,,5036310.0,0.475,1.29,0.827,-8.3,1.7,-16.8,429,792,0,,,,
R,,5036371.0,-0.051,0.865,-0.353,-1.6,-2.5,-7.1,575,816,0,,,,
R,,5036430.0,0.067,1.029,-0.159,-2.0,-3.6,-2.8,555,832,0,,,,
R,,5036491.0,-0.045,0.929,-0.272,-2.6,-2.8,-2.6,520,833,0,,,,
R,,5036550.0,-0.051,0.952,-0.203,-2.0,-2.4,-2.6,574,828,0,,,,
R,,5036610.0,-0.047,0.956,-0.208,-2.3,-2.2,-2.7,542,830,0,,,,
R,,5036670.0,-0.083,1.011,-0.201,-2.8,-0.9,-4.1,524,830,0,,,,
R,,5036730.0,-0.069,1.018,-0.195,-4.2,-0.6,-5.1,525,826,0,,,,
R,,5036791.0,-0.109,1.151,-0.132,-6.5,-1.1,-7.0,358,824,0,,,,
R,,5036850.0,-0.087,1.339,-0.21,-10.4,-1.1,-9.5,339,816,0,,,,
R,,5036911.0,0.162,1.815,-0.411,-14.8,-4.6,-13.8,223,818,0,,,,
R,,5036970.0,0.412,1.32,-0.611,-12.5,-3.1,-18.4,214,733,0,,,,
R,,5037031.0,0.003,0.854,-0.435,-10.6,11.0,-16.7,247,563,0,,,,
R,,5037090.0,0.416,0.127,-0.493,-3.1,8.4,1.0,324,534,0,,,,
R,,5037150.0,0.044,0.081,-0.401,2.9,12.5,14.0,325,540,0,,,,
R,,5037210.0,0.125,0.481,-0.548,7.7,15.1,26.3,317,524,0,,,,
R,,5037269.0,-0.192,1.223,-0.673,12.1,21.6,32.3,276,521,0,,,,
R,,5037331.0,-0.813,1.853,-0.834,18.3,23.1,29.9,341,522,0,,,,
R,,5037390.0,-1.67,1.579,-0.356,14.3,3.2,21.7,277,513,0,,,,
R,,5037452.0,-1.26,1.528,0.345,2.3,7.9,-4.2,232,560,0,,,,
R,,5037510.0,-1.051,1.687,0.561,-2.9,1.1,-23.2,505,708,0,,,,
R,,5037571.0,0.137,0.48,0.435,-3.3,3.0,-19.0,385,788,0,,,,
R,,5037630.0,-0.164,0.927,-0.202,-3.5,-2.3,-7.6,562,816,0,,,,
R,,5037690.0,-0.012,1.005,-0.02,-1.6,-3.0,-5.6,607,828,0,,,,
R,,5037750.0,-0.228,0.942,-0.334,-2.5,-2.5,-2.5,589,830,0,,,,
R,,5037810.0,-0.047,0.99,-0.144,-1.9,-2.5,-1.8,535,832,0,,,,
R,,5037871.0,-0.095,0.978,-0.202,-2.4,-1.5,-2.5,534,830,0,,,,
R,,5037930.0,-0.103,0.952,-0.13,-3.1,-0.9,-4.5,452,829,0,,,,
R,,5037991.0,-0.158,1.016,-0.184,-3.7,-0.2,-5.6,491,819,0,,,,
R,,5038050.0,-0.142,1.157,-0.202,-5.7,-1.7,-6.3,421,816,0,,,,
R,,5038110.0,-0.087,1.309,-0.144,-8.4,-2.6,-8.9,377,812,0,,,,
R,,5038172.0,0.065,1.665,-0.417,-12.7,-5.7,-12.9,270,813,0,,,,
R,,5038230.0,0.249,1.184,-0.426,-10.8,-6.4,-15.2,26,478,0,,,,
R,,5038291.0,0.032,0.877,-0.355,-9.9,4.5,-16.2,180,529,0,,,,
R,,5038350.0,0.092,0.399,-0.303,-6.1,0.8,-0.6,213,546,0,,,,
R,,5038411.0,0.109,0.186,-0.284,-1.2,13.6,10.8,313,544,0,,,,
R,,5038470.0,0.108,0.368,-0.42,4.0,15.2,24.1,286,535,0,,,,
R,,5038531.0,0.074,0.835,-0.593,10.9,14.6,33.8,340,513,0,,,,
R,,5038590.0,-0.236,1.884,-1.08,21.2,17.2,35.9,342,530,0,,,,
R,,5038650.0,-1.416,2.145,-0.553,26.2,13.1,25.6,332,519,0,,,,
R,,5038710.0,-2.401,1.248,0.393,4.2,13.0,2.3,275,488,0,,,,
R,,5038770.0,1.318,0.589,-1.549,-4.7,12.6,-15.6,307,633,0,,,,
R,,5038831.0,-0.355,2.518,0.753,-5.0,-7.5,-17.2,543,772,0,,,,
R,,5038892.0,-0.337,0.781,-0.579,-4.9,0.5,-11.5,572,813,0,,,,
R,,5038951.0,-0.045,0.97,-0.243,-2.8,-4.1,-5.0,589,825,0,,,,
R,,5039010.0,-0.001,1.055,-0.183,-1.0,0.1,-4.7,583,833,0,,,,
R,,5039071.0,-0.12,0.992,-0.224,-2.8,-2.3,-2.4,580,831,0,,,,
R,,5039130.0,-0.108,0.953,-0.122,-1.9,-1.2,-1.8,583,827,0,,,,
R,,5039190.0,-0.172,0.982,-0.179,-1.7,-2.5,-0.4,477,834,0,,,,
R,,5039250.0,-0.059,1.021,-0.15,-2.4,-2.3,-0.8,489,832,0,,,,
R,,5039310.0,-0.058,1.111,-0.191,-4.3,-2.6,-3.0,532,796,0,,,,
R,,5039371.0,-0.005,1.129,-0.329,-9.2,-1.8,-6.7,421,811,0,,,,
R,,5039430.0,0.038,1.654,-0.236,-13.2,-2.8,-12.3,367,809,0,,,,
R,,5039491.0,0.32,1.782,-0.827,-13.5,-3.6,-17.0,227,788,0,,,,
R,,5039552.0,-0.348,1.265,-0.223,-14.6,0.0,-19.1,128,474,0,,,,
R,,5039611.0,-0.567,0.573,0.192,-10.2,1.5,-8.0,303,518,0,,,,
R,,5039670.0,0.018,0.05,-0.321,-0.9,14.2,6.1,309,558,0,,,,
R,,5039730.0,0.004,0.138,-0.417,5.8,10.3,21.3,350,568,0,,,,
R,,5039791.0,0.05,0.68,-0.592,12.2,10.5,31.6,358,522,0,,,,
R,,5039849.0,-0.357,1.681,-0.884,20.7,18.0,33.4,358,517,0,,,,
R,,5039911.0,-1.401,2.463,-0.449,23.7,16.7,26.0,355,516,0,,,,
R,,5039970.0,-1.787,1.531,0.282,11.2,5.4,5.0,280,441,0,,,,
R,,5040031.0,0.007,1.97,0.59,-5.6,6.5,-16.2,400,578,0,,,,
R,,5040090.0,-1.339,0.985,0.221,-4.6,0.3,-18.6,469,744,0,,,,
R,,5040151.0,-0.231,0.783,-0.587,-2.7,1.6,-9.3,579,800,0,,,,
R,,5040210.0,0.001,0.99,0.048,-2.3,-1.0,-4.4,575,819,0,,,,
R,,5040272.0,-0.093,0.944,-0.395,-0.1,-1.8,-2.2,588,826,0,,,,
R,,5040331.0,0.0,0.985,-0.32,-1.2,-2.4,-1.4,589,828,0,,,,
R,,5040390.0,0.014,0.977,-0.316,-2.7,-2.7,-2.8,583,829,0,,,,
R,,5040451.0,-0.042,0.977,-0.255,-4.5,-2.7,-5.3,566,829,0,,,,
R,,5040510.0,-0.117,1.007,-0.244,-5.1,-1.1,-6.2,506,828,0,,,,
R,,5040571.0,-0.11,1.105,-0.187,-5.7,-2.5,-6.3,487,782,0,,,,
R,,5040661.0,-0.104,1.306,-0.284,-10.7,-2.0,-11.3,274,812,0,,,,
R,,5040720.0,0.239,1.883,-0.529,-14.9,-5.2,-18.6,255,810,0,,,,
R,,5040781.0,0.024,1.263,-0.164,-10.5,-7.9,-21.1,124,644,0,,,,
R,,5040840.0,-0.117,0.63,-0.354,-7.9,5.0,-14.3,295,516,0,,,,
R,,5040901.0,0.406,0.094,-0.29,-0.6,2.5,3.1,319,535,0,,,,
R,,5040960.0,0.133,0.08,-0.268,5.4,9.4,13.8,325,547,0,,,,
R,,5041022.0,0.125,0.45,-0.459,12.2,12.6,25.6,334,535,0,,,,
R,,5041081.0,0.051,1.142,-0.576,19.1,12.7,34.1,326,551,0,,,,
R,,5041140.0,-0.407,2.571,-0.699,24.8,13.2,35.0,364,556,0,,,,
R,,5041201.0,-1.458,1.979,-0.152,18.1,7.0,21.3,320,554,0,,,,
R,,5041260.0,-1.426,1.056,0.498,-0.7,-0.7,-7.9,348,566,0,,,,
R,,5041321.0,-0.975,1.788,0.531,-6.3,-0.2,-21.7,503,683,0,,,,
R,,5041380.0,-0.16,0.569,-0.085,-2.7,5.6,-16.7,527,784,0,,,,
R,,5041441.0,-0.189,0.891,-0.298,-2.5,-5.8,-6.6,599,809,0,,,,
R,,5041500.0,0.111,1.058,-0.223,-1.1,-3.1,-2.8,601,822,0,,,,
R,,5041560.0,-0.107,0.939,-0.358,-1.7,-3.9,-1.9,604,826,0,,,,
R,,5041621.0,-0.077,0.982,-0.287,-1.4,-1.3,-2.0,605,828,0,,,,
R,,5041682.0,-0.072,0.941,-0.295,-2.1,-3.1,-2.0,592,823,0,,,,
R,,5041741.0,-0.02,1.009,-0.248,-3.0,-2.6,-4.5,576,826,0,,,,
R,,5041800.0,-0.104,1.019,-0.237,-4.6,-3.0,-5.5,488,827,0,,,,
R,,5041861.0,-0.053,1.138,-0.258,-6.3,-2.6,-7.9,365,697,0,,,,
R,,5041920.0,-0.189,1.261,-0.278,-9.4,-2.0,-11.4,259,801,0,,,,
R,,5041981.0,0.227,1.634,-0.428,-12.4,-5.4,-15.6,273,822,0,,,,
R,,5042041.0,0.281,1.565,-0.615,-10.1,-7.3,-21.5,210,752,0,,,,
R,,5042100.0,0.11,0.967,-0.284,-8.1,4.0,-17.0,238,508,0,,,,
R,,5042160.0,0.397,0.247,-0.347,-1.2,-8.5,3.4,297,538,0,,,,
R,,5042220.0,0.212,0.021,-0.208,5.1,6.5,13.6,248,564,0,,,,
R,,5042281.0,0.112,0.32,-0.447,12.0,11.4,24.5,306,562,0,,,,
R,,5042340.0,-0.005,0.95,-0.581,19.7,9.6,34.2,347,543,0,,,,
R,,5042402.0,-0.283,2.413,-0.599,26.8,10.0,34.9,355,555,0,,,,
R,,5042460.0,-1.757,2.069,-0.343,18.8,16.0,20.9,330,554,0,,,,
R,,5042520.0,-0.833,1.647,0.131,1.5,0.2,-10.8,299,557,0,,,,
R,,5042581.0,-0.629,1.883,0.027,-8.0,-2.7,-18.1,503,715,0,,,,
R,,5042640.0,-0.26,0.565,-0.471,-4.4,4.2,-14.0,478,795,0,,,,
R,,5042701.0,-0.058,0.943,-0.239,-3.5,-6.8,-3.7,571,817,0,,,,
R,,5042760.0,0.02,0.964,-0.325,-1.6,-0.5,-4.1,582,825,0,,,,
R,,5042850.0,-0.027,0.985,-0.285,-2.3,-2.8,-1.5,539,834,0,,,,
R,,5042911.0,-0.059,0.983,-0.279,-2.3,-3.3,-1.4,577,826,0,,,,
R,,5042970.0,-0.03,0.99,-0.284,-4.0,-3.1,-2.7,538,804,0,,,,
R,,5043031.0,-0.082,0.994,-0.189,-4.7,-2.3,-4.1,402,640,0,,,,
R,,5043090.0,-0.098,1.084,-0.271,-6.1,-2.5,-4.8,419,717,0,,,,
R,,5043152.0,-0.005,1.13,-0.187,-9.4,-1.1,-8.3,368,785,0,,,,
R,,5043210.0,0.059,1.554,-0.426,-13.0,-2.9,-12.2,275,829,0,,,,
R,,5043271.0,0.278,1.752,-0.989,-14.6,-5.1,-19.0,242,790,0,,,,
R,,5043331.0,-0.433,1.238,-0.199,-13.9,0.9,-19.7,203,630,0,,,,
R,,5043390.0,-0.666,0.647,0.047,-8.8,-0.9,-7.0,312,518,0,,,,
R,,5043451.0,0.145,0.021,-0.29,-1.2,11.5,6.7,315,548,0,,,,
R,,5043510.0,0.039,0.136,-0.431,4.7,11.6,21.4,336,540,0,,,,
R,,5043571.0,0.064,0.655,-0.617,11.7,12.3,31.6,332,530,0,,,,
R,,5043630.0,-0.21,1.665,-0.856,21.2,15.6,36.3,328,529,0,,,,
R,,5043691.0,-1.286,2.598,-0.77,28.4,18.9,27.3,346,513,0,,,,
R,,5043750.0,-2.243,1.498,0.461,9.3,12.5,5.6,238,415,0,,,,
R,,5043812.0,1.019,0.732,-1.056,-4.5,19.2,-19.1,370,628,0,,,,
R,,5043871.0,-0.275,2.3,0.115,-3.9,-7.6,-17.1,552,761,0,,,,
R,,5043930.0,-0.225,0.85,-0.344,-3.8,1.4,-10.6,595,800,0,,,,
R,,5043990.0,0.084,0.946,-0.146,-3.2,-4.1,-4.5,618,816,0,,,,
R,,5044050.0,-0.073,0.96,-0.359,-1.9,-1.1,-4.5,623,823,0,,,,
R,,5044111.0,-0.025,0.983,-0.27,-2.8,-3.3,-1.8,618,828,0,,,,
R,,5044170.0,-0.077,0.949,-0.223,-2.5,-1.6,-2.1,606,823,0,,,,
R,,5044231.0,-0.048,0.967,-0.208,-2.9,-2.6,-2.1,600,822,0,,,,
R,,5044291.0,-0.104,1.003,-0.141,-4.2,-0.6,-3.6,575,818,0,,,,
R,,5044350.0,-0.116,0.998,-0.268,-6.3,0.1,-5.3,396,647,0,,,,
R,,5044411.0,0.06,1.207,-0.238,-10.2,-0.3,-9.1,373,753,0,,,,
R,,5044470.0,0.011,1.586,-0.414,-14.6,-1.7,-12.5,300,816,0,,,,
R,,5044532.0,0.681,2.054,-0.838,-16.6,-6.9,-18.1,253,777,0,,,,
R,,5044590.0,-0.146,1.27,-0.475,-13.2,9.3,-18.5,160,562,0,,,,
R,,5044651.0,-0.369,0.451,-0.257,-12.6,8.6,-5.3,312,527,0,,,,
R,,5044710.0,0.052,0.0,-0.36,-6.4,21.2,8.9,316,541,0,,,,
R,,5044771.0,-0.044,0.122,-0.746,-1.2,22.2,22.7,344,527,0,,,,
R,,5044831.0,-0.129,0.623,-0.996,6.3,13.3,36.3,338,526,0,,,,
R,,5044890.0,-0.32,1.788,-1.158,19.1,13.0,40.3,338,493,0,,,,
R,,5044951.0,-1.638,2.435,-0.262,28.6,21.0,25.9,337,489,0,,,,
R,,5045010.0,-2.216,1.253,0.179,7.2,15.9,-0.1,248,564,0,,,,
R,,5045101.0,1.176,1.577,0.892,-9.3,8.6,-20.3,433,651,0,,,,
R,,5045161.0,0.014,0.916,0.696,-3.9,10.4,-18.6,556,780,0,,,,
R,,5045252.0,0.004,0.944,-0.209,-1.8,-5.0,-4.5,596,821,0,,,,
R,,5045311.0,-0.021,0.996,-0.209,-1.5,0.7,-4.8,617,825,0,,,,
R,,5045371.0,-0.064,0.959,-0.17,-2.2,-1.4,-2.7,614,829,0,,,,
R,,5045430.0,-0.076,0.986,-0.148,-2.1,-1.1,-2.6,585,828,0,,,,
R,,5045491.0,-0.003,1.028,-0.131,-2.9,-0.6,-3.6,570,817,0,,,,
R,,5045550.0,-0.13,1.075,-0.165,-4.4,-0.4,-5.7,513,817,0,,,,
R,,5045640.0,-0.115,1.203,0.033,-7.8,-2.2,-8.4,331,757,0,,,,
R,,5045701.0,-0.185,1.28,-0.138,-9.7,-0.5,-9.5,399,802,0,,,,
R,,5045760.0,0.03,1.454,-0.434,-13.0,-4.8,-10.7,277,792,0,,,,
R,,5045821.0,-0.072,1.423,-0.562,-10.8,-0.4,-15.6,110,552,0,,,,
R,,5045880.0,-0.246,0.874,-0.314,-8.6,8.8,-13.0,171,438,0,,,,
R,,5045941.0,0.307,0.418,-0.479,-2.0,8.8,-0.3,267,527,0,,,,
R,,5046002.0,0.067,0.149,-0.362,5.9,11.3,11.4,333,517,0,,,,
R,,5046061.0,0.167,0.444,-0.347,11.1,9.8,23.4,343,516,0,,,,
R,,5046121.0,0.133,1.059,-0.44,17.1,10.1,33.1,359,531,0,,,,
R,,5046210.0,-0.79,2.422,0.06,23.5,10.3,30.8,350,555,0,,,,
R,,5046271.0,-2.105,1.77,0.071,11.0,15.1,9.8,332,557,0,,,,
R,,5046331.0,-1.219,1.416,-0.444,-5.0,0.3,-14.8,398,575,0,,,,
R,,5046391.0,-0.174,1.431,-0.162,-8.2,-6.9,-14.2,521,701,0,,,,
R,,5046451.0,-0.227,0.918,-0.114,-2.0,1.7,-12.0,529,797,0,,,,
R,,5046510.0,-0.098,0.896,-0.335,-2.6,-4.0,-5.2,606,811,0,,,,
R,,5046571.0,0.01,1.038,-0.199,-2.2,-2.8,-3.1,616,822,0,,,,
R,,5046630.0,-0.096,0.931,-0.345,-2.3,-3.1,-2.7,618,823,0,,,,
R,,5046691.0,-0.028,1.012,-0.212,-2.3,-2.2,-3.6,614,827,0,,,,
R,,5046752.0,-0.002,0.967,-0.222,-2.8,-1.8,-5.3,614,825,0,,,,
R,,5046811.0,-0.095,0.982,-0.167,-3.0,-1.8,-6.4,539,827,0,,,,
R,,5046871.0,-0.11,1.1,-0.253,-5.2,-2.5,-7.8,466,820,0,,,,
R,,5046931.0,-0.06,1.327,-0.252,-9.6,-2.9,-10.9,413,782,0,,,,
R,,5046991.0,0.203,1.685,-0.509,-13.5,-5.5,-16.6,311,815,0,,,,
R,,5047050.0,0.484,1.398,-0.564,-8.0,-11.5,-18.4,144,571,0,,,,
R,,5047111.0,0.067,0.808,-0.474,-8.2,4.0,-16.2,283,493,0,,,,
R,,5047170.0,0.516,0.125,-0.279,2.8,-2.1,0.7,337,534,0,,,,
R,,5047231.0,0.289,0.22,-0.142,10.4,3.6,12.9,216,571,0,,,,
R,,5047291.0,0.368,0.621,-0.172,15.9,8.5,26.6,347,563,0,,,,
R,,5047351.0,0.209,1.317,-0.232,18.3,11.6,34.2,358,570,0,,,,
R,,5047413.0,-0.387,2.632,-0.265,19.3,11.4,38.4,268,570,0,,,,
R,,5047470.0,-2.064,1.868,-0.028,14.3,6.7,22.0,349,564,0,,,,
R,,5047531.0,-1.775,1.252,0.307,-5.8,-1.9,-11.1,330,554,0,,,,
R,,5047590.0,-0.994,1.978,-0.495,-7.9,-1.1,-19.6,444,725,0,,,,
R,,5047651.0,-0.214,0.496,-0.223,-2.3,1.2,-14.9,604,796,0,,,,
R,,5047710.0,-0.123,0.914,-0.277,-1.8,-1.7,-6.4,609,817,0,,,,
R,,5047771.0,-0.003,1.014,-0.187,-1.0,-3.4,-2.8,634,825,0,,,,
R,,5047831.0,-0.112,0.96,-0.319,-1.7,-3.6,-2.4,625,827,0,,,,
R,,5047891.0,-0.07,0.988,-0.2,-1.7,-2.6,-2.6,615,826,0,,,,
R,,5047951.0,-0.105,0.982,-0.261,-2.4,-3.0,-2.8,600,825,0,,,,
R,,5048010.0,-0.107,1.011,-0.178,-2.8,-1.4,-5.0,578,825,0,,,,
R,,5048071.0,-0.131,1.027,-0.202,-4.0,-1.2,-5.9,455,818,0,,,,
R,,5048132.0,-0.17,1.174,-0.147,-6.0,-1.8,-7.9,423,787,0,,,,
R,,5048191.0,-0.145,1.257,-0.175,-9.1,-2.0,-10.2,326,811,0,,,,
R,,5048250.0,0.11,1.604,-0.472,-13.0,-5.7,-14.4,311,813,0,,,,
R,,5048311.0,0.027,1.316,-0.433,-8.9,-6.7,-19.7,211,735,0,,,,
R,,5048371.0,-0.006,0.738,-0.44,-6.7,4.2,-15.8,216,475,0,,,,
R,,5048431.0,0.466,0.172,-0.332,0.4,-0.6,1.4,337,524,0,,,,
R,,5048491.0,0.201,0.113,-0.176,7.6,4.4,13.8,185,568,0,,,,
R,,5048550.0,0.274,0.437,-0.289,13.8,8.9,25.6,347,534,0,,,,
R,,5048611.0,0.163,1.228,-0.322,17.9,12.8,34.1,329,514,0,,,,
R,,5048670.0,-0.28,2.311,-0.369,20.1,19.4,35.2,341,534,0,,,,
R,,5048731.0,-1.972,1.835,-0.309,14.5,15.7,20.5,321,537,0,,,,
R,,5048791.0,-1.637,1.354,0.264,-3.7,0.1,-6.7,248,516,0,,,,
R,,5048852.0,-0.873,1.255,0.348,-3.4,2.1,-22.4,487,691,0,,,,
R,,5048911.0,-0.314,0.619,-0.245,-3.5,3.4,-14.6,594,799,0,,,,
R,,5048971.0,-0.084,0.854,-0.419,-1.1,-3.3,-4.9,597,817,0,,,,
R,,5049031.0,0.004,1.004,-0.2,-1.1,-2.8,-2.3,596,824,0,,,,
R,,5049090.0,-0.136,0.942,-0.35,-1.0,-2.6,-1.3,604,830,0,,,,
R,,5049151.0,-0.013,1.003,-0.198,-0.5,-1.1,-0.9,621,829,0,,,,
R,,5049210.0,-0.043,0.941,-0.25,-0.9,-1.8,-0.4,599,828,0,,,,
R,,5049271.0,0.015,0.995,-0.245,-2.7,-1.9,-2.6,613,826,0,,,,
R,,5049331.0,-0.065,1.033,-0.251,-5.4,-1.8,-4.4,590,827,0,,,,
R,,5049391.0,-0.008,1.1,-0.235,-7.7,-2.2,-6.8,536,784,0,,,,
R,,5049451.0,-0.072,1.254,-0.166,-10.4,-0.8,-9.9,363,790,0,,,,
R,,5049512.0,0.058,1.594,-0.261,-13.6,-3.0,-13.4,334,812,0,,,,
R,,5049571.0,0.462,1.571,-0.714,-14.1,-6.9,-15.1,210,776,0,,,,
R,,5049630.0,-0.088,1.281,-0.195,-12.6,5.3,-17.0,177,550,0,,,,
R,,5049691.0,-0.356,0.41,-0.434,-8.8,5.3,-6.0,326,486,0,,,,
R,,5049750.0,0.022,0.046,-0.447,0.3,14.4,8.6,334,534,0,,,,
R,,5049811.0,0.0,0.276,-0.501,6.2,12.0,22.3,331,521,0,,,,
R,,5049871.0,-0.035,0.879,-0.629,12.7,14.1,31.5,352,505,0,,,,
R,,5049931.0,-0.4,1.777,-0.899,21.6,16.9,33.5,350,509,0,,,,
R,,5049991.0,-1.156,2.182,-0.298,24.4,18.0,25.1,345,521,0,,,,
R,,5050051.0,-1.988,1.384,0.399,8.1,7.8,2.0,281,532,0,,,,
R,,5050111.0,0.813,0.807,-1.041,-6.3,17.9,-18.5,452,622,0,,,,
R,,5050170.0,-0.336,2.248,-0.15,-6.1,-8.3,-17.2,568,753,0,,,,
R,,5050232.0,-0.183,0.799,-0.454,-3.9,-1.2,-9.8,605,805,0,,,,
R,,5050291.0,0.042,1.012,-0.142,-2.9,-2.8,-4.9,609,821,0,,,,
R,,5050351.0,-0.094,0.989,-0.321,-2.1,-1.7,-4.2,599,830,0,,,,
R,,5050411.0,-0.067,0.988,-0.188,-2.6,-0.9,-3.1,607,827,0,,,,
R,,5050500.0,-0.128,0.959,-0.229,-2.0,-1.9,-1.4,589,821,0,,,,
R,,5050561.0,-0.064,1.092,-0.178,-1.8,-1.9,-1.7,565,819,0,,,,
R,,5050621.0,-0.075,1.011,-0.136,-3.2,-0.9,-3.0,543,813,0,,,,
R,,5050681.0,0.003,1.108,-0.232,-5.6,-2.1,-5.1,504,806,0,,,,
R,,5050741.0,-0.015,1.297,-0.136,-10.5,-1.1,-8.7,297,794,0,,,,
R,,5050801.0,0.085,1.667,-0.32,-15.4,-2.8,-11.6,326,806,0,,,,
R,,5050861.0,0.457,1.55,-0.735,-13.5,-6.4,-15.4,200,646,0,,,,
R,,5050920.0,-0.118,1.188,-0.289,-13.0,8.1,-17.4,169,461,0,,,,
R,,5050982.0,-0.083,0.326,-0.415,-8.7,10.6,-4.1,280,498,0,,,,
R,,5051041.0,-0.056,0.066,-0.441,1.4,15.1,7.2,335,525,0,,,,
R,,5051101.0,0.002,0.281,-0.423,6.5,12.5,21.0,342,520,0,,,,
R,,5051161.0,-0.046,0.843,-0.484,12.0,13.2,30.5,347,528,0,,,,
R,,5051221.0,-0.206,1.626,-0.801,19.3,18.1,34.0,347,504,0,,,,
R,,5051281.0,-1.188,2.456,-0.278,23.1,18.9,25.9,359,522,0,,,,
R,,5051341.0,-1.681,1.528,0.173,10.3,8.2,7.4,309,545,0,,,,
R,,5051401.0,-0.588,1.385,0.37,-8.6,7.0,-19.0,421,587,0,,,,
R,,5051460.0,-1.477,1.831,-0.462,-6.4,-3.5,-19.8,553,740,0,,,,
R,,5051520.0,-0.385,1.029,-0.3,-2.8,1.4,-10.3,599,799,0,,,,
R,,5051581.0,0.162,0.956,-0.067,-3.1,-4.5,-4.3,613,821,0,,,,
R,,5051642.0,-0.149,0.98,-0.387,-2.4,-1.9,-4.1,624,828,0,,,,
R,,5051701.0,-0.037,0.978,-0.196,-2.9,-1.9,-3.0,603,830,0,,,,
R,,5051761.0,-0.066,0.991,-0.207,-2.6,-1.5,-3.1,575,818,0,,,,
R,,5051821.0,-0.08,0.967,-0.133,-4.1,-1.2,-3.5,536,824,0,,,,
R,,5051880.0,-0.102,1.03,-0.118,-3.8,-0.5,-4.2,393,596,0,,,,
R,,5051941.0,-0.154,1.032,-0.207,-5.1,-0.7,-4.5,455,770,0,,,,
R,,5052000.0,-0.03,1.168,-0.136,-7.9,-1.6,-6.9,378,784,0,,,,
R,,5052061.0,-0.014,1.46,-0.256,-11.9,-4.3,-11.5,319,816,0,,,,
R,,5052121.0,0.27,1.951,-0.864,-14.3,-7.2,-16.0,258,792,0,,,,
R,,5052181.0,-0.732,1.25,-0.044,-12.9,-1.8,-20.5,208,669,0,,,,
R,,5052241.0,-0.547,0.552,0.025,-9.9,1.6,-7.1,304,499,0,,,,
R,,5052301.0,0.142,0.115,-0.249,-2.3,13.1,5.3,327,528,0,,,,
R,,5052363.0,0.02,0.112,-0.393,5.0,10.1,19.4,334,537,0,,,,
R,,5052420.0,0.065,0.566,-0.621,12.6,9.8,29.7,291,542,0,,,,
R,,5052481.0,-0.045,1.461,-0.681,20.8,13.6,34.7,360,525,0,,,,
R,,5052541.0,-1.168,2.67,-0.46,26.5,17.2,29.0,366,537,0,,,,
R,,5052601.0,-1.354,1.565,0.071,14.5,5.5,13.0,260,400,0,,,,
R,,5052661.0,-1.037,1.497,0.334,-2.6,3.0,-12.8,317,496,0,,,,
R,,5052721.0,1.295,1.338,0.447,-5.0,3.1,-17.5,411,638,0,,,,
R,,5052781.0,0.749,1.663,0.635,-7.6,11.8,-13.6,512,774,0,,,,
R,,5052841.0,-0.125,0.839,-0.65,-3.6,-5.7,-7.0,610,801,0,,,,
R,,5052901.0,0.01,1.06,-0.137,-2.4,-1.1,-4.6,543,823,0,,,,
R,,5052960.0,-0.161,0.93,-0.342,-1.9,-3.4,-3.0,622,822,0,,,,
R,,5053022.0,-0.066,0.989,-0.232,-2.3,-2.4,-1.9,627,824,0,,,,
R,,5053081.0,-0.096,0.944,-0.246,-2.5,-2.0,-2.3,582,827,0,,,,
R,,5053141.0,-0.121,0.979,-0.238,-2.7,-1.9,-2.4,597,822,0,,,,
R,,5053201.0,-0.078,1.018,-0.19,-4.1,-0.1,-4.8,556,818,0,,,,
R,,5053261.0,-0.113,1.091,-0.241,-5.4,-2.3,-5.8,396,724,0,,,,
R,,5053321.0,-0.071,1.218,-0.253,-9.3,-1.6,-9.4,274,805,0,,,,
R,,5053381.0,-0.03,1.517,-0.386,-13.1,-3.5,-13.7,323,812,0,,,,
R,,5053441.0,0.453,1.99,-0.793,-12.8,-8.1,-16.8,193,785,0,,,,
R,,5053500.0,-0.012,1.491,-0.402,-10.5,0.0,-17.6,107,484,0,,,,
R,,5053561.0,-0.406,0.472,-0.324,-4.6,-5.0,-4.6,323,523,0,,,,
R,,5053621.0,0.114,-0.029,-0.244,4.2,7.3,9.1,338,528,0,,,,
R,,5053681.0,0.154,0.25,-0.335,10.4,8.3,21.1,317,483,0,,,,
R,,5053743.0,0.162,0.836,-0.363,17.8,10.9,30.0,314,512,0,,,,
R,,5053801.0,0.092,1.797,-0.463,24.1,14.2,35.5,316,490,0,,,,
R,,5053861.0,-0.953,2.462,-0.179,20.9,23.1,28.6,348,556,0,,,,
R,,5053921.0,-2.433,1.383,0.494,5.4,-4.7,7.2,361,560,0,,,,
R,,5053981.0,2.016,0.537,-1.653,-6.4,-1.2,-8.4,445,618,0,,,,
R,,5054041.0,-1.223,1.376,-0.15,-4.6,-5.4,-18.1,529,741,0,,,,
R,,5054101.0,-0.306,0.838,-0.428,-3.0,-1.1,-8.9,475,802,0,,,,
R,,5054161.0,0.121,0.87,-0.201,-3.1,-2.4,-4.8,591,811,0,,,,
R,,5054221.0,-0.079,0.95,-0.316,-2.5,-1.1,-3.5,606,819,0,,,,
R,,5054281.0,-0.049,0.957,-0.262,-2.8,-2.9,-1.4,608,824,0,,,,
R,,5054341.0,-0.043,0.936,-0.272,-1.6,0.5,-2.0,612,822,0,,,,
R,,5054401.0,-0.094,0.99,-0.197,-1.8,-2.4,-1.4,606,824,0,,,,
R,,5054462.0,0.025,1.001,-0.223,-3.1,-1.9,-4.5,514,829,0,,,,
R,,5054521.0,-0.085,1.066,-0.306,-6.0,-2.3,-6.5,506,835,0,,,,
R,,5054581.0,-0.035,1.271,-0.321,-11.2,-2.3,-10.3,464,817,0,,,,
R,,5054641.0,0.096,1.656,-0.278,-16.4,-5.3,-11.4,343,809,0,,,,
R,,5054701.0,0.639,1.734,-1.016,-16.4,-7.7,-17.0,192,781,0,,,,
R,,5054761.0,-0.109,1.372,-0.542,-11.2,6.3,-20.8,137,421,0,,,,
R,,5054821.0,-0.358,0.412,-0.404,-5.5,-0.9,-4.7,303,502,0,,,,
R,,5054881.0,0.044,-0.001,-0.274,5.8,5.3,7.8,210,566,0,,,,
R,,5054941.0,0.111,0.233,-0.261,13.0,4.5,21.7,294,554,0,,,,
R,,5055000.0,0.179,0.832,-0.362,20.2,2.4,32.1,317,543,0,,,,
R,,5055061.0,0.089,2.009,-0.363,28.9,4.0,35.2,306,524,0,,,,
R,,5055123.0,-0.805,2.856,0.62,20.4,21.9,24.1,331,509,0,,,,
R,,5055181.0,-2.275,0.728,0.785,-4.6,1.0,-5.3,337,564,0,,,,
R,,5055241.0,3.378,2.081,-0.458,-5.5,3.0,-5.2,439,655,0,,,,
R,,5055301.0,0.409,1.046,0.202,-10.6,1.6,-17.6,520,772,0,,,,
R,,5055361.0,-0.066,0.81,-0.362,-3.6,-3.2,-8.4,568,807,0,,,,
R,,5055421.0,0.015,0.993,-0.284,-2.1,-2.4,-3.4,578,824,0,,,,
R,,5055481.0,-0.11,0.942,-0.416,-2.0,-1.5,-2.8,583,829,0,,,,
R,,5055541.0,-0.012,0.96,-0.198,-2.1,-3.2,-1.0,584,828,0,,,,
R,,5055601.0,-0.107,0.957,-0.276,-1.8,-3.4,-0.9,588,828,0,,,,
R,,5055661.0,-0.023,0.93,-0.25,-2.3,-4.1,-1.6,594,827,0,,,,
R,,5055721.0,-0.045,0.997,-0.276,-3.3,-1.5,-5.0,592,826,0,,,,
R,,5055781.0,0.009,1.075,-0.294,-7.7,-0.7,-8.3,459,792,0,,,,
R,,5055873.0,-0.058,1.538,-0.341,-14.1,-4.4,-12.6,242,696,0,,,,
R,,5055930.0,0.459,2.053,-0.652,-15.9,-7.3,-18.4,256,811,0,,,,
R,,5055991.0,-0.625,1.171,-0.102,-13.3,0.7,-21.8,155,556,0,,,,
R,,5056051.0,-0.444,0.389,-0.081,-9.5,1.9,-9.5,322,516,0,,,,
R,,5056111.0,0.342,0.044,-0.201,-1.1,6.3,8.3,336,532,0,,,,
R,,5056171.0,0.178,0.091,-0.412,3.7,9.5,21.1,353,532,0,,,,
R,,5056231.0,0.041,0.693,-0.636,12.3,10.3,32.0,347,547,0,,,,
R,,5056291.0,-0.128,1.611,-0.717,20.6,21.8,35.1,328,526,0,,,,
R,,5056351.0,-1.088,2.561,-0.531,22.7,21.8,29.9,312,526,0,,,,
R,,5056411.0,-1.974,1.524,0.335,9.3,1.6,7.3,264,516,0,,,,
R,,5056471.0,1.432,0.865,-1.049,-6.1,13.0,-14.6,456,621,0,,,,
R,,5056561.0,-0.153,0.614,0.033,-4.4,4.0,-15.1,468,778,0,,,,
R,,5056623.0,-0.159,0.922,-0.29,-3.6,-6.3,-6.6,600,805,0,,,,
R,,5056681.0,0.014,0.997,-0.137,-1.7,-2.1,-3.5,608,820,0,,,,
R,,5056741.0,-0.13,0.943,-0.346,-2.0,-3.0,-1.6,585,826,0,,,,
R,,5056801.0,0.0,1.002,-0.202,-2.0,-2.6,-1.1,572,830,0,,,,
R,,5056861.0,-0.027,0.977,-0.265,-2.3,-2.1,-1.6,576,826,0,,,,
R,,5056921.0,-0.017,0.966,-0.217,-3.6,-0.9,-3.4,564,826,0,,,,
R,,5056981.0,-0.081,1.032,-0.122,-4.6,-0.4,-4.2,548,828,0,,,,
R,,5057041.0,-0.075,1.098,-0.24,-7.3,-1.1,-5.7,434,744,0,,,,
R,,5057101.0,0.017,1.214,-0.262,-11.8,-1.5,-9.5,350,699,0,,,,
R,,5057161.0,0.216,1.745,-0.368,-16.8,-4.8,-13.8,305,814,0,,,,
R,,5057221.0,0.526,1.438,-0.525,-15.8,0.4,-20.2,197,691,0,,,,
R,,5057283.0,-0.007,0.905,-0.558,-13.8,16.6,-17.0,241,455,0,,,,
R,,5057341.0,0.176,0.133,-0.558,-8.0,17.2,-0.1,298,542,0,,,,
R,,5057401.0,0.0,-0.044,-0.548,-2.6,17.9,14.1,268,554,0,,,,
R,,5057461.0,-0.081,0.273,-0.791,2.4,12.5,30.2,326,534,0,,,,
R,,5057521.0,-0.313,0.935,-0.887,10.5,11.0,37.2,313,486,0,,,,
R,,5057582.0,-0.726,2.031,-1.331,26.9,22.5,30.7,342,486,0,,,,
R,,5057641.0,-1.527,2.231,0.404,20.0,14.6,22.2,315,497,0,,,,
R,,5057701.0,-2.04,1.368,0.441,6.0,10.9,-6.9,204,543,0,,,,
R,,5057761.0,3.087,2.069,0.454,-7.8,14.6,-9.3,442,654,0,,,,
R,,5057821.0,0.357,0.861,0.15,-6.4,11.1,-16.6,565,767,0,,,,
R,,5057881.0,-0.252,0.807,-0.565,-4.2,-6.2,-8.3,591,799,0,,,,
R,,5057941.0,0.057,1.205,-0.119,-2.3,-1.9,-5.4,616,817,0,,,,
R,,5058002.0,-0.116,0.987,-0.427,-2.7,-2.5,-2.1,564,828,0,,,,
R,,5058061.0,0.025,1.0,-0.114,-2.5,-0.9,-3.1,602,829,0,,,,
R,,5058121.0,-0.074,0.977,-0.219,-2.3,-1.5,-2.9,616,827,0,,,,
R,,5058181.0,-0.058,0.994,-0.131,-2.8,-0.9,-3.7,579,799,0,,,,
R,,5058241.0,-0.108,1.035,-0.168,-4.0,-0.7,-4.8,528,774,0,,,,
R,,5058301.0,-0.012,1.145,-0.165,-6.2,-1.8,-6.2,428,740,0,,,,
R,,5058361.0,0.024,1.362,-0.123,-10.2,-1.4,-10.9,272,716,0,,,,
R,,5058421.0,0.187,1.635,-0.493,-15.1,-4.6,-14.7,272,808,0,,,,
R,,5058481.0,0.242,1.565,-0.584,-12.0,-3.0,-19.7,120,669,0,,,,
R,,5058541.0,0.165,0.985,-0.577,-10.6,12.0,-16.4,133,529,0,,,,
R,,5058601.0,0.169,0.237,-0.507,-4.7,11.8,0.8,279,469,0,,,,
R,,5058661.0,0.037,0.019,-0.478,1.2,14.8,13.8,314,518,0,,,,
R,,5058722.0,0.124,0.409,-0.784,6.8,16.6,27.7,329,511,0,,,,
R,,5058781.0,-0.223,0.923,-1.099,15.1,15.2,34.6,273,528,0,,,,
R,,5058841.0,-0.505,2.109,-1.039,26.2,13.2,34.3,336,508,0,,,,
R,,5058901.0,-0.921,2.163,0.264,20.9,13.3,21.1,324,527,0,,,,
R,,5058961.0,-1.831,1.616,0.671,0.7,2.0,-8.6,348,562,0,,,,
R,,5059021.0,2.889,1.832,-0.093,-3.4,2.6,-9.7,420,639,0,,,,
R,,5059082.0,0.057,2.008,0.295,-9.2,1.6,-13.2,575,777,0,,,,
R,,5059141.0,-0.047,0.84,-0.391,-3.7,-1.0,-9.9,593,808,0,,,,
R,,5059201.0,-0.056,0.988,-0.209,-3.5,-1.9,-5.3,616,818,0,,,,
R,,5059261.0,-0.052,0.955,-0.307,-2.1,-1.3,-3.8,626,824,0,,,,
R,,5059321.0,-0.051,1.093,-0.283,-2.0,-2.4,-2.3,627,824,0,,,,
R,,5059382.0,-0.088,1.01,-0.242,-1.6,-1.7,-3.0,618,826,0,,,,
R,,5059441.0,-0.038,0.988,-0.187,-1.5,-3.1,-4.3,553,827,0,,,,
R,,5059501.0,-0.155,1.035,-0.253,-3.6,-2.0,-5.9,565,801,0,,,,
R,,5059561.0,-0.05,1.148,-0.287,-6.8,-3.3,-8.4,427,780,0,,,,
R,,5059622.0,-0.036,1.553,-0.334,-11.0,-5.5,-12.9,333,760,0,,,,
R,,5059681.0,0.361,2.055,-0.757,-15.0,-8.6,-20.4,204,816,0,,,,
R,,5059771.0,0.212,1.259,-0.493,-10.2,8.1,-18.3,100,276,0,,,,
R,,5059832.0,0.342,0.209,-0.387,-2.7,1.0,1.6,284,450,0,,,,
R,,5059891.0,0.103,0.02,-0.212,5.2,5.5,13.6,344,526,0,,,,
R,,5059951.0,0.165,0.424,-0.361,11.3,8.4,26.7,334,504,0,,,,
R,,5060011.0,0.108,1.141,-0.477,18.7,9.3,35.8,321,543,0,,,,
R,,5060071.0,-0.253,2.401,-0.488,24.6,15.7,35.1,335,502,0,,,,
R,,5060132.0,-1.869,2.053,-0.485,18.0,14.3,22.0,327,532,0,,,,
R,,5060191.0,-1.493,1.89,0.459,-4.4,-5.3,-8.0,300,536,0,,,,
R,,5060251.0,-1.19,1.788,-0.071,-1.8,4.3,-25.1,498,681,0,,,,
R,,5060311.0,-0.178,0.57,0.165,-3.1,-0.8,-15.7,542,775,0,,,,
R,,5060372.0,-0.219,0.856,-0.473,-3.0,-3.7,-8.6,580,805,0,,,,
R,,5060431.0,0.065,1.014,-0.198,-2.6,-3.1,-3.9,611,819,0,,,,
R,,5060491.0,-0.158,0.936,-0.372,-1.5,-1.9,-3.5,588,828,0,,,,
R,,5060551.0,-0.027,1.007,-0.236,-2.7,-0.8,-3.2,614,826,0,,,,
R,,5060611.0,0.0,0.962,-0.22,-1.7,-2.1,-2.9,569,827,0,,,,
R,,5060671.0,-0.1,0.991,-0.246,-1.4,-2.1,-4.2,585,825,0,,,,
R,,5060731.0,-0.183,1.036,-0.313,-3.4,-3.0,-4.9,596,820,0,,,,
R,,5060792.0,-0.016,1.154,-0.359,-6.4,-3.4,-8.8,480,813,0,,,,
R,,5060851.0,-0.077,1.475,-0.364,-10.6,-4.1,-14.3,358,823,0,,,,
R,,5060912.0,0.397,2.039,-0.884,-13.9,-7.9,-22.1,252,813,0,,,,
R,,5060971.0,-0.731,1.258,0.037,-10.6,-1.6,-25.4,178,560,0,,,,
R,,5061031.0,-0.715,0.429,-0.208,-4.8,-6.7,-9.1,311,516,0,,,,
R,,5061091.0,0.301,0.035,-0.2,0.3,0.7,8.7,342,529,0,,,,
R,,5061181.0,0.148,0.33,-0.35,9.5,10.4,27.1,357,527,0,,,,
R,,5061241.0,0.107,1.033,-0.568,15.3,11.4,36.8,344,530,0,,,,
R,,5061301.0,-0.205,2.423,-0.689,22.5,20.1,37.8,345,505,0,,,,
R,,5061361.0,-1.811,2.182,-0.279,22.6,14.7,24.8,328,521,0,,,,
R,,5061421.0,-1.974,1.272,0.585,-4.4,-1.9,-9.3,355,563,0,,,,
R,,5061481.0,-0.832,1.535,0.504,-3.3,-0.4,-21.3,458,661,0,,,,
R,,5061542.0,0.085,1.044,0.141,-4.9,5.1,-16.3,588,775,0,,,,
R,,5061601.0,-0.213,0.841,-0.263,-4.8,-4.1,-8.7,590,808,0,,,,
R,,5061662.0,0.0,1.021,-0.171,-1.5,-3.5,-4.1,618,820,0,,,,
R,,5061721.0,-0.186,0.941,-0.384,-2.2,-3.3,-2.9,557,830,0,,,,
R,,5061811.0,-0.068,0.969,-0.206,-2.2,-2.3,-2.0,605,827,0,,,,
R,,5061872.0,-0.08,1.001,-0.175,-1.9,-2.7,-1.8,606,824,0,,,,
R,,5061931.0,-0.021,0.994,-0.16,-2.8,-1.9,-3.6,564,827,0,,,,
R,,5061992.0,-0.092,1.086,-0.267,-5.2,-1.9,-5.8,437,763,0,,,,
R,,5062051.0,-0.007,1.263,-0.28,-9.8,-0.9,-11.1,400,812,0,,,,
R,,5062111.0,0.094,1.808,-0.467,-16.0,-3.2,-16.6,270,817,0,,,,
R,,5062170.0,0.63,2.003,-0.912,-14.2,-8.7,-18.6,234,782,0,,,,
R,,5062231.0,0.297,1.249,-0.548,-13.6,7.2,-16.6,137,487,0,,,,
R,,5062292.0,-0.102,0.311,-0.398,-10.1,6.2,-0.9,305,518,0,,,,
R,,5062351.0,0.126,-0.043,-0.285,-2.8,14.6,12.2,332,498,0,,,,
R,,5062412.0,0.101,0.293,-0.578,1.5,20.0,24.9,329,494,0,,,,
R,,5062471.0,-0.067,0.882,-0.972,6.9,16.9,35.4,297,505,0,,,,
R,,5062531.0,-0.384,1.819,-1.24,19.2,16.1,37.8,347,495,0,,,,
R,,5062591.0,-1.645,2.355,-0.084,25.0,9.4,28.8,332,511,0,,,,
R,,5062651.0,-2.222,1.422,0.436,5.4,10.8,-0.6,266,559,0,,,,
R,calibration,5062711.0,3.894,1.931,-0.029,-9.0,16.9,-6.3,426,647,9,,,,
R,calibration,5062771.0,0.594,1.28,0.209,-11.9,-1.5,-19.2,575,770,0,,,,
R,calibration,5062832.0,0.005,0.894,-0.382,-4.8,-1.2,-9.7,611,813,0,,,,
R,calibration,5062891.0,0.032,0.971,-0.119,-3.5,-1.7,-5.0,598,827,0,,,,
R,calibration,5062953.0,-0.162,0.993,-0.321,-2.2,-2.2,-4.5,566,831,0,,,,
R,calibration,5063011.0,-0.141,1.021,-0.181,-1.9,-0.7,-3.4,611,823,0,,,,
R,calibration,5063071.0,-0.149,0.919,-0.114,-1.6,-1.4,-2.8,596,808,0,,,,
R,calibration,5063131.0,-0.147,0.984,-0.128,-1.6,-0.9,-2.2,570,809,0,,,,
R,calibration,5063191.0,-0.122,0.981,-0.115,-1.9,-1.6,-2.3,520,770,0,,,,
R,calibration,5063251.0,-0.129,1.026,-0.207,-3.5,-1.9,-3.7,479,755,0,,,,
R,calibration,5063311.0,-0.039,1.158,-0.148,-6.6,-1.8,-6.7,352,816,0,,,,
R,calibration,5063372.0,-0.045,1.516,-0.239,-12.1,-2.2,-11.0,367,812,0,,,,
R,calibration,5063431.0,0.27,1.934,-0.677,-15.8,-3.4,-15.6,281,799,0,,,,
R,calibration,5063492.0,-0.565,1.128,0.168,-9.7,-4.6,-21.4,136,609,0,,,,
R,calibration,5063551.0,-0.146,0.44,-0.366,-11.0,8.0,-11.3,199,446,0,,,,
R,calibration,5063611.0,0.192,0.204,-0.321,-2.1,12.5,3.0,302,539,0,,,,
R,calibration,5063672.0,0.06,0.134,-0.394,3.4,12.7,16.2,329,534,0,,,,
R,calibration,5063731.0,0.137,0.515,-0.481,10.0,10.5,28.6,328,526,0,,,,
R,calibration,5063791.0,-0.007,1.265,-0.623,16.3,13.1,35.9,335,531,0,,,,
R,calibration,5063851.0,-0.645,2.31,-0.957,24.5,19.1,34.0,294,465,0,,,,
R,calibration,5063912.0,-0.953,2.14,0.086,17.1,8.3,20.1,251,406,0,,,,
R,calibration,5063971.0,-1.227,1.336,0.342,-0.4,4.3,-16.3,314,528,0,,,,
R,calibration,5064032.0,1.139,1.648,0.102,-6.6,6.7,-18.3,462,634,0,,,,
R,calibration,5064091.0,-0.628,0.897,-0.339,-0.9,-6.8,-18.1,573,739,0,,,,
R,calibration,5064151.0,-0.081,1.008,-0.338,-0.6,1.4,-11.9,574,800,0,,,,
R,calibration,5064211.0,-0.05,0.998,-0.286,-2.4,-3.8,-4.4,626,817,0,,,,
R,calibration,5064271.0,-0.054,0.993,-0.203,-1.1,-1.1,-3.6,630,823,0,,,,
R,calibration,5064332.0,-0.142,0.937,-0.249,-1.2,-1.7,-1.1,560,832,0,,,,
R,calibration,5064393.0,-0.089,0.944,-0.216,-0.5,-0.7,-1.0,622,828,0,,,,
R,calibration,5064452.0,-0.118,0.958,-0.233,-0.9,-2.0,-0.1,615,827,0,,,,
R,calibration,5064511.0,-0.022,0.977,-0.208,-1.6,-1.9,-1.0,598,798,0,,,,
R,calibration,5064572.0,-0.027,1.043,-0.244,-3.9,-0.8,-5.5,601,820,0,,,,
R,calibration,5064631.0,-0.017,1.148,-0.274,-8.1,-2.6,-8.4,477,790,0,,,,
R,calibration,5064691.0,-0.065,1.394,-0.26,-12.2,-3.4,-11.8,370,815,0,,,,
R,calibration,5064751.0,0.185,1.744,-0.448,-15.5,-6.9,-16.6,270,819,0,,,,
R,calibration,5064811.0,-0.057,1.234,-0.578,-11.7,1.6,-23.2,112,699,0,,,,
R,calibration,5064872.0,-0.045,0.712,-0.286,-12.7,14.5,-14.9,224,503,0,,,,
R,calibration,5064931.0,0.281,0.174,-0.519,-4.3,10.2,3.5,307,539,0,,,,
R,calibration,5064992.0,0.044,0.024,-0.438,0.3,11.2,17.0,245,550,0,,,,
R,calibration,5065053.0,0.101,0.392,-0.632,7.4,12.2,29.0,356,523,0,,,,
R,calibration,5065111.0,-0.009,1.173,-0.754,15.6,12.1,36.7,350,520,0,,,,
R,calibration,5065171.0,-0.378,2.477,-0.788,25.2,18.4,33.6,323,526,0,,,,
R,calibration,5065231.0,-1.568,2.096,-0.164,14.3,14.9,18.6,346,532,0,,,,
R,calibration,5065291.0,-1.683,1.496,0.262,-3.5,1.8,-12.3,316,587,0,,,,
R,calibration,5065351.0,-0.971,1.44,0.074,-6.1,-5.3,-18.6,425,674,0,,,,
R,calibration,5065412.0,0.304,1.541,0.609,-3.7,0.4,-12.2,553,772,0,,,,
R,calibration,5065471.0,-0.169,0.843,-0.558,-1.3,-1.3,-7.1,596,801,0,,,,
R,calibration,5065532.0,0.061,0.926,-0.239,-0.6,-2.6,-3.3,613,811,0,,,,
R,calibration,5065591.0,-0.079,0.923,-0.353,-0.4,-1.7,-1.8,597,819,0,,,,
R,calibration,5065651.0,-0.001,0.978,-0.233,-1.1,-4.2,-0.1,616,817,0,,,,
R,calibration,5065711.0,-0.015,0.96,-0.307,-1.4,-2.7,-1.5,617,813,0,,,,
R,calibration,5065773.0,-0.002,0.962,-0.241,-2.1,-1.6,-3.4,617,815,0,,,,
R,calibration,5065832.0,-0.048,1.002,-0.238,-2.8,-0.1,-6.5,611,816,0,,,,
R,calibration,5065891.0,-0.016,1.124,-0.226,-5.8,-2.2,-8.1,558,820,0,,,,
R,calibration,5065952.0,-0.162,1.14,-0.384,-8.4,-2.7,-10.8,305,663,0,,,,
R,calibration,5066011.0,0.025,1.572,-0.348,-11.8,-6.3,-13.5,332,821,0,,,,
R,calibration,5066072.0,1.008,2.042,-0.626,-15.1,-3.7,-19.3,245,810,0,,,,
R,calibration,5066131.0,-0.309,1.36,-0.359,-13.0,9.3,-19.9,181,556,0,,,,
R,calibration,5066191.0,-0.142,0.302,-0.447,-10.3,2.3,-4.1,336,521,0,,,,
R,calibration,5066251.0,0.061,0.0,-0.286,-3.7,7.2,9.8,311,522,0,,,,
R,calibration,5066311.0,0.028,0.223,-0.41,2.1,12.2,21.5,352,507,0,,,,
R,calibration,5066372.0,-0.048,0.655,-0.686,8.3,16.5,30.1,377,534,0,,,,
R,calibration,5066431.0,-0.181,1.508,-0.742,15.6,16.4,36.5,371,510,0,,,,
R,calibration,5066493.0,-1.112,2.398,-0.663,19.5,16.7,29.7,374,525,0,,,,
R,calibration,5066551.0,-1.863,1.576,0.353,9.8,-8.2,10.9,362,565,0,,,,
R,calibration,5066612.0,0.936,0.718,-1.086,-5.1,1.8,-11.8,455,608,0,,,,
R,calibration,5066671.0,-1.02,1.34,-0.308,-4.6,-6.9,-16.7,535,732,0,,,,
R,calibration,5066731.0,-0.166,0.988,-0.383,-0.9,2.5,-10.9,541,790,0,,,,
R,calibration,5066791.0,0.128,0.969,-0.138,-1.6,-3.7,-4.7,556,816,0,,,,
R,calibration,5066851.0,-0.113,0.963,-0.377,-1.1,-1.4,-4.4,618,821,0,,,,
R,calibration,5066912.0,-0.063,0.996,-0.243,-1.0,-1.3,-3.1,608,825,0,,,,
R,calibration,5066971.0,-0.098,0.977,-0.276,-1.2,-1.9,-3.0,626,825,0,,,,
R,calibration,5067032.0,-0.12,0.955,-0.316,-1.4,-3.6,-3.0,579,824,0,,,,
R,calibration,5067091.0,-0.169,0.964,-0.233,-2.7,-3.7,-5.5,595,826,0,,,,
R,calibration,5067153.0,-0.148,1.037,-0.335,-3.3,-4.5,-4.1,447,738,0,,,,
R,calibration,5067211.0,-0.121,1.108,-0.329,-5.7,-3.1,-7.1,443,775,0,,,,
R,calibration,5067271.0,-0.093,1.217,-0.325,-8.4,-1.0,-12.4,390,816,0,,,,
R,calibration,5067332.0,0.063,1.626,-0.535,-11.3,-6.0,-17.6,269,810,0,,,,
R,calibration,5067391.0,0.1,1.429,-0.619,-6.1,-14.1,-20.9,228,739,0,,,,
R,calibration,5067452.0,-0.434,0.918,-0.434,-5.0,-9.0,-15.7,211,397,0,,,,
R,calibration,5067511.0,0.583,0.35,-0.063,2.9,-0.5,-2.8,324,513,0,,,,
R,calibration,5067572.0,0.273,0.304,0.017,8.7,7.0,9.6,334,550,0,,,,
R,calibration,5067662.0,0.331,0.646,-0.132,15.6,8.1,29.7,365,540,0,,,,
R,calibration,5067721.0,-0.117,1.464,-0.449,20.0,5.0,38.2,368,537,0,,,,
R,calibration,5067782.0,-0.69,2.32,-0.268,21.6,12.7,34.8,339,518,0,,,,
R,calibration,5067841.0,-2.011,1.679,0.228,9.2,12.3,13.3,336,541,0,,,,
R,calibration,5067903.0,-0.19,1.324,-0.812,-5.4,-5.5,-14.4,406,565,0,,,,
R,calibration,5067961.0,-0.328,1.738,-0.122,-6.7,-8.8,-15.0,530,710,0,,,,
R,calibration,5068021.0,-0.31,0.805,-0.384,-1.8,2.1,-12.6,507,796,0,,,,
R,calibration,5068082.0,-0.14,0.948,-0.308,-2.6,-4.6,-5.0,612,813,0,,,,
R,calibration,5068141.0,-0.011,1.004,-0.251,-1.2,-0.4,-3.8,626,821,0,,,,
R,calibration,5068202.0,-0.127,0.958,-0.327,-2.1,-4.0,-1.4,633,824,0,,,,
R,calibration,5068261.0,-0.063,0.964,-0.211,-1.6,-2.2,-1.7,631,827,0,,,,
R,calibration,5068322.0,-0.06,0.969,-0.244,-2.1,-3.5,-1.7,623,828,0,,,,
R,calibration,5068381.0,-0.033,1.024,-0.221,-3.4,-2.0,-4.3,617,828,0,,,,
R,calibration,5068442.0,-0.084,1.066,-0.238,-5.4,-2.2,-5.5,594,823,0,,,,
R,calibration,5068501.0,-0.023,1.196,-0.255,-8.5,-2.5,-8.7,477,814,0,,,,
R,calibration,5068563.0,-0.056,1.528,-0.295,-12.4,-3.3,-13.5,311,822,0,,,,
R,calibration,5068622.0,0.354,1.972,-0.702,-16.4,-6.1,-18.3,263,803,0,,,,
R,calibration,5068711.0,-0.016,1.088,-0.384,-11.0,8.9,-17.7,259,549,0,,,,
R,calibration,5068771.0,0.413,0.031,-0.512,-3.8,4.2,1.0,296,530,0,,,,
R,calibration,5068832.0,0.097,0.026,-0.4,4.7,7.8,13.7,320,528,0,,,,
R,calibration,5068891.0,0.134,0.387,-0.435,10.2,10.6,26.8,358,524,0,,,,
R,calibration,5068952.0,0.053,1.136,-0.565,16.8,12.5,36.3,366,528,0,,,,
R,calibration,5069011.0,-0.306,2.407,-0.775,23.6,21.9,32.6,350,513,0,,,,
R,calibration,5069072.0,-1.696,2.175,-0.229,18.4,18.6,18.9,334,519,0,,,,
R,calibration,5069131.0,-1.815,1.491,0.321,-3.6,0.5,-9.8,354,538,0,,,,
R,calibration,5069192.0,-0.87,1.131,0.57,-2.5,0.6,-21.0,474,653,0,,,,
R,calibration,5069251.0,-0.028,1.285,0.413,-3.0,3.1,-14.4,584,777,0,,,,
R,calibration,5069313.0,-0.072,0.931,-0.276,-2.1,-3.1,-5.9,614,812,0,,,,
R,calibration,5069372.0,0.034,0.988,-0.199,-1.8,-2.6,-3.1,626,820,0,,,,
R,calibration,5069431.0,-0.076,0.959,-0.332,-1.7,-2.3,-2.0,638,826,0,,,,
R,calibration,5069492.0,0.031,1.018,-0.201,-1.9,-2.9,-0.9,634,827,0,,,,
R,calibration,5069551.0,-0.028,0.97,-0.275,-2.3,-1.7,-1.8,623,826,0,,,,
R,calibration,5069641.0,-0.051,1.051,-0.164,-4.9,-0.8,-5.9,593,828,0,,,,
R,calibration,5069701.0,-0.093,1.04,-0.211,-6.2,-0.6,-6.2,572,812,0,,,,
R,calibration,5069761.0,-0.031,1.134,-0.108,-8.3,-1.0,-7.4,482,807,0,,,,
R,calibration,5069822.0,-0.059,1.342,-0.149,-11.6,-1.4,-9.8,411,808,0,,,,
R,calibration,5069881.0,0.187,1.851,-0.59,-14.6,-5.8,-15.0,271,802,0,,,,
R,calibration,5069942.0,-0.648,1.199,-0.208,-12.3,0.4,-21.2,134,575,0,,,,
R,calibration,5070001.0,-0.157,0.598,-0.411,-11.0,12.0,-12.8,239,466,0,,,,
R,calibration,5070063.0,0.192,0.231,-0.397,-4.4,15.8,1.9,270,489,0,,,,
R,calibration,5070122.0,0.087,0.094,-0.52,1.8,16.9,15.1,314,540,0,,,,
R,calibration,5070181.0,0.031,0.43,-0.626,6.7,13.2,29.4,359,511,0,,,,
R,calibration,5070242.0,-0.096,1.226,-0.757,14.3,12.8,37.9,326,521,0,,,,
R,calibration,5070301.0,-0.82,2.252,-0.908,25.1,24.9,30.0,348,494,0,,,,
R,calibration,5070362.0,-1.77,1.651,-0.058,15.1,8.9,15.8,311,455,0,,,,
R,calibration,5070421.0,-1.303,1.622,0.432,-0.1,10.5,-14.1,326,554,0,,,,
R,calibration,5070482.0,-1.571,1.629,0.392,-1.0,1.8,-26.8,546,713,0,,,,
R,calibration,5070541.0,-0.144,0.711,-0.543,-1.5,5.0,-14.9,598,784,0,,,,
R,calibration,5070601.0,-0.15,0.918,-0.226,-3.7,-3.6,-6.1,568,815,0,,,,
R,calibration,5070662.0,0.039,1.02,-0.17,-1.6,0.1,-5.6,613,825,0,,,,
R,calibration,5070723.0,-0.111,0.981,-0.224,-3.0,-2.0,-3.4,607,831,0,,,,
R,calibration,5070782.0,-0.08,0.964,-0.212,-2.9,-1.0,-2.0,617,830,0,,,,
R,calibration,5070841.0,-0.122,0.975,-0.17,-2.2,-1.4,-1.2,592,825,0,,,,
R,calibration,5070902.0,-0.116,0.967,-0.088,-1.4,-1.9,-1.3,568,794,0,,,,
R,calibration,5070961.0,-0.045,0.996,-0.129,-3.0,-0.8,-2.0,561,809,0,,,,
R,calibration,5071051.0,0.024,1.178,-0.148,-7.9,-0.8,-5.8,441,804,0,,,,
R,calibration,5071112.0,-0.007,1.534,-0.317,-11.7,-0.2,-11.9,376,807,0,,,,
R,calibration,5071171.0,0.224,2.049,-0.764,-14.8,-5.6,-15.2,248,796,0,,,,
R,calibration,5071232.0,-0.507,1.227,-0.135,-12.1,0.5,-19.7,128,563,0,,,,
R,calibration,5071291.0,-0.222,0.504,-0.394,-9.2,8.1,-12.1,280,487,0,,,,
R,calibration,5071351.0,0.141,0.256,-0.411,-3.3,18.9,-1.5,336,532,0,,,,
R,calibration,5071412.0,0.007,0.139,-0.461,3.6,15.6,13.6,301,549,0,,,,
R,calibration,5071473.0,0.108,0.543,-0.451,9.2,10.3,28.0,293,544,0,,,,
R,calibration,5071532.0,-0.026,1.231,-0.61,15.9,9.3,36.1,337,551,0,,,,
R,calibration,5071591.0,-0.642,2.255,-0.508,27.4,12.4,32.2,364,542,0,,,,
R,calibration,5071652.0,-1.503,1.746,0.261,10.9,13.5,15.4,310,568,0,,,,
R,calibration,5071711.0,-1.366,1.449,0.67,-2.4,4.8,-12.6,404,568,0,,,,
R,calibration,5071801.0,0.418,0.784,0.483,-7.4,-3.6,-17.9,557,774,0,,,,
R,calibration,5071862.0,-0.034,0.89,-0.422,-3.6,-2.0,-7.4,569,812,0,,,,
R,calibration,5071952.0,0.0,0.978,-0.219,-1.2,-1.0,-4.3,583,829,0,,,,
R,calibration,5072011.0,-0.061,0.942,-0.248,-2.7,-2.5,-2.6,623,829,0,,,,
R,calibration,5072072.0,-0.037,1.003,-0.193,-2.5,-1.7,-2.4,629,828,0,,,,
R,calibration,5072131.0,-0.091,0.982,-0.19,-2.5,-1.9,-2.8,589,827,0,,,,
R,calibration,5072192.0,-0.104,1.036,-0.178,-2.6,-1.3,-3.5,613,827,0,,,,
R,calibration,5072253.0,-0.119,1.029,-0.206,-4.1,-1.4,-4.7,591,818,0,,,,
R,calibration,5072312.0,-0.022,1.158,-0.171,-6.7,-2.0,-7.3,482,734,0,,,,
R,calibration,5072372.0,-0.075,1.335,-0.196,-10.8,-3.1,-10.2,356,817,0,,,,
R,calibration,5072431.0,0.153,1.649,-0.578,-14.9,-4.6,-15.2,323,801,0,,,,
R,calibration,5072492.0,-0.165,1.188,-0.273,-9.1,-5.6,-20.2,219,678,0,,,,
R,calibration,5072551.0,-0.16,0.628,-0.292,-9.5,6.4,-13.6,281,488,0,,,,
R,calibration,5072612.0,0.349,0.095,-0.314,0.9,4.8,1.5,318,540,0,,,,
R,calibration,5072671.0,0.105,0.032,-0.265,7.6,8.0,12.7,299,561,0,,,,
R,calibration,5072732.0,0.171,0.414,-0.272,14.6,7.6,25.2,367,553,0,,,,
R,calibration,5072791.0,0.139,1.223,-0.304,19.2,7.4,33.6,361,559,0,,,,
R,calibration,5072852.0,-0.403,2.412,-0.301,25.1,9.9,33.7,358,568,0,,,,
R,calibration,5072914.0,-1.397,1.953,-0.163,16.5,14.8,17.7,355,553,0,,,,
R,calibration,5072971.0,-1.539,1.422,0.415,-2.4,-1.2,-6.4,312,483,0,,,,
R,calibration,5073032.0,-0.447,1.59,0.473,-4.1,2.5,-20.6,503,680,0,,,,
R,calibration,5073091.0,-0.053,0.487,-0.062,-3.4,3.5,-19.6,589,791,0,,,,
R,calibration,5073152.0,-0.135,0.808,-0.495,-2.9,-3.1,-6.0,615,818,0,,,,
R,calibration,5073211.0,0.029,1.038,-0.132,-1.9,-1.6,-3.9,617,827,0,,,,
R,calibration,5073272.0,-0.04,0.983,-0.316,-2.7,-3.3,-3.4,616,833,0,,,,
R,calibration,5073332.0,-0.069,0.983,-0.227,-2.9,-1.3,-3.7,611,832,0,,,,
R,calibration,5073392.0,-0.113,0.97,-0.216,-3.0,-1.2,-4.0,538,828,0,,,,
R,calibration,5073452.0,-0.174,0.961,-0.132,-2.6,-0.7,-3.5,572,820,0,,,,
R,calibration,5073511.0,-0.171,0.979,-0.13,-2.4,-0.8,-2.6,550,817,0,,,,
R,calibration,5073571.0,-0.151,1.041,-0.204,-3.1,-2.0,-3.0,538,814,0,,,,
R,calibration,5073633.0,-0.096,1.082,-0.226,-6.2,-2.1,-6.2,449,807,0,,,,
R,calibration,5073692.0,-0.083,1.438,-0.279,-10.8,-3.0,-9.9,368,811,0,,,,
R,calibration,5073751.0,0.102,1.627,-0.58,-13.2,-4.4,-15.5,274,796,0,,,,
R,calibration,5073812.0,-0.504,1.087,0.074,-7.2,-7.0,-20.7,205,590,0,,,,
R,calibration,5073872.0,-0.386,0.689,-0.166,-7.1,-1.7,-11.7,322,500,0,,,,
R,calibration,5073931.0,0.257,0.144,-0.153,1.9,-3.2,2.8,350,538,0,,,,
R,calibration,5074022.0,0.239,0.405,-0.147,12.3,4.2,19.6,293,580,0,,,,
R,calibration,5074082.0,-0.178,1.082,-0.096,16.5,5.2,23.2,395,587,0,,,,
R,calibration,5074142.0,-0.336,1.318,-0.131,19.7,4.1,25.4,413,598,0,,,,
R,calibration,5074202.0,-0.122,1.797,0.038,18.5,13.3,20.0,385,579,0,,,,
R,calibration,5074261.0,-1.217,1.467,-0.393,11.8,17.6,10.4,343,561,0,,,,
R,calibration,5074322.0,-0.829,1.178,0.077,1.6,2.8,-1.0,370,585,0,,,,
R,calibration,5074383.0,1.276,0.695,-0.751,-3.5,-2.7,-7.5,437,619,0,,,,
R,calibration,5074442.0,-0.469,1.739,-0.618,-0.8,-1.3,-14.2,574,739,0,,,,
R,calibration,5074501.0,-0.3,0.881,-0.16,-2.8,-2.4,-7.7,587,795,0,,,,
R,calibration,5074562.0,0.0,0.886,-0.274,-0.4,-4.2,-2.6,616,814,0,,,,
R,calibration,5074622.0,-0.032,0.957,-0.371,0.3,-1.4,-2.0,630,827,0,,,,
R,calibration,5074682.0,-0.01,0.974,-0.329,-0.8,-2.9,-0.9,634,831,0,,,,
R,calibration,5074742.0,-0.04,0.955,-0.329,-0.9,-1.3,-1.1,639,833,0,,,,
R,calibration,5074801.0,-0.046,0.93,-0.283,-1.0,-1.3,-0.5,631,833,0,,,,
R,calibration,5074862.0,-0.029,0.958,-0.266,-1.2,-1.0,-0.9,628,834,0,,,,
R,calibration,5074952.0,-0.043,0.971,-0.28,-1.6,-1.7,-1.6,639,835,0,,,,
R,calibration,5075011.0,-0.009,0.978,-0.301,-2.7,-1.1,-4.1,632,836,0,,,,
R,calibration,5075103.0,-0.092,1.116,-0.314,-6.2,0.0,-7.8,556,834,0,,,,
R,calibration,5075162.0,-0.095,1.302,-0.231,-8.0,-4.4,-8.9,515,815,0,,,,
R,calibration,5075222.0,0.025,1.293,-0.002,-9.7,-4.9,-10.9,353,809,0,,,,
R,calibration,5075282.0,-0.099,1.157,-0.107,-8.7,-3.3,-13.1,237,765,0,,,,
R,calibration,5075341.0,-0.51,0.886,0.204,-5.6,0.6,-12.8,41,162,0,,,,
R,calibration,5075401.0,-0.106,0.188,-0.059,-4.6,4.2,-5.0,333,533,0,,,,
R,calibration,5075461.0,0.142,0.246,-0.068,0.0,1.6,9.5,378,566,0,,,,
R,calibration,5075522.0,0.095,0.547,0.0,1.4,-0.3,21.4,215,569,0,,,,
R,calibration,5075582.0,-0.488,1.249,0.181,4.7,8.8,19.5,334,609,0,,,,
R,calibration,5075642.0,-0.916,1.268,-0.122,5.1,21.5,10.7,290,638,0,,,,
R,calibration,5075732.0,0.802,0.743,0.103,0.8,0.5,0.1,464,729,0,,,,
R,calibration,5075791.0,-0.277,0.995,-0.049,3.2,-2.4,0.7,545,780,0,,,,
R,calibration,5075853.0,-0.176,0.975,-0.138,3.0,-2.4,2.2,520,805,0,,,,
R,calibration,5075942.0,-0.084,0.993,-0.131,1.9,0.0,2.1,623,815,0,,,,
R,calibration,5076001.0,-0.081,0.993,-0.165,2.6,-0.5,1.9,586,825,0,,,,
R,calibration,5076062.0,-0.057,0.987,-0.205,2.0,-1.7,2.2,583,827,0,,,,
R,calibration,5076122.0,-0.021,0.974,-0.209,1.8,-0.8,1.5,627,826,0,,,,
R,calibration,5076182.0,0.002,0.995,-0.214,1.0,-1.0,1.1,590,827,0,,,,
R,calibration,5076242.0,-0.008,0.982,-0.235,0.7,-0.3,0.0,552,835,0,,,,
R,calibration,5076301.0,-0.028,0.976,-0.238,0.3,-0.4,-0.4,539,834,0,,,,
R,calibration,5076362.0,-0.036,0.969,-0.223,0.3,-0.2,-0.2,561,835,0,,,,
R,calibration,5076452.0,-0.036,0.963,-0.23,0.9,0.0,0.7,601,834,0,,,,
R,calibration,5076512.0,-0.011,0.988,-0.243,1.2,0.0,0.7,606,826,0,,,,
R,calibration,5076574.0,0.025,0.969,-0.313,0.0,0.9,-0.9,570,822,0,,,,
R,calibration,5076631.0,-0.04,0.99,-0.23,-1.2,0.7,-2.2,589,819,0,,,,
R,calibration,5076692.0,-0.051,0.964,-0.228,-1.3,-0.4,-1.9,635,820,0,,,,
R,calibration,5076751.0,-0.085,0.962,-0.207,-0.5,-0.1,-1.3,640,823,0,,,,
R,calibration,5076812.0,-0.079,0.965,-0.207,0.2,-0.8,0.1,644,826,0,,,,
R,calibration,5076872.0,-0.05,0.974,-0.215,0.4,-0.6,0.5,643,828,0,,,,
R,calibration,5076932.0,-0.04,0.975,-0.23,0.4,-0.8,0.8,644,827,0,,,,
R,calibration,5076992.0,-0.043,0.976,-0.224,0.3,-0.5,0.4,647,832,0,,,,
R,calibration,5077052.0,-0.028,0.972,-0.232,0.3,-0.4,0.5,643,829,0,,,,
R,calibration,5077112.0,-0.03,0.973,-0.234,0.3,-0.2,0.4,642,828,0,,,,
R,calibration,5077202.0,-0.018,0.983,-0.247,0.0,-0.3,0.2,641,827,0,,,,
R,calibration,5077262.0,-0.022,0.973,-0.238,0.0,-0.3,0.0,637,823,0,,,,
R,calibration,5077324.0,-0.023,0.965,-0.237,0.0,-0.3,-0.1,635,824,0,,,,
R,calibration,5077381.0,-0.017,0.982,-0.233,0.0,-0.3,0.0,634,823,0,,,,
R,calibration,5077442.0,-0.002,0.977,-0.226,0.7,2.6,-0.6,631,824,0,,,,
R,calibration,5077501.0,-0.019,0.975,-0.233,0.4,0.1,0.4,626,817,0,,,,
R,calibration,5077562.0,-0.013,0.97,-0.25,0.3,-0.1,0.5,618,811,0,,,,
R,calibration,5077622.0,-0.001,0.97,-0.257,0.1,-0.5,0.4,616,811,0,,,,
R,calibration,5077682.0,0.004,0.977,-0.244,0.0,-0.6,0.1,608,810,0,,,,
R,calibration,5077742.0,-0.003,0.972,-0.244,0.0,-0.5,0.0,602,817,0,,,,
R,calibration,5077832.0,0.005,0.968,-0.243,0.0,-0.7,0.1,598,815,0,,,,
R,calibration,5077892.0,0.003,0.97,-0.25,0.0,-0.4,0.0,605,817,0,,,,
R,calibration,5077952.0,0.0,0.97,-0.248,-0.1,-0.9,0.0,622,815,0,,,,
R,calibration,5078012.0,0.0,0.972,-0.241,-0.3,-1.4,0.0,627,816,0,,,,
R,calibration,5078074.0,-0.006,0.975,-0.243,-0.2,-1.2,0.0,629,820,0,,,,
R,calibration,5078131.0,-0.015,0.969,-0.244,-0.2,-0.9,-0.1,627,819,0,,,,
R,calibration,5078192.0,0.012,0.977,-0.226,-0.1,-0.6,-0.3,630,819,0,,,,
R,calibration,5078251.0,-0.007,0.972,-0.243,0.0,-0.3,-0.4,631,821,0,,,,
R,calibration,5078312.0,0.0,0.975,-0.234,-0.1,-0.1,-0.6,633,820,0,,,,
R,calibration,5078372.0,-0.011,0.973,-0.238,-0.4,-0.2,-0.7,631,820,0,,,,
R,calibration,5078432.0,-0.005,0.977,-0.23,-0.5,-0.1,-0.9,636,822,0,,,,
R,calibration,5078492.0,-0.03,0.975,-0.214,-0.5,-0.4,-0.7,638,826,0,,,,
R,calibration,5078552.0,-0.02,0.983,-0.202,-0.4,-0.6,-0.7,632,820,0,,,,
R,calibration,5078612.0,-0.034,0.975,-0.205,-0.3,-0.5,-0.6,640,822,0,,,,
R,calibration,5078671.0,-0.04,0.977,-0.203,-0.2,-0.5,-0.5,638,823,0,,,,
R,calibration,5078733.0,-0.042,0.976,-0.2,-0.1,-0.5,-0.3,557,827,0,,,,
R,calibration,5078791.0,-0.041,0.98,-0.204,-0.1,-0.6,-0.1,570,830,0,,,,
R,calibration,5078852.0,-0.043,0.977,-0.211,-0.1,-0.5,-0.2,563,829,0,,,,
R,calibration,5078912.0,-0.04,0.981,-0.198,-0.1,-0.4,-0.3,606,830,0,,,,
R,calibration,5079013.0,-0.053,0.966,-0.209,0.0,-0.5,-0.2,634,829,0,,,,
R,calibration,5079032.0,-0.047,0.977,-0.198,0.0,-0.4,-0.2,637,832,0,,,,
R,calibration,5079092.0,-0.056,0.978,-0.191,0.0,-0.4,-0.1,605,832,0,,,,
R,calibration,5079152.0,-0.053,0.977,-0.197,0.0,-0.5,0.0,620,831,0,,,,
R,calibration,5079211.0,-0.055,0.98,-0.197,0.1,-0.5,0.0,626,830,0,,,,
R,calibration,5079272.0,-0.053,0.977,-0.196,0.1,-0.5,0.0,631,831,0,,,,
R,calibration,5079362.0,-0.064,0.978,-0.21,0.0,-0.9,0.3,633,832,0,,,,
R,calibration,5079421.0,-0.04,0.98,-0.189,0.0,-0.8,0.3,637,831,0,,,,
R,calibration,5079484.0,-0.037,0.982,-0.198,0.2,-0.3,0.1,637,831,0,,,,
R,calibration,5079541.0,-0.049,0.976,-0.203,0.3,-0.1,0.0,633,831,0,,,,
R,calibration,5079602.0,-0.034,0.981,-0.199,0.2,-0.2,0.0,631,834,0,,,,
R,calibration,5079662.0,-0.035,0.978,-0.206,0.3,0.0,-0.1,644,833,0,,,,
R,calibration,5079722.0,-0.044,0.975,-0.205,0.4,0.0,0.1,649,833,0,,,,
R,calibration,5079782.0,-0.047,0.978,-0.22,0.4,-0.2,0.5,638,834,0,,,,
R,calibration,5079842.0,-0.027,0.977,-0.206,0.5,-0.3,0.6,660,832,0,,,,
R,calibration,5079902.0,-0.024,0.979,-0.221,0.6,-0.3,0.7,661,831,0,,,,
R,calibration,5079961.0,-0.012,0.975,-0.233,0.4,-0.5,0.6,660,827,0,,,,
R,calibration,5080022.0,0.0,0.977,-0.233,0.1,-0.4,0.3,661,828,0,,,,
R,calibration,5080082.0,-0.005,0.975,-0.229,0.1,-0.1,-0.1,662,827,0,,,,
R,calibration,5080142.0,-0.007,0.974,-0.228,0.1,-0.2,0.0,662,823,0,,,,
R,calibration,5080204.0,-0.009,0.974,-0.226,0.1,-0.2,0.0,660,828,0,,,,
R,calibration,5080262.0,-0.01,0.975,-0.233,0.1,-0.3,0.0,660,826,0,,,,
R,calibration,5080322.0,-0.002,0.982,-0.229,0.0,-0.5,0.0,664,829,0,,,,
R,calibration,5080382.0,-0.016,0.974,-0.232,0.0,-0.9,0.5,660,827,0,,,,
R,calibration,5080442.0,0.0,0.965,-0.244,0.1,-0.6,0.3,660,828,0,,,,
R,calibration,5080501.0,0.002,0.965,-0.232,0.3,-0.9,0.4,662,827,0,,,,
R,calibration,5080562.0,0.01,0.971,-0.226,0.5,-0.6,0.2,662,830,0,,,,
R,calibration,5080622.0,0.01,0.97,-0.247,0.7,-0.2,0.2,666,830,0,,,,
R,calibration,5080682.0,0.02,0.968,-0.244,0.7,0.2,-0.1,662,829,0,,,,
R,calibration,5080742.0,0.017,0.97,-0.263,0.3,0.1,-0.3,656,826,0,,,,
R,calibration,5080802.0,0.001,0.975,-0.241,0.0,-0.2,-0.3,650,825,0,,,,
R,calibration,5080864.0,0.01,0.975,-0.243,-0.3,-0.7,-0.2,649,826,0,,,,
R,calibration,5080922.0,0.005,0.971,-0.238,-0.1,-0.5,-0.2,647,826,0,,,,
R,calibration,5080982.0,0.002,0.969,-0.247,0.0,-0.4,-0.3,648,824,0,,,,
R,calibration,5081041.0,0.0,0.968,-0.241,0.0,-0.4,-0.2,650,826,0,,,,
R,calibration,5081102.0,0.01,0.973,-0.24,-0.1,-0.4,-0.3,652,827,0,,,,
R,calibration,5081162.0,-0.002,0.972,-0.243,-0.2,-0.5,-0.4,652,828,0,,,,
R,calibration,5081222.0,0.004,0.973,-0.236,-0.1,-0.4,-0.5,659,826,0,,,,
R,calibration,5081282.0,-0.023,0.97,-0.238,-0.1,-0.5,-0.2,660,827,0,,,,
R,calibration,5081342.0,0.0,0.97,-0.227,0.0,-0.8,0.0,660,827,0,,,,
R,calibration,5081402.0,-0.009,0.972,-0.234,0.2,-0.4,0.0,663,827,0,,,,
R,calibration,5081492.0,-0.005,0.973,-0.24,0.1,-0.4,0.0,665,829,0,,,,
R,calibration,5081552.0,-0.004,0.972,-0.243,0.1,-0.4,0.0,664,829,0,,,,
R,calibration,5081614.0,-0.001,0.973,-0.244,0.1,-0.3,-0.1,664,829,0,,,,
R,calibration,5081672.0,-0.007,0.972,-0.237,0.0,-0.3,-0.2,663,828,0,,,,
R,calibration,5081732.0,0.001,0.972,-0.241,0.0,-0.5,-0.1,665,827,0,,,,
R,calibration,5081791.0,-0.008,0.971,-0.235,-0.1,-0.4,-0.3,664,829,0,,,,
R,calibration,5081882.0,-0.005,0.973,-0.235,0.0,-0.3,-0.3,664,828,0,,,,
R,calibration,5081942.0,-0.004,0.971,-0.234,0.0,-0.4,-0.4,667,829,0,,,,
R,calibration,5082001.0,-0.018,0.971,-0.232,0.0,-0.3,-0.3,663,829,0,,,,
R,calibration,5082062.0,-0.019,0.97,-0.233,0.2,-0.3,-0.2,663,830,0,,,,
R,calibration,5082122.0,-0.017,0.972,-0.237,0.3,-0.3,-0.1,665,831,0,,,,
R,calibration,5082182.0,-0.016,0.969,-0.245,0.3,-0.3,-0.2,663,831,0,,,,
R,calibration,5082242.0,-0.013,0.97,-0.243,0.2,-0.1,-0.5,664,831,0,,,,
R,calibration,5082332.0,-0.018,0.973,-0.246,0.0,-0.3,-0.7,665,829,0,,,,
R,calibration,5082393.0,-0.031,0.966,-0.241,0.0,-0.3,-0.8,668,830,0,,,,
R,calibration,5082452.0,-0.017,0.955,-0.213,0.3,-0.3,-1.0,665,830,0,,,,
R,calibration,5082512.0,-0.069,0.95,-0.268,0.7,0.2,-1.2,658,828,0,,,,
R,calibration,5082572.0,-0.057,0.947,-0.27,0.9,0.3,-0.6,648,828,0,,,,
R,calibration,5082632.0,-0.06,0.988,-0.263,1.0,0.1,0.0,651,826,0,,,,
R,calibration,5082722.0,-0.059,0.962,-0.311,0.4,-0.2,0.9,654,829,0,,,,
R,calibration,5082782.0,-0.013,0.963,-0.303,-1.1,-0.9,0.3,658,827,0,,,,
R,calibration,5082872.0,-0.029,0.971,-0.267,-2.5,-0.2,-1.1,650,827,0,,,,
R,calibration,5082931.0,-0.029,0.979,-0.211,-3.3,-0.7,-2.1,607,829,0,,,,
R,calibration,5082992.0,-0.058,1.006,-0.251,-4.5,0.3,-3.5,628,826,0,,,,
R,calibration,5083052.0,-0.093,1.025,-0.243,-7.1,-1.0,-3.8,651,825,0,,,,
R,calibration,5083114.0,-0.087,1.157,-0.154,-8.4,-3.8,-5.0,523,821,0,,,,
R,calibration,5083172.0,0.083,1.393,-0.069,-8.4,-1.0,-6.8,492,784,0,,,,
R,calibration,5083232.0,-0.059,1.13,-0.191,-9.0,1.5,-9.2,449,676,0,,,,
R,calibration,5083291.0,-0.501,0.914,0.071,-6.4,0.9,-8.8,441,613,0,,,,
R,calibration,5083352.0,0.054,0.481,-0.112,-3.0,9.2,-2.4,457,600,0,,,,
R,calibration,5083412.0,-0.144,0.61,-0.113,2.0,6.8,3.8,469,611,0,,,,
R,calibration,5083472.0,-0.282,0.897,0.02,3.3,1.4,9.4,472,614,0,,,,
R,calibration,5083532.0,-0.336,1.037,0.088,4.6,1.2,9.4,480,625,0,,,,
R,calibration,5083592.0,-0.317,1.133,0.129,3.5,6.3,6.3,479,623,0,,,,
R,calibration,5083652.0,-0.297,1.023,-0.008,1.8,6.7,4.7,481,622,0,,,,
R,calibration,5083712.0,-0.257,0.971,-0.076,1.6,3.9,4.2,478,617,0,,,,
R,calibration,5083772.0,-0.153,0.975,-0.109,2.1,4.4,3.0,476,614,0,,,,
R,calibration,5083833.0,-0.127,0.955,-0.199,3.2,6.6,1.6,472,603,0,,,,
R,calibration,5083892.0,-0.07,0.959,-0.245,4.2,8.3,0.4,466,599,0,,,,
R,calibration,5083952.0,0.014,0.975,-0.26,4.7,9.3,0.3,459,590,0,,,,
R,calibration,5084012.0,0.073,0.954,-0.257,5.7,8.6,1.3,431,573,0,,,,
R,calibration,5084072.0,-0.03,1.015,-0.128,6.0,8.7,1.8,422,573,0,,,,
R,calibration,5084132.0,-0.146,1.014,0.006,4.2,9.6,0.8,411,589,0,,,,
R,calibration,5084192.0,-0.346,0.945,0.022,0.2,5.9,-2.7,389,591,0,,,,
R,calibration,5084252.0,0.127,0.459,-0.909,-1.2,-0.9,-2.0,485,697,0,,,,
R,calibration,5084312.0,0.188,0.796,-0.402,0.8,-2.8,-8.1,601,792,0,,,,
R,calibration,5084402.0,-0.045,0.947,-0.339,0.7,-2.7,-1.6,617,809,0,,,,
R,calibration,5084462.0,0.021,0.975,-0.302,0.6,0.1,-2.3,614,816,0,,,,
R,calibration,5084524.0,-0.06,0.983,-0.305,-0.5,0.1,-2.7,569,827,0,,,,
R,calibration,5084583.0,-0.023,1.006,-0.276,-1.3,0.5,-3.8,643,825,0,,,,
R,calibration,5084642.0,-0.136,0.978,-0.238,-1.2,-1.7,-2.0,599,834,0,,,,
R,calibration,5084702.0,-0.127,0.991,-0.203,-1.2,-0.9,-1.6,649,831,0,,,,
R,calibration,5084792.0,-0.105,0.98,-0.225,-1.6,-1.5,-1.8,643,833,0,,,,
R,calibration,5084852.0,-0.121,0.98,-0.247,-2.3,-1.1,-2.4,650,836,0,,,,
R,calibration,5084912.0,-0.162,0.968,-0.183,-2.6,-0.8,-2.8,614,837,0,,,,
R,calibration,5084972.0,-0.18,0.987,-0.166,-3.1,-0.6,-3.0,413,845,0,,,,
R,calibration,5085032.0,-0.214,1.054,-0.181,-4.3,-1.3,-3.5,598,832,0,,,,
R,calibration,5085092.0,-0.225,1.057,-0.181,-5.6,-2.4,-4.3,523,808,0,,,,
R,calibration,5085152.0,-0.121,1.291,-0.082,-7.8,-4.3,-5.4,392,733,0,,,,
R,calibration,5085212.0,0.096,1.435,-0.25,-9.3,-5.3,-9.5,222,825,0,,,,
R,calibration,5085274.0,-0.013,1.351,-0.297,-8.2,0.2,-14.6,150,754,0,,,,
R,calibration,5085333.0,-0.358,1.003,-0.148,-8.6,3.7,-15.6,239,618,0,,,,
R,calibration,5085392.0,-0.061,0.213,-0.256,-3.0,-0.3,-2.3,339,548,0,,,,
R,calibration,5085452.0,-0.062,0.162,-0.147,2.8,1.1,7.3,349,552,0,,,,
R,calibration,5085512.0,-0.176,0.495,-0.094,6.8,3.6,16.1,361,558,0,,,,
R,calibration,5085572.0,-0.328,1.037,-0.081,10.7,5.6,19.3,374,572,0,,,,
R,calibration,5085632.0,-0.435,1.295,-0.217,11.8,10.3,18.9,386,574,0,,,,
R,calibration,5085692.0,-0.308,1.329,-0.289,11.9,13.5,17.0,404,593,0,,,,
R,calibration,5085752.0,-0.198,1.29,-0.353,10.9,8.9,14.0,374,595,0,,,,
R,calibration,5085812.0,-0.322,1.266,-0.016,8.5,6.3,8.9,373,580,0,,,,
R,calibration,5085873.0,-0.297,1.025,-0.015,4.1,11.6,1.1,355,591,0,,,,
R,calibration,5085932.0,-0.397,0.99,-0.014,-1.5,7.9,-7.7,340,596,0,,,,
R,calibration,5085994.0,1.036,0.714,-0.927,1.5,-2.0,-8.1,457,618,0,,,,
R,calibration,5086051.0,1.156,4.487,1.435,-31.5,-0.9,-0.3,596,795,9,,,,
R,calibration,5086112.0,-0.617,0.974,-0.394,-2.3,2.8,-8.3,628,819,0,,,,
R,calibration,5086172.0,-0.155,0.92,-0.322,-0.2,-1.4,-3.2,636,828,0,,,,
R,calibration,5086232.0,-0.031,0.986,-0.184,-0.4,-0.1,-2.5,533,840,0,,,,
R,calibration,5086292.0,-0.111,0.932,-0.264,-0.7,-1.3,-1.0,639,836,0,,,,
R,calibration,5086352.0,-0.125,0.914,-0.202,-0.3,-0.8,-0.3,643,839,0,,,,
R,calibration,5086412.0,-0.077,0.98,-0.253,-0.6,-1.0,0.0,585,841,0,,,,
R,calibration,5086472.0,-0.053,0.934,-0.326,-0.4,-1.7,0.4,585,841,0,,,,
R,calibration,5086532.0,-0.091,0.968,-0.218,-1.2,-0.8,0.5,577,840,0,,,,
R,calibration,5086592.0,-0.084,0.962,-0.227,-1.4,-1.0,-0.4,639,835,0,,,,
R,calibration,5086654.0,-0.047,0.986,-0.221,-2.6,-0.7,-1.8,633,834,0,,,,
R,calibration,5086712.0,-0.11,0.98,-0.202,-3.1,0.0,-2.8,590,835,0,,,,
R,calibration,5086772.0,-0.129,0.985,-0.152,-3.5,-0.6,-2.7,620,831,0,,,,
R,calibration,5086833.0,-0.156,0.986,-0.117,-4.1,-1.0,-2.3,578,810,0,,,,
R,calibration,5086892.0,-0.166,1.021,-0.158,-5.6,-2.1,-2.5,486,825,0,,,,
R,calibration,5086952.0,-0.099,1.324,-0.164,-9.0,-2.4,-4.4,296,823,0,,,,
R,calibration,5087012.0,0.104,1.344,-0.068,-10.4,-2.8,-9.6,370,776,0,,,,
R,calibration,5087072.0,-0.284,1.049,-0.162,-7.3,4.4,-11.8,300,664,0,,,,
R,calibration,5087132.0,-0.465,0.991,-0.049,-8.0,0.8,-10.3,370,593,0,,,,
R,calibration,5087192.0,-0.078,0.509,-0.242,-1.9,4.6,-1.9,315,540,0,,,,
R,calibration,5087252.0,-0.217,0.635,0.001,2.5,4.2,3.8,314,578,0,,,,
R,calibration,5087312.0,-0.442,0.732,0.085,5.0,2.4,8.7,317,584,0,,,,
R,calibration,5087374.0,-0.648,0.996,0.245,5.8,3.7,6.3,286,592,0,,,,
R,calibration,5087432.0,-0.704,1.022,0.263,3.7,3.7,3.7,307,600,0,,,,
R,calibration,5087492.0,-0.478,0.845,0.16,3.1,3.3,2.7,238,621,0,,,,
R,calibration,5087552.0,-0.204,0.746,0.075,4.4,4.7,8.1,165,637,0,,,,
R,calibration,5087612.0,0.074,0.311,0.077,4.7,5.4,11.1,28,656,0,,,,
R,calibration,5087672.0,0.681,0.65,-0.26,10.1,10.7,25.8,468,581,0,,,,
R,calibration,5087732.0,1.262,0.191,-0.711,-2.9,1.6,-1.2,188,712,0,,,,
R,calibration,5087792.0,-0.096,1.074,-0.161,0.8,-0.7,0.0,297,679,0,,,,
R,calibration,5087852.0,0.187,0.992,-0.211,0.1,-1.5,0.1,367,609,0,,,,
R,calibration,5087913.0,-0.033,1.083,-0.114,-1.6,-1.4,-5.0,439,588,0,,,,
R,calibration,5087972.0,0.044,1.023,-0.199,-1.6,-2.7,-3.3,389,604,0,,,,
R,calibration,5088032.0,-0.036,0.983,-0.133,-1.3,-1.0,-2.8,474,592,0,,,,
R,calibration,5088093.0,-0.096,0.971,-0.11,-0.8,-0.8,-3.0,453,602,0,,,,
R,calibration,5088152.0,-0.108,0.935,-0.095,-1.3,-2.5,-2.3,492,595,0,,,,
R,calibration,5088212.0,-0.095,0.959,-0.085,-1.2,-0.8,-2.4,362,620,0,,,,
R,calibration,5088272.0,-0.13,0.92,-0.124,-0.5,1.0,-1.8,446,604,0,,,,
R,calibration,5088333.0,-0.148,0.937,-0.163,-0.2,-0.4,-1.2,450,611,0,,,,
R,calibration,5088392.0,-0.11,1.005,-0.146,0.4,0.7,-0.4,479,614,0,,,,
R,calibration,5088453.0,-0.183,0.924,-0.115,0.0,-0.5,-1.2,483,612,0,,,,
R,calibration,5088512.0,-0.157,0.994,-0.117,0.3,0.0,-1.0,488,617,0,,,,
R,calibration,5088572.0,-0.143,0.943,-0.104,0.3,0.0,-0.4,423,629,0,,,,
R,calibration,5088632.0,-0.09,0.93,-0.087,0.6,-0.3,0.6,444,625,0,,,,
R,calibration,5088692.0,-0.129,1.003,-0.081,0.7,0.8,0.6,478,625,0,,,,
R,calibration,5088753.0,-0.164,1.023,-0.123,0.2,1.4,-0.1,418,634,0,,,,
R,calibration,5088812.0,-0.168,1.027,-0.119,0.0,0.7,-0.9,360,641,0,,,,
R,calibration,5088873.0,-0.167,0.99,-0.138,0.1,0.4,-0.5,458,628,0,,,,
R,calibration,5088932.0,-0.134,0.972,-0.126,-0.1,-0.1,-0.4,476,628,0,,,,
R,calibration,5088993.0,0.103,0.691,-0.131,0.3,0.6,1.3,483,630,0,,,,
R,calibration,5089052.0,0.609,0.517,-0.406,5.5,2.7,19.4,471,606,0,,,,
R,calibration,5089112.0,0.17,0.815,-0.236,1.1,2.9,-1.9,507,686,0,,,,
R,calibration,5089172.0,-0.135,1.014,-0.247,0.5,-0.3,2.0,498,703,0,,,,
R,calibration,5089232.0,0.151,0.945,-0.208,0.6,-0.9,0.9,400,719,0,,,,
R,calibration,5089292.0,0.026,0.99,-0.286,-0.5,-1.1,-0.9,322,730,0,,,,
R,calibration,5089352.0,0.025,1.001,-0.156,-1.0,-0.7,-1.5,344,732,0,,,,
R,calibration,5089413.0,-0.067,0.979,-0.168,-0.7,-1.2,-1.0,387,728,0,,,,
R,calibration,5089474.0,-0.044,1.009,-0.12,-1.0,-1.2,-1.1,433,716,0,,,,
R,calibration,5089532.0,-0.086,1.056,-0.162,-1.0,-0.9,-2.5,442,698,0,,,,
R,calibration,5089592.0,-0.078,1.011,-0.142,-1.2,-1.1,-2.6,391,644,0,,,,
R,calibration,5089652.0,-0.047,1.041,-0.218,-1.1,-0.2,-2.7,415,601,0,,,,
R,calibration,5089712.0,-0.126,1.062,-0.154,-0.9,-0.2,-3.0,387,601,0,,,,
R,calibration,5089772.0,-0.121,0.978,-0.12,-0.9,-0.3,-2.5,416,594,0,,,,
R,calibration,5089833.0,-0.072,0.934,-0.11,-0.9,-0.6,-1.6,344,613,0,,,,
R,calibration,5089892.0,-0.057,0.914,-0.124,-0.4,0.8,-0.7,355,614,0,,,,
R,calibration,5089953.0,-0.062,0.912,-0.141,0.5,1.8,0.4,322,612,0,,,,
R,calibration,5090012.0,-0.053,0.968,-0.145,1.4,2.0,2.2,396,605,0,,,,
R,calibration,5090072.0,-0.07,1.004,-0.162,1.6,2.2,2.6,394,610,0,,,,
R,calibration,5090132.0,-0.094,1.0,-0.19,1.7,2.5,2.1,401,613,0,,,,
R,calibration,5090194.0,-0.05,0.949,-0.17,1.7,1.7,1.9,426,612,0,,,,
R,calibration,5090252.0,-0.054,0.937,-0.166,2.2,2.0,2.5,468,606,0,,,,
R,calibration,5090312.0,-0.069,0.931,-0.086,2.3,3.4,2.3,477,609,0,,,,
R,calibration,5090373.0,-0.207,0.918,-0.077,2.1,6.6,0.9,486,614,0,,,,
R,calibration,5090432.0,-0.091,0.612,-0.115,0.9,2.9,1.5,377,639,0,,,,
R,calibration,5090493.0,0.582,2.187,0.466,-6.5,-2.3,-0.3,428,668,0,,,,
R,calibration,5090552.0,-0.476,0.504,-0.413,5.6,-5.1,-4.8,426,741,0,,,,
R,calibration,5090612.0,-0.014,0.976,0.287,-2.5,-0.5,-0.5,494,787,0,,,,
R,calibration,5090672.0,0.03,0.979,-0.193,2.7,-1.5,1.1,356,812,0,,,,
R,calibration,5090732.0,-0.074,0.932,-0.316,2.2,-1.2,1.8,337,822,0,,,,
R,calibration,5090792.0,0.052,0.971,-0.305,1.6,-1.3,0.5,534,811,0,,,,
R,calibration,5090854.0,-0.062,0.944,-0.336,1.7,0.1,0.3,489,815,0,,,,
R,calibration,5090913.0,-0.034,0.975,-0.32,0.4,-1.6,1.4,508,818,0,,,,
R,calibration,5090972.0,0.01,0.939,-0.351,0.3,-1.3,0.3,538,822,0,,,,
R,calibration,5091033.0,0.02,0.971,-0.327,-1.4,-1.1,-0.7,517,825,0,,,,
R,calibration,5091092.0,-0.01,0.954,-0.306,-2.3,-0.6,-2.3,553,825,0,,,,
R,calibration,5091182.0,-0.061,0.961,-0.286,-2.2,0.0,-2.9,557,831,0,,,,
R,calibration,5091243.0,-0.091,0.973,-0.223,-1.8,0.0,-2.6,513,836,0,,,,
R,calibration,5091333.0,-0.124,0.973,-0.243,-1.6,-0.3,-2.2,559,834,0,,,,
R,calibration,5091392.0,-0.137,0.967,-0.247,-2.1,-1.7,-1.8,506,840,0,,,,
R,calibration,5091453.0,-0.119,0.97,-0.226,-3.0,-2.5,-1.9,484,839,0,,,,
R,calibration,5091512.0,-0.133,1.029,-0.202,-4.6,-2.3,-2.6,469,839,0,,,,
R,calibration,5091602.0,-0.172,1.095,-0.13,-6.3,-2.4,-5.0,391,816,0,,,,
R,calibration,5091664.0,-0.183,1.087,-0.059,-7.3,-1.9,-6.1,367,809,0,,,,
R,calibration,5091722.0,-0.199,1.186,-0.086,-7.4,-2.2,-7.2,282,803,0,,,,
R,calibration,5091783.0,-0.143,1.24,-0.117,-8.1,-4.2,-8.8,227,774,0,,,,
R,calibration,5091842.0,-0.244,1.131,-0.118,-5.9,-3.8,-10.6,136,720,0,,,,
R,calibration,5091902.0,-0.472,0.875,-0.057,-6.4,1.0,-10.9,12,297,0,,,,
R,calibration,5091962.0,-0.045,0.366,-0.093,-3.5,1.6,-1.6,323,504,0,,,,
R,calibration,5092022.0,0.039,0.315,-0.195,1.1,8.1,6.9,277,533,0,,,,
R,calibration,5092083.0,-0.009,0.63,-0.183,4.3,9.8,15.2,183,572,0,,,,
R,calibration,5092142.0,-0.035,1.04,-0.181,5.5,16.5,19.4,291,543,0,,,,
R,calibration,5092203.0,-0.103,1.47,-0.343,7.8,30.2,16.8,275,552,0,,,,
R,calibration,5092262.0,-0.481,1.489,-0.441,2.5,42.9,10.3,357,546,0,,,,
R,calibration,5092354.0,-1.23,0.959,-0.523,1.4,22.5,-1.0,192,607,0,,,,
R,calibration,5092413.0,-1.519,0.896,-0.851,1.2,10.8,-9.7,289,602,0,,,,
R,calibration,5092472.0,-0.089,0.673,-0.427,2.6,-2.1,-5.2,488,775,0,,,,
R,calibration,5092533.0,-0.056,0.97,-0.07,1.9,3.6,-5.1,574,819,0,,,,
R,calibration,5092592.0,-0.088,0.94,-0.26,0.6,-1.0,-1.4,547,833,0,,,,
R,calibration,5092652.0,-0.087,0.971,-0.156,0.6,2.0,-1.8,572,831,0,,,,
R,calibration,5092712.0,-0.076,1.056,-0.214,0.0,0.7,-1.0,583,835,0,,,,
R,calibration,5092772.0,-0.133,0.985,-0.215,-0.3,1.4,-1.0,597,835,0,,,,
R,calibration,5092833.0,-0.11,1.029,-0.124,-1.1,0.3,-0.1,602,835,0,,,,
R,calibration,5092892.0,-0.029,1.121,-0.194,-1.6,-0.1,-0.4,567,837,0,,,,
R,calibration,5092953.0,-0.072,0.955,-0.293,-3.0,0.8,-1.8,555,838,0,,,,
R,calibration,5093012.0,-0.131,1.001,-0.197,-4.1,0.5,-1.5,534,839,0,,,,
R,calibration,5093074.0,-0.133,1.013,-0.109,-5.1,-1.1,-0.8,575,833,0,,,,
R,calibration,5093132.0,-0.086,1.117,-0.009,-6.3,-2.4,-0.9,462,826,0,,,,
R,calibration,5093192.0,0.055,1.266,-0.02,-8.4,-2.2,-2.2,401,796,0,,,,
R,calibration,5093252.0,0.058,1.218,0.02,-9.3,1.3,-4.3,342,672,0,,,,
R,calibration,5093312.0,-0.15,0.897,0.043,-7.0,7.5,-5.9,291,520,0,,,,
R,calibration,5093373.0,-0.118,0.692,0.174,-7.3,8.1,-2.5,269,418,0,,,,
R,calibration,5093432.0,-0.106,0.577,-0.302,-1.9,22.5,0.9,293,447,0,,,,
R,calibration,5093493.0,-0.223,0.788,-0.222,1.6,13.6,6.2,274,486,0,,,,
R,calibration,5093552.0,-0.171,0.986,-0.107,3.5,6.6,8.6,327,486,0,,,,
R,calibration,5093613.0,-0.045,1.079,-0.018,6.2,11.1,7.1,317,501,0,,,,
R,calibration,5093672.0,-0.113,1.146,-0.01,4.7,19.2,4.6,353,529,0,,,,
R,calibration,5093732.0,-0.268,1.056,-0.121,4.2,23.7,2.4,287,556,0,,,,
R,calibration,5093793.0,-0.533,0.96,-0.153,2.8,18.0,0.0,299,566,0,,,,
R,calibration,5093852.0,-0.54,0.877,-0.143,1.8,3.0,0.4,362,551,0,,,,
R,calibration,5093913.0,-0.203,0.738,-0.399,6.1,-4.9,1.1,459,627,0,,,,
R,calibration,5093972.0,0.036,1.142,0.26,-0.6,1.4,-2.8,562,775,0,,,,
R,calibration,5094033.0,0.02,0.983,-0.219,1.6,-0.6,-0.9,599,796,0,,,,
R,calibration,5094092.0,-0.023,0.954,-0.214,0.9,0.2,-1.0,613,805,0,,,,
R,calibration,5094153.0,-0.04,1.0,-0.202,1.5,0.0,-0.7,620,814,0,,,,
R,calibration,5094212.0,-0.05,0.969,-0.222,1.5,-0.6,-0.2,629,819,0,,,,
R,calibration,5094272.0,-0.042,0.955,-0.252,1.5,-1.0,-0.4,634,821,0,,,,
R,calibration,5094333.0,-0.046,0.955,-0.238,1.1,-1.2,-0.6,638,825,0,,,,
R,calibration,5094392.0,-0.033,0.971,-0.273,0.7,-0.7,-1.4,603,830,0,,,,
R,calibration,5094454.0,-0.086,0.971,-0.265,0.4,0.0,-1.7,642,831,0,,,,
R,calibration,5094512.0,-0.083,0.967,-0.277,0.0,-0.4,-1.2,631,834,0,,,,
R,calibration,5094573.0,-0.121,0.956,-0.282,-0.2,-0.3,-1.1,648,833,0,,,,
R,calibration,5094632.0,-0.097,0.954,-0.249,-0.4,-0.6,-0.7,658,837,0,,,,
R,calibration,5094693.0,-0.117,0.958,-0.24,-0.3,-0.5,-0.7,601,837,0,,,,
R,calibration,5094752.0,-0.125,0.957,-0.257,0.0,-0.3,-0.4,649,833,0,,,,
R,calibration,5094812.0,-0.125,0.955,-0.246,-0.1,-0.4,-0.1,653,837,0,,,,
R,calibration,5094872.0,-0.107,0.957,-0.247,-0.3,-0.3,-0.2,655,840,0,,,,
R,calibration,5094932.0,-0.152,0.95,-0.249,0.0,-0.2,0.1,655,840,0,,,,
R,calibration,5095022.0,-0.125,0.934,-0.249,0.0,0.0,1.0,656,839,0,,,,
R,calibration,5095083.0,-0.06,0.982,-0.253,-0.3,0.7,0.3,650,835,0,,,,
R,calibration,5095142.0,-0.1,0.978,-0.251,-1.3,0.0,0.0,657,836,0,,,,
R,calibration,5095204.0,-0.059,0.982,-0.234,-2.5,-0.9,-0.3,659,836,0,,,,
R,calibration,5095262.0,-0.108,0.988,-0.277,-4.1,-0.8,-0.4,651,838,0,,,,
R,calibration,5095323.0,-0.062,0.995,-0.115,-5.3,-1.6,-0.9,644,838,0,,,,
R,calibration,5095382.0,-0.105,1.033,-0.149,-5.6,-1.4,-2.1,627,834,0,,,,
R,calibration,5095443.0,-0.105,1.114,-0.15,-6.3,-3.0,-2.4,499,823,0,,,,
R,calibration,5095502.0,0.006,1.174,-0.062,-7.6,-3.6,-3.4,453,805,0,,,,
R,calibration,5095562.0,-0.026,1.195,-0.049,-9.6,-1.9,-5.6,412,764,0,,,,
R,calibration,5095653.0,-0.257,0.974,-0.021,-6.5,3.3,-8.3,349,666,0,,,,
R,calibration,5095712.0,-0.538,0.704,0.148,-5.1,2.9,-5.2,141,320,0,,,,
R,calibration,5095772.0,0.149,0.405,-0.039,-3.2,13.6,0.5,257,377,0,,,,
R,calibration,5095833.0,-0.115,0.611,-0.232,2.6,15.4,6.5,412,552,0,,,,
R,calibration,5095892.0,-0.271,0.95,-0.218,3.9,10.3,11.1,352,547,0,,,,
R,calibration,5095954.0,-0.335,1.125,-0.162,7.3,7.7,10.8,196,547,0,,,,
R,calibration,5096012.0,-0.294,1.213,-0.096,7.8,9.7,7.2,406,612,0,,,,
R,calibration,5096073.0,-0.219,1.191,-0.099,6.6,6.4,5.2,394,578,0,,,,
R,calibration,5096132.0,-0.144,1.1,-0.071,4.9,2.9,4.5,336,564,0,,,,
R,calibration,5096193.0,-0.093,1.055,-0.067,4.2,0.4,3.5,415,545,0,,,,
R,calibration,5096252.0,-0.088,1.026,-0.075,2.8,-0.5,2.2,254,487,0,,,,
R,calibration,5096312.0,-0.064,0.996,-0.066,1.8,-0.5,0.9,246,419,0,,,,
R,calibration,5096373.0,0.103,0.881,-0.085,1.5,1.6,0.6,380,587,0,,,,
R,calibration,5096432.0,0.082,0.781,-0.142,4.0,5.1,3.7,371,570,0,,,,
R,calibration,5096493.0,-0.093,1.03,-0.162,2.9,2.7,7.0,362,593,0,,,,
R,calibration,5096552.0,0.786,1.319,-0.168,-5.8,-8.0,3.0,427,631,0,,,,
R,calibration,5096614.0,0.302,0.971,-0.268,-1.4,3.6,-6.6,181,701,0,,,,
R,calibration,5096672.0,0.183,0.774,-0.346,-2.0,-1.1,-6.3,477,662,0,,,,
R,calibration,5096733.0,0.888,0.587,-0.633,-0.3,-9.6,-5.3,403,665,0,,,,
R,calibration,5096792.0,1.998,0.504,-1.266,-22.7,6.8,9.3,474,794,0,,,,
R,calibration,5096852.0,-0.165,0.98,0.078,-4.4,-1.8,-6.4,540,818,0,,,,
R,calibration,5096913.0,-0.189,0.995,-0.245,0.7,-0.2,-3.0,523,831,0,,,,
R,calibration,5096971.0,-0.224,0.979,-0.25,1.5,0.0,-0.9,542,835,0,,,,
R,calibration,5097033.0,-0.18,0.957,-0.261,0.8,0.0,-0.5,578,836,0,,,,
R,calibration,5097092.0,-0.235,0.966,-0.279,1.1,-1.4,0.1,515,842,0,,,,
R,calibration,5097153.0,-0.175,0.952,-0.298,0.9,-1.7,0.2,552,840,0,,,,
R,calibration,5097212.0,-0.139,0.952,-0.258,0.0,-2.4,-0.7,595,841,0,,,,
R,calibration,5097273.0,-0.206,0.94,-0.289,0.1,-2.6,-1.6,513,840,0,,,,
R,calibration,5097334.0,-0.2,0.945,-0.266,-0.6,-2.8,-1.7,449,833,0,,,,
R,calibration,5097392.0,-0.242,0.933,-0.241,-1.0,-2.4,-1.8,427,827,0,,,,
R,calibration,5097453.0,-0.229,0.913,-0.224,-1.1,-1.9,-1.9,449,825,0,,,,
R,calibration,5097512.0,-0.28,0.892,-0.21,-1.1,-1.2,-2.1,483,822,0,,,,
R,calibration,5097573.0,-0.288,0.961,-0.239,-1.3,-1.2,-2.0,459,822,0,,,,
R,calibration,5097632.0,-0.284,0.966,-0.237,-1.4,-1.1,-2.0,457,813,0,,,,
R,calibration,5097693.0,-0.325,0.966,-0.202,-1.7,-1.4,-2.2,325,832,0,,,,
R,calibration,5097752.0,-0.305,0.941,-0.153,-1.9,-1.3,-2.7,401,830,0,,,,
R,calibration,5097813.0,-0.375,0.886,-0.142,-2.4,-1.1,-2.7,391,822,0,,,,
R,calibration,5097873.0,-0.346,1.126,-0.228,-3.6,-0.2,-3.4,346,812,0,,,,
R,calibration,5097932.0,-0.298,1.066,-0.066,-4.4,-3.6,-4.6,353,827,0,,,,
R,calibration,5097992.0,-0.352,0.991,-0.117,-4.6,-4.8,-6.5,230,827,0,,,,
R,calibration,5098054.0,-0.06,1.508,-0.116,-6.1,-7.0,-10.4,220,818,0,,,,
R,calibration,5098142.0,-0.728,1.164,-0.046,-3.5,1.3,-13.8,47,635,0,,,,
R,calibration,5098203.0,-0.509,0.353,-0.189,0.4,-3.6,-1.7,165,535,0,,,,
R,calibration,5098262.0,0.008,0.267,0.175,2.5,-9.1,7.2,285,506,0,,,,
R,calibration,5098352.0,-0.248,0.786,-0.043,8.8,0.2,18.9,276,573,0,,,,
R,calibration,5098413.0,-0.413,1.045,-0.012,9.5,-0.8,21.0,282,563,0,,,,
R,calibration,5098472.0,-0.435,1.123,-0.01,9.0,1.5,18.0,342,592,0,,,,
R,calibration,5098533.0,-0.258,1.204,-0.097,8.0,6.3,16.4,229,578,0,,,,
R,calibration,5098592.0,-0.242,1.195,-0.2,7.3,5.0,14.2,278,569,0,,,,
R,calibration,5098653.0,-0.253,1.162,-0.14,5.7,2.2,10.8,247,581,0,,,,
R,calibration,5098712.0,-0.002,0.993,-0.075,3.8,2.0,7.0,372,590,0,,,,
R,calibration,5098774.0,-0.061,0.981,-0.142,2.8,3.5,4.8,385,590,0,,,,
R,calibration,5098833.0,-0.091,0.959,-0.145,1.5,2.9,1.2,374,611,0,,,,
R,calibration,5098892.0,-0.123,0.989,-0.149,-0.5,1.9,-3.1,339,631,0,,,,
R,calibration,5098953.0,0.282,1.043,-0.476,0.0,-0.5,-6.7,488,615,0,,,,
R,calibration,5099012.0,0.211,1.036,-0.29,-0.5,0.0,-6.1,485,651,0,,,,
R,calibration,5099073.0,0.189,0.907,-0.286,-1.2,0.0,-5.1,494,658,0,,,,
R,calibration,5099132.0,0.139,0.959,-0.243,-0.5,2.3,-5.2,434,675,0,,,,
R,calibration,5099193.0,0.0,0.97,-0.236,-0.7,0.9,-5.0,519,671,0,,,,
R,calibration,5099252.0,0.074,0.935,-0.241,-0.5,0.0,-4.5,348,697,0,,,,
R,calibration,5099313.0,0.284,0.952,-0.319,-0.5,-2.6,-6.0,525,683,0,,,,
R,calibration,5099373.0,0.327,0.955,-0.386,2.1,-4.5,-6.8,546,687,0,,,,
R,calibration,5099432.0,-4.494,2.54,0.472,11.5,-10.9,-23.1,582,790,9,,,,
R,calibration,5099494.0,0.298,1.323,-0.055,-1.6,-0.3,-6.7,558,822,0,,,,
R,calibration,5099552.0,-0.233,1.05,-0.289,-0.9,-1.3,-5.0,390,846,0,,,,
R,calibration,5099613.0,-0.302,0.921,-0.18,-0.6,-1.2,-2.4,597,834,0,,,,
R,calibration,5099672.0,-0.326,0.881,-0.156,-0.3,-0.9,-1.3,610,834,0,,,,
R,calibration,5099733.0,-0.33,0.929,-0.207,0.3,-0.7,-0.1,622,834,0,,,,
R,calibration,5099792.0,-0.299,0.918,-0.212,0.6,-0.6,0.7,635,840,0,,,,
R,calibration,5099853.0,-0.28,0.956,-0.231,0.4,-1.5,1.2,581,837,0,,,,
R,calibration,5099913.0,-0.268,0.961,-0.253,0.0,-1.6,1.1,604,833,0,,,,
R,calibration,5099972.0,-0.21,0.977,-0.188,-0.7,-1.5,0.2,547,722,0,,,,
R,calibration,5100033.0,-0.221,0.964,-0.187,-1.4,-1.9,-0.5,560,793,0,,,,
R,calibration,5100092.0,-0.188,0.99,-0.197,-2.5,-1.4,-2.8,545,804,0,,,,
R,calibration,5100154.0,-0.225,1.146,-0.218,-3.6,-0.6,-5.7,548,819,0,,,,
R,calibration,5100212.0,-0.136,1.408,-0.154,-6.2,-3.5,-8.4,435,803,0,,,,
R,calibration,5100273.0,0.049,1.474,-0.219,-6.6,-5.1,-14.0,273,805,0,,,,
R,calibration,5100333.0,-0.553,0.561,0.2,-3.3,-1.5,-13.3,197,591,0,,,,
R,calibration,5100393.0,0.045,0.092,-0.053,-5.7,5.4,-2.3,174,333,0,,,,
R,calibration,5100453.0,0.326,0.432,0.235,-0.6,4.3,13.4,143,516,0,,,,
R,calibration,5100512.0,-0.033,0.938,0.29,-2.5,10.5,19.8,315,563,0,,,,
R,calibration,5100573.0,-0.424,1.169,0.012,-6.4,27.5,17.8,324,587,0,,,,
R,calibration,5100632.0,-0.923,1.24,-0.819,-6.2,29.6,10.9,307,592,0,,,,
R,calibration,5100693.0,-1.032,0.855,-1.148,3.2,4.9,2.5,342,597,0,,,,
R,calibration,5100752.0,1.265,1.379,0.918,-0.5,-17.6,4.3,413,678,0,,,,
R,calibration,5100813.0,-0.053,0.995,0.043,4.2,3.2,-4.1,457,759,0,,,,
R,calibration,5100875.0,-0.13,0.969,-0.192,2.9,-4.6,0.6,528,786,0,,,,
R,calibration,5100933.0,-0.087,0.957,-0.034,3.2,1.4,0.0,533,807,0,,,,
R,calibration,5100993.0,-0.109,1.008,-0.288,2.8,1.1,0.1,608,813,0,,,,
R,calibration,5101052.0,-0.086,1.079,-0.238,1.1,-0.7,0.1,607,822,0,,,,
R,calibration,5101112.0,-0.109,0.948,-0.186,0.1,-0.4,-0.4,614,827,0,,,,
R,calibration,5101172.0,-0.095,0.975,-0.132,0.0,-0.8,-0.2,605,829,0,,,,
R,calibration,5101233.0,-0.123,0.978,-0.174,-0.2,0.0,-0.2,613,829,0,,,,
R,calibration,5101292.0,-0.124,0.987,-0.174,-0.6,0.1,0.0,612,827,0,,,,
R,calibration,5101353.0,-0.131,0.965,-0.169,-0.3,0.5,-0.1,609,821,0,,,,
R,calibration,5101413.0,-0.101,0.994,-0.143,-0.6,-0.2,0.2,610,820,0,,,,
R,calibration,5101472.0,-0.082,0.984,-0.156,-0.4,-1.1,-0.4,582,818,0,,,,
R,calibration,5101533.0,-0.102,0.98,-0.151,0.0,-0.4,-0.5,564,819,0,,,,
R,calibration,5101594.0,-0.097,0.978,-0.159,0.0,-0.1,-0.1,569,817,0,,,,
R,calibration,5101653.0,-0.177,0.989,-0.122,0.5,2.3,-0.6,577,813,0,,,,
R,calibration,5101712.0,-0.108,0.975,-0.159,0.1,0.1,0.0,583,805,0,,,,
R,calibration,5101773.0,-0.088,0.98,-0.167,-0.1,-0.2,-0.2,556,800,0,,,,
R,calibration,5101833.0,-0.066,0.974,-0.182,0.0,-0.6,-0.7,551,798,0,,,,
R,calibration,5101893.0,-0.081,0.979,-0.148,-0.4,0.0,-0.9,572,799,0,,,,
R,calibration,5101953.0,-0.055,0.989,-0.123,-0.1,0.6,-1.6,576,802,0,,,,
R,calibration,5102012.0,-0.007,1.122,-0.124,-3.1,0.4,-2.8,587,811,0,,,,
R,calibration,5102073.0,0.0,1.185,0.122,-4.3,0.7,-2.4,596,809,0,,,,
R,calibration,5102132.0,0.221,1.001,0.577,-8.6,12.0,-2.2,340,658,0,,,,
R,calibration,5102193.0,-0.481,0.556,-0.463,-5.9,17.4,-1.4,321,716,0,,,,
R,calibration,5102254.0,-0.801,0.33,-0.858,-2.6,7.2,0.9,429,794,0,,,,
R,calibration,5102313.0,0.419,1.969,0.729,-1.3,4.7,1.0,511,811,0,,,,
R,calibration,5102373.0,-0.418,0.979,0.019,-0.2,1.7,-0.9,537,820,0,,,,
R,calibration,5102433.0,-0.122,1.007,-0.045,-0.2,-2.1,1.2,459,819,0,,,,
R,calibration,5102493.0,-0.117,1.01,-0.05,0.1,-0.2,0.5,558,807,0,,,,
R,calibration,5102552.0,-0.072,0.98,-0.048,1.2,4.0,-1.6,564,803,0,,,,
R,calibration,5102613.0,-0.117,1.001,-0.083,0.0,1.4,-1.0,438,805,0,,,,
R,calibration,5102672.0,-0.471,1.068,-0.284,-0.1,-3.6,-2.9,502,819,0,,,,
R,calibration,5102733.0,-0.878,0.818,-1.625,10.6,-35.7,2.7,508,777,0,,,,
R,calibration,5102792.0,0.72,0.791,0.092,14.1,-53.6,8.3,430,671,0,,,,
R,calibration,5102853.0,2.956,2.245,3.267,-2.4,-5.3,2.4,558,793,9,,,,
R,calibration,5102913.0,-0.847,0.852,-0.338,2.3,3.5,-4.8,564,820,0,,,,
R,calibration,5102974.0,-0.01,1.105,-0.096,-0.4,0.1,0.4,576,816,0,,,,
R,calibration,5103033.0,0.044,1.301,0.166,-2.4,3.2,-1.4,605,815,0,,,,
R,calibration,5103123.0,0.71,1.076,0.732,-9.3,29.1,-5.2,369,751,0,,,,
R,calibration,5103183.0,-0.77,0.12,-0.908,-10.7,38.1,-1.3,312,791,0,,,,
R,calibration,5103243.0,-1.586,0.409,-3.623,7.6,-3.1,2.9,394,803,0,,,,
R,calibration,5103302.0,-0.034,0.607,0.056,-0.2,11.0,-6.2,528,811,0,,,,
R,calibration,5103363.0,-0.226,1.013,-0.113,-0.1,-1.4,0.4,636,803,0,,,,
R,calibration,5103422.0,-0.1,0.983,-0.019,0.2,-2.2,0.9,565,805,0,,,,
R,calibration,5103483.0,-0.106,0.993,-0.16,0.0,-1.2,0.2,588,801,0,,,,
R,calibration,5103542.0,-0.396,1.081,-0.27,-1.0,-2.4,-1.7,617,813,0,,,,
R,calibration,5103603.0,-0.803,0.777,-1.042,6.3,-18.3,0.9,548,789,0,,,,
R,calibration,5103663.0,0.127,0.815,-0.034,9.6,-32.5,5.2,525,776,0,,,,
R,calibration,5103724.0,0.41,0.869,0.785,5.7,-14.7,4.3,526,766,0,,,,
R,calibration,5103783.0,-0.08,1.188,-1.273,1.8,13.8,-0.6,566,790,0,,,,
R,calibration,5103842.0,-0.179,0.757,0.014,0.0,-6.8,-0.1,605,784,0,,,,
R,calibration,5103903.0,-0.15,0.949,-0.085,2.2,-0.2,1.7,613,790,0,,,,
R,calibration,5103962.0,-0.53,0.92,-0.13,2.2,-5.9,6.1,587,749,0,,,,
R,calibration,5104023.0,0.0,0.961,-0.363,4.7,-38.3,11.0,549,696,0,,,,
R,calibration,5104083.0,0.47,0.905,-0.442,2.7,-28.1,5.8,521,685,0,,,,
R,calibration,5104143.0,-1.305,1.021,-0.227,3.2,-7.3,-5.0,472,748,0,,,,
R,calibration,5104203.0,-0.222,1.04,-0.06,-1.7,0.1,-3.1,515,788,0,,,,
R,calibration,5104263.0,0.221,1.349,0.333,-4.7,3.9,-3.2,497,800,0,,,,
R,calibration,5104323.0,0.931,1.401,0.759,-13.5,31.1,-5.7,479,772,0,,,,
R,calibration,5104384.0,0.366,0.691,-0.44,-14.7,46.4,-5.9,174,634,0,,,,
R,calibration,5104443.0,-0.764,0.39,-1.251,-10.7,34.5,-2.1,326,651,0,,,,
R,calibration,5104502.0,-1.089,0.744,-1.693,0.2,0.7,0.5,342,651,0,,,,
R,calibration,5104563.0,0.557,1.553,0.593,0.9,3.2,1.3,364,755,0,,,,
R,calibration,5104623.0,-0.191,1.081,0.087,1.4,-0.1,-3.0,571,814,0,,,,
R,calibration,5104683.0,-0.354,0.918,-0.087,1.1,-2.4,0.0,562,764,0,,,,
R,calibration,5104743.0,-0.402,0.981,-0.128,2.0,-5.1,2.4,532,806,0,,,,
R,calibration,5104803.0,-0.516,0.81,-0.507,5.9,-13.1,4.6,536,788,0,,,,
R,calibration,5104863.0,0.072,0.956,-0.032,10.2,-28.2,5.6,487,799,0,,,,
R,calibration,5104922.0,0.351,0.845,0.577,1.4,9.0,1.2,585,801,0,,,,
R,calibration,5104983.0,-0.629,0.955,-0.108,1.8,-3.8,1.8,594,762,0,,,,
R,calibration,5105042.0,-0.289,1.004,-0.224,3.9,-8.1,5.3,543,695,0,,,,
R,calibration,5105104.0,-0.368,0.907,-0.366,4.6,-38.5,12.2,448,657,0,,,,
R,calibration,5105163.0,0.561,0.908,-0.336,2.1,-50.8,9.3,437,576,0,,,,
R,calibration,5105223.0,0.37,0.947,0.218,1.8,-12.0,-3.9,462,639,0,,,,
R,calibration,5105283.0,-0.244,1.116,-0.125,3.1,-9.8,-5.5,537,743,0,,,,
R,calibration,5105343.0,-0.042,1.189,0.277,-0.4,-4.7,-4.8,521,800,0,,,,
R,calibration,5105403.0,0.711,1.401,0.848,-8.1,9.1,-6.0,382,777,0,,,,
R,calibration,5105462.0,0.802,0.593,-0.326,-15.8,48.0,-9.9,358,746,0,,,,
R,calibration,5105523.0,-0.466,0.683,-1.619,-7.7,36.6,-3.3,110,750,0,,,,
R,calibration,5105583.0,-0.833,0.641,-0.703,0.0,-0.2,1.1,193,706,0,,,,
R,calibration,5105643.0,-0.052,0.804,0.269,-1.8,13.2,1.1,236,565,0,,,,
R,calibration,5105703.0,-0.896,0.618,-0.858,0.0,21.6,0.0,296,690,0,,,,
R,calibration,5105763.0,0.425,1.538,0.333,0.6,6.9,5.7,445,722,0,,,,
R,calibration,5105825.0,-0.521,0.94,0.074,3.5,-3.2,6.7,490,697,0,,,,
R,calibration,5105883.0,-0.13,0.824,-0.666,0.5,-67.7,21.3,508,656,0,,,,
R,calibration,5105973.0,0.539,0.769,-0.812,0.0,-50.6,7.4,222,673,0,,,,
R,calibration,5106033.0,1.126,0.838,-0.148,-0.7,-20.8,-2.9,334,702,0,,,,
R,calibration,5106123.0,0.017,1.282,0.103,-1.0,-0.2,-5.4,563,787,0,,,,
R,calibration,5106183.0,1.095,1.683,1.089,-8.3,19.7,-5.3,412,747,0,,,,
R,calibration,5106243.0,1.418,1.123,-0.032,-20.3,60.9,-11.2,282,536,0,,,,
R,calibration,5106303.0,0.868,0.718,-1.955,-19.2,73.9,-5.7,164,555,0,,,,
R,calibration,5106363.0,-1.543,0.646,-2.425,-4.7,22.1,-1.0,100,459,0,,,,
R,calibration,5106422.0,-0.684,0.153,0.141,4.3,-4.4,1.0,10,283,0,,,,
R,calibration,5106483.0,1.773,3.942,2.144,-7.7,6.0,7.4,306,788,9,,,,
R,calibration,5106544.0,-0.578,0.553,0.258,3.4,-0.9,3.5,439,770,0,,,,
R,calibration,5106603.0,-0.554,0.98,-0.146,0.7,-33.9,13.8,514,714,0,,,,
R,calibration,5106663.0,-0.199,0.899,-0.302,3.3,-49.3,13.5,451,630,0,,,,
R,calibration,5106723.0,0.355,0.961,-0.367,0.1,-66.0,11.3,360,568,0,,,,
R,calibration,5106783.0,0.613,0.948,-0.371,2.3,-34.3,0.5,250,456,0,,,,
R,calibration,5106843.0,-1.925,1.241,-0.023,4.4,-11.8,-9.4,254,730,0,,,,
R,calibration,5106903.0,-0.066,1.14,-0.041,-0.3,-1.0,-4.9,359,705,0,,,,
R,calibration,5106962.0,0.417,1.474,0.208,-3.0,4.4,-3.9,324,714,0,,,,
R,calibration,5107023.0,0.675,0.993,0.698,-9.0,26.2,-6.2,207,599,0,,,,
R,calibration,5107083.0,0.468,0.781,-0.509,-13.7,44.6,-5.5,183,556,0,,,,
R,calibration,5107143.0,-0.32,0.805,-1.036,-9.2,34.9,-3.9,141,634,0,,,,
R,calibration,5107203.0,-0.93,0.667,-0.996,-1.5,12.1,-3.3,230,658,0,,,,
R,calibration,5107264.0,-0.293,0.975,0.053,3.1,-5.1,-0.8,47,311,0,,,,
R,calibration,5107353.0,-0.285,1.029,-0.072,4.5,-3.1,1.8,116,415,0,,,,
R,calibration,5107413.0,-0.246,0.87,0.042,3.8,-3.8,5.0,195,622,0,,,,
R,calibration,5107473.0,-0.111,0.919,-0.027,4.0,-4.6,5.4,254,667,0,,,,
R,calibration,5107533.0,-0.33,0.692,-0.024,3.0,-2.0,5.5,287,654,0,,,,
R,calibration,5107593.0,0.144,1.425,-0.77,3.7,0.0,3.2,390,725,0,,,,
R,calibration,5107653.0,-0.221,0.955,0.128,0.7,-3.1,2.9,478,723,0,,,,
R,calibration,5107713.0,-0.348,0.889,-0.502,1.8,-31.8,11.6,295,693,0,,,,
R,calibration,5107773.0,0.163,0.931,-0.285,2.4,-50.4,13.0,347,572,0,,,,
R,calibration,5107833.0,0.032,0.854,-0.607,2.7,-59.4,10.7,301,388,0,,,,
R,calibration,5107892.0,0.749,0.748,-0.045,0.0,-61.2,8.1,380,472,0,,,,
R,calibration,5107955.0,-0.642,1.146,0.306,-4.2,-4.7,-4.3,442,744,0,,,,
R,calibration,5108013.0,0.644,1.398,0.186,-9.3,6.5,-5.6,393,774,0,,,,
R,calibration,5108073.0,0.848,1.009,0.309,-14.6,34.0,-10.9,283,665,0,,,,
R,calibration,5108133.0,0.491,0.651,-0.836,-17.0,57.1,-10.2,201,697,0,,,,
R,calibration,5108193.0,-0.36,0.544,-1.063,-14.0,55.8,-6.1,43,365,0,,,,
R,calibration,5108283.0,-1.051,0.493,-0.916,2.4,1.0,-2.8,111,586,0,,,,
R,calibration,5108343.0,0.525,1.432,0.653,5.3,12.8,-0.2,2,170,0,,,,
R,calibration,5108403.0,-0.379,1.059,-0.123,0.5,4.8,-2.2,433,608,0,,,,
R,calibration,5108463.0,-0.395,0.892,-0.23,3.3,-0.1,1.6,129,853,0,,,,
R,calibration,5108523.0,-0.246,0.959,-0.237,2.2,-1.4,3.2,291,847,0,,,,
R,calibration,5108583.0,-0.264,0.939,-0.244,1.4,-1.6,3.2,543,836,0,,,,
R,calibration,5108643.0,-0.162,0.959,-0.214,0.7,-0.5,2.5,433,842,0,,,,
R,calibration,5108705.0,-0.107,0.964,-0.219,0.0,0.0,0.6,536,836,0,,,,
R,calibration,5108763.0,-0.171,0.918,-0.249,-0.3,0.7,-1.2,583,836,0,,,,
R,calibration,5108823.0,-0.229,0.967,-0.202,-0.9,0.8,-0.6,609,835,0,,,,
R,calibration,5108913.0,-0.22,0.965,-0.155,-1.4,0.0,0.4,586,829,0,,,,
R,calibration,5108973.0,-0.203,0.942,-0.152,-0.3,0.7,1.4,578,818,0,,,,
R,calibration,5109033.0,-0.117,0.988,-0.193,-0.4,-1.4,1.9,602,805,0,,,,
R,calibration,5109093.0,-0.096,0.984,-0.185,-0.7,-1.6,0.7,601,799,0,,,,
R,calibration,5109153.0,-0.133,0.966,-0.175,-0.7,-0.1,-0.5,598,798,0,,,,
R,calibration,5109243.0,-0.141,0.982,-0.162,-0.4,-0.5,-0.2,595,800,0,,,,
R,calibration,5109303.0,-0.129,0.976,-0.161,-0.5,-0.5,-0.4,599,801,0,,,,
R,calibration,5109363.0,-0.147,0.97,-0.152,-0.5,-0.6,-0.1,558,808,0,,,,
R,calibration,5109423.0,-0.144,0.982,-0.13,-0.1,-0.6,-0.1,567,809,0,,,,
R,calibration,5109485.0,-0.137,0.978,-0.155,0.0,-0.4,0.0,577,809,0,,,,
R,calibration,5109542.0,-0.13,0.987,-0.15,0.0,-1.0,0.0,569,812,0,,,,
R,calibration,5109603.0,-0.136,0.98,-0.154,0.0,-0.9,-0.2,576,811,0,,,,
R,calibration,5109663.0,-0.142,0.98,-0.153,0.0,-0.9,-0.1,563,809,0,,,,
R,calibration,5109723.0,-0.158,0.98,-0.137,0.1,-0.4,0.0,578,813,0,,,,
R,calibration,5109783.0,-0.151,0.978,-0.142,0.4,-0.2,0.1,580,810,0,,,,
R,calibration,5109873.0,-0.131,0.982,-0.148,0.2,-1.0,0.0,581,809,0,,,,
R,calibration,5109933.0,-0.145,0.986,-0.148,0.0,-1.2,0.0,584,812,0,,,,
R,calibration,5109993.0,-0.142,0.978,-0.166,0.5,0.6,-0.5,582,809,0,,,,
R,calibration,5110053.0,-0.152,0.985,-0.147,0.2,-0.7,-0.1,575,804,0,,,,
R,calibration,5110113.0,-0.149,0.971,-0.162,0.3,-0.6,-0.2,582,800,0,,,,
R,calibration,5110174.0,-0.15,0.979,-0.195,0.0,-0.5,-0.4,587,800,0,,,,
R,calibration,5110233.0,-0.15,0.98,-0.155,-0.3,-0.4,-0.2,593,808,0,,,,
R,calibration,5110334.0,-0.157,0.978,-0.14,-0.2,-0.4,0.1,597,810,0,,,,
R,calibration,5110353.0,-0.159,0.979,-0.144,-0.1,-0.5,0.1,607,809,0,,,,
R,calibration,5110413.0,-0.15,0.978,-0.161,-0.1,-0.3,-0.1,617,812,0,,,,
R,calibration,5110473.0,-0.151,0.979,-0.135,-0.1,-0.5,0.0,617,813,0,,,,
R,calibration,5110533.0,-0.149,0.986,-0.147,0.0,-0.4,-0.2,621,815,0,,,,
R,calibration,5110593.0,-0.139,0.979,-0.154,-0.2,-0.3,-0.4,614,816,0,,,,
R,calibration,5110653.0,-0.155,0.976,-0.136,-0.2,-0.4,-0.3,613,816,0,,,,
R,calibration,5110713.0,-0.15,0.98,-0.135,0.0,-0.3,-0.2,603,818,0,,,,
R,calibration,5110773.0,-0.141,0.976,-0.139,0.5,-0.3,-0.2,601,822,0,,,,
R,calibration,5110833.0,-0.129,0.978,-0.153,0.6,-0.2,-0.1,614,817,0,,,,
R,calibration,5110895.0,-0.15,0.974,-0.159,0.7,-0.1,0.0,620,817,0,,,,
R,calibration,5110953.0,-0.16,0.98,-0.15,0.3,-0.4,0.3,616,820,0,,,,
R,calibration,5111043.0,-0.062,1.016,-0.226,-0.7,0.2,-1.7,603,817,0,,,,
R,calibration,5111103.0,-0.147,1.062,-0.147,-1.3,-0.7,-3.5,422,585,0,,,,
R,calibration,5111163.0,-0.032,1.204,-0.18,-1.0,-0.6,-5.5,432,719,0,,,,
R,calibration,5111253.0,-0.02,0.642,0.335,-3.4,8.7,-3.7,293,563,0,,,,
R,calibration,5111313.0,-0.508,0.635,-0.277,-4.1,5.4,5.8,336,485,0,,,,
R,calibration,5111403.0,-0.127,1.119,-0.131,0.2,-4.6,4.7,396,659,0,,,,
R,calibration,5111463.0,-0.192,1.03,-0.17,4.3,-0.5,2.1,338,559,0,,,,
R,calibration,5111523.0,-0.172,0.969,-0.157,1.9,-4.2,4.0,488,729,0,,,,
R,calibration,5111583.0,-0.06,1.008,-0.18,1.5,0.0,2.9,560,794,0,,,,
R,calibration,5111643.0,-0.077,0.974,-0.202,1.0,2.2,1.5,572,790,0,,,,
R,calibration,5111705.0,-0.069,0.999,-0.178,0.5,1.5,0.8,586,788,0,,,,
R,calibration,5111763.0,-0.109,1.003,-0.164,0.7,0.0,0.7,588,779,0,,,,
R,calibration,5111823.0,-0.287,0.959,-0.215,1.1,-7.0,3.5,579,750,0,,,,
R,calibration,5111883.0,-0.238,0.978,-0.338,3.0,-28.1,9.1,515,728,0,,,,
R,calibration,5111943.0,-0.05,0.95,-0.339,1.9,-42.9,9.9,534,687,0,,,,
R,calibration,5112003.0,0.101,0.882,-0.416,-0.1,-38.1,5.1,453,593,0,,,,
R,calibration,5112063.0,0.502,0.844,-0.169,2.0,-23.8,4.3,432,678,0,,,,
R,calibration,5112124.0,0.129,1.0,-0.156,0.0,-0.9,-3.0,572,774,0,,,,
R,calibration,5112183.0,-0.143,1.0,-0.193,0.1,-2.2,-0.3,586,795,0,,,,
R,calibration,5112243.0,-0.028,1.014,-0.119,0.0,-0.6,-0.8,596,801,0,,,,
R,calibration,5112302.0,-0.171,0.981,-0.183,0.1,-1.4,-0.3,598,810,0,,,,
R,calibration,5112365.0,-0.156,0.941,-0.177,0.0,-1.0,0.1,596,811,0,,,,
R,calibration,5112423.0,-0.17,0.954,-0.178,0.1,-0.4,0.6,608,818,0,,,,
R,calibration,5112483.0,-0.117,0.975,-0.185,0.0,0.0,1.1,613,826,0,,,,
R,calibration,5112543.0,-0.08,0.969,-0.179,-0.1,0.5,1.7,627,824,0,,,,
R,calibration,5112603.0,-0.112,1.029,-0.083,-1.6,4.9,0.3,617,790,0,,,,
R,calibration,5112705.0,0.467,0.92,-0.12,-3.6,32.2,-5.9,324,714,0,,,,
R,calibration,5112723.0,0.448,0.863,-0.192,-2.4,41.3,-9.9,470,696,0,,,,
R,calibration,5112783.0,-0.017,0.876,-0.727,-1.5,28.0,-10.0,532,699,0,,,,
R,calibration,5112843.0,0.081,1.301,0.325,-0.9,-10.4,0.5,474,790,0,,,,
R,calibration,5112903.0,0.223,1.414,-0.006,3.5,-10.6,-1.9,283,556,0,,,,
R,calibration,5112963.0,-0.251,0.662,-0.119,3.5,-16.2,-1.4,258,554,0,,,,
R,calibration,5113023.0,-0.494,0.057,-0.331,1.4,-34.3,12.4,403,635,0,,,,
R,calibration,5113084.0,0.222,0.321,-0.666,7.8,-53.0,24.7,265,455,0,,,,
R,calibration,5113143.0,0.362,1.376,0.131,13.8,-42.8,16.1,329,569,0,,,,
R,calibration,5113203.0,0.004,2.256,0.756,-7.1,3.5,-4.3,526,743,0,,,,
R,calibration,5113263.0,-0.013,1.451,-0.384,-7.7,-6.4,-3.6,545,771,0,,,,
R,calibration,5113323.0,0.962,1.737,0.215,-10.8,9.8,-8.8,367,654,0,,,,
R,calibration,5113383.0,0.712,0.757,0.442,-20.3,52.6,-11.5,377,588,0,,,,
R,calibration,5113443.0,0.46,0.56,-0.718,-20.6,62.3,-6.0,346,565,0,,,,
R,calibration,5113503.0,0.401,0.446,-0.96,-24.3,47.7,-1.2,297,584,0,,,,
R,calibration,5113563.0,-0.823,0.709,-1.872,-8.6,35.1,-1.4,233,759,0,,,,
R,calibration,5113624.0,0.252,1.477,0.971,9.2,-6.9,3.6,498,794,0,,,,
R,calibration,5113683.0,-0.512,1.24,-0.445,7.2,4.7,-3.7,576,814,0,,,,
R,calibration,5113743.0,-0.511,0.79,-0.155,6.0,-1.0,0.6,616,818,0,,,,
R,calibration,5113804.0,-0.268,1.009,-0.186,3.1,0.0,2.5,570,827,0,,,,
R,calibration,5113863.0,-0.198,0.89,-0.078,1.6,0.1,4.6,423,837,0,,,,
R,calibration,5113923.0,-0.132,0.942,-0.015,3.0,-0.9,4.7,590,826,0,,,,
R,calibration,5113983.0,-0.087,0.981,-0.199,3.7,-0.6,2.2,661,807,0,,,,
R,calibration,5114043.0,-0.02,1.028,-0.216,1.6,2.2,-1.2,562,814,0,,,,
R,calibration,5114103.0,-0.238,0.938,-0.121,2.3,-0.9,-0.3,575,822,0,,,,
R,calibration,5114164.0,-0.218,0.953,-0.234,2.6,-1.1,2.4,568,827,0,,,,
R,calibration,5114223.0,-0.149,1.027,-0.351,0.4,-2.0,2.3,546,832,0,,,,
R,calibration,5114283.0,-0.048,0.928,-0.225,-0.7,-0.3,-1.2,612,831,0,,,,
R,calibration,5114343.0,-0.158,0.995,-0.219,-1.3,-0.8,-3.3,630,828,0,,,,
R,calibration,5114403.0,-0.491,0.783,-0.002,-1.2,0.2,-1.6,632,828,0,,,,
R,calibration,5114464.0,-0.219,1.045,-0.247,-1.0,0.3,2.7,648,833,0,,,,
R,calibration,5114523.0,-0.155,0.99,-0.181,-1.1,-0.7,3.7,630,837,0,,,,
R,calibration,5114613.0,0.003,1.01,-0.184,-2.1,-2.2,0.1,642,831,0,,,,
R,calibration,5114673.0,0.068,1.28,-0.296,-3.2,-4.7,-5.8,455,771,0,,,,
R,calibration,5114733.0,0.384,2.024,-0.285,-4.1,-5.6,-13.1,330,689,0,,,,
R,calibration,5114793.0,-1.001,0.244,-0.616,1.7,-7.1,-7.5,153,362,0,,,,
R,calibration,5114853.0,-0.004,0.147,-1.092,12.5,-7.5,9.7,248,565,0,,,,
R,calibration,5114914.0,-0.304,0.412,-0.488,18.8,-16.6,13.9,263,533,0,,,,
R,calibration,5114973.0,-0.283,0.836,0.263,19.9,-8.8,12.0,320,501,0,,,,
R,calibration,5115033.0,0.385,1.29,0.629,9.4,10.9,7.2,293,505,0,,,,
R,calibration,5115124.0,0.349,1.775,-1.737,2.6,19.8,1.1,402,645,0,,,,
R,calibration,5115183.0,0.22,1.436,-0.148,-10.3,14.6,-14.3,373,550,0,,,,
R,calibration,5115245.0,0.195,1.006,-0.65,-5.2,42.6,-20.7,353,492,0,,,,
R,calibration,5115303.0,-0.016,0.533,-0.543,-3.2,31.2,-16.1,366,534,0,,,,
R,calibration,5115363.0,-0.751,0.635,-0.471,-3.7,10.9,-10.1,360,579,0,,,,
R,calibration,5115422.0,1.252,0.478,0.391,-2.3,9.3,-4.5,241,518,0,,,,
R,calibration,5115483.0,0.284,1.552,0.103,1.8,-1.7,-9.1,267,764,0,,,,
R,calibration,5115543.0,-0.244,1.011,-0.226,-1.4,0.9,-5.5,477,807,0,,,,
R,calibration,5115603.0,-0.286,0.887,-0.341,-0.8,-0.4,-3.1,464,814,0,,,,
R,calibration,5115664.0,-0.346,0.896,-0.298,-1.2,1.3,-1.5,594,824,0,,,,
R,calibration,5115723.0,-0.284,1.008,-0.26,-2.8,0.8,1.1,555,764,0,,,,
R,calibration,5115783.0,-0.255,0.876,-0.121,-2.3,2.5,1.9,538,812,0,,,,
R,calibration,5115843.0,-0.179,0.935,-0.104,-0.8,0.7,2.6,445,811,0,,,,
R,calibration,5115905.0,-0.18,0.888,-0.224,0.0,-0.4,1.8,465,719,0,,,,
R,calibration,5115963.0,-0.071,1.155,-0.232,-0.8,1.6,-2.1,564,828,0,,,,
R,calibration,5116023.0,-0.204,1.09,-0.229,-2.7,-0.8,-4.0,604,823,0,,,,
R,calibration,5116083.0,-0.472,1.159,-0.223,-2.1,-8.2,-3.5,542,804,0,,,,
R,calibration,5116143.0,-1.138,0.806,-0.899,1.8,-17.2,-5.2,463,630,0,,,,
R,calibration,5116204.0,-0.821,1.053,-0.302,1.3,-13.7,-13.1,464,602,0,,,,
R,calibration,5116263.0,-0.258,0.654,-0.064,1.2,-9.0,-17.4,450,581,0,,,,
R,calibration,5116323.0,0.346,0.399,0.059,2.0,-10.6,-12.5,324,556,0,,,,
R,calibration,5116383.0,0.068,1.56,0.675,-0.8,-16.6,-0.4,116,434,0,,,,
R,calibration,5116443.0,0.255,1.666,0.495,-3.8,8.7,-7.0,190,613,0,,,,
R,calibration,5116503.0,-0.513,0.907,0.231,-6.1,10.7,-5.4,318,473,0,,,,
R,calibration,5116563.0,-0.085,0.53,-0.403,-2.2,-0.7,8.5,349,509,0,,,,
R,calibration,5116625.0,0.081,0.452,-0.186,3.3,-2.3,19.8,349,490,0,,,,
R,calibration,5116683.0,0.028,0.655,-0.34,9.0,7.9,27.5,390,514,0,,,,
R,calibration,5116744.0,-0.019,1.266,-0.38,15.8,15.0,32.8,396,531,0,,,,
R,calibration,5116803.0,-2.859,2.274,0.359,3.9,13.5,13.0,459,583,0,,,,
R,calibration,5116863.0,-0.74,1.647,-0.173,-7.5,20.0,-17.0,397,555,0,,,,
R,calibration,5116923.0,-0.059,1.26,-0.366,-8.5,24.6,-26.5,329,524,0,,,,
R,calibration,5116983.0,0.508,0.812,-0.508,-6.9,19.5,-17.9,89,594,0,,,,
