side,stage,device_ms,ax,ay,az,gx,gy,gz,toe,heel,phase
L,,37609,0.146,0.984,0.094,0.1,0.0,0.2,478,615,0
L,,37619,0.138,0.983,0.088,0.1,-0.1,0.2,479,614,0
L,,37629,0.129,0.992,0.095,0.1,-0.3,0.3,481,619,0
L,,37639,0.119,0.993,0.081,0.2,-0.3,0.4,482,618,0
L,,37649,0.120,1.000,0.056,0.2,-0.1,0.5,480,616,0
L,,37659,0.151,0.996,0.078,0.2,0.0,0.6,479,615,0
L,,37669,0.160,0.995,0.064,0.2,0.0,0.6,477,614,0
L,,37679,0.167,0.996,0.079,0.1,0.0,0.5,462,599,0
L,,37689,0.144,0.992,0.081,0.1,0.0,0.5,477,614,0
L,,37699,0.137,1.001,0.064,0.1,0.0,0.5,476,613,0
L,,37709,0.149,0.982,0.086,0.0,-0.1,0.6,477,611,0
L,,37719,0.138,0.984,0.066,0.0,-0.1,0.6,472,609,0
L,,37729,0.146,0.990,0.075,0.1,2.2,0.6,472,606,0
L,,37739,0.155,0.994,0.083,0.0,0.0,0.7,465,599,0
L,,37749,0.156,0.994,0.098,0.0,0.0,0.7,472,604,0
L,,37759,0.151,0.996,0.085,0.0,-0.1,0.6,471,605,0
L,,37769,0.152,0.995,0.064,0.0,-0.3,0.6,478,612,0
L,,37779,0.164,0.988,0.081,0.0,-0.2,0.7,476,612,0
L,,37789,0.167,0.995,0.077,0.0,-0.1,0.6,475,609,0
L,,37799,0.172,0.988,0.078,0.0,-0.1,0.6,479,614,0
L,,37809,0.159,0.987,0.093,0.0,-0.3,0.6,476,611,0
L,,37819,0.151,0.984,0.089,0.0,-0.4,0.6,476,611,0
L,,37829,0.152,0.988,0.070,0.0,-0.4,0.6,477,612,0
L,,37839,0.165,0.989,0.070,0.0,-0.2,0.6,478,615,0
L,,37849,0.171,0.989,0.077,0.0,0.0,0.6,480,618,0
L,,37859,0.172,0.995,0.081,0.0,0.1,0.6,479,616,0
L,,37869,0.179,0.986,0.083,0.0,0.1,0.5,485,624,0
L,,37879,0.172,0.994,0.077,0.0,0.0,0.4,484,622,0
L,,37889,0.164,0.989,0.071,0.0,0.0,0.4,476,617,0
L,,37899,0.173,0.985,0.081,0.0,0.0,0.4,484,624,0
L,,37909,0.162,0.986,0.082,0.0,0.0,0.4,485,624,0
L,,37919,0.157,0.988,0.070,0.0,0.0,0.4,486,628,0
L,,37929,0.151,0.988,0.092,0.0,-0.2,0.4,486,627,0
L,,37939,0.159,0.997,0.093,0.0,-0.3,0.5,487,628,0
L,,37949,0.175,0.996,0.088,0.0,-0.5,0.5,488,627,0
L,,37959,0.176,0.993,0.100,0.0,-0.5,0.4,486,626,0
L,,37969,0.185,0.991,0.107,0.0,-0.6,0.3,485,628,0
L,,37979,0.185,0.986,0.100,0.0,-0.6,0.1,492,633,0
L,,37989,0.167,0.992,0.097,0.1,-0.6,0.1,486,628,0
L,,37999,0.163,0.986,0.093,0.1,-0.8,0.1,486,625,0
L,,38009,0.150,0.986,0.087,0.1,-0.8,0.1,493,631,0
L,,38019,0.167,0.981,0.075,0.3,-0.7,0.1,488,629,0
L,,38029,0.169,0.991,0.087,0.2,-0.7,0.1,488,631,0
L,,38039,0.193,0.986,0.091,0.2,-0.7,0.0,488,631,0
L,,38049,0.181,0.992,0.092,0.2,-0.8,0.0,491,633,0
L,,38059,0.185,0.988,0.091,0.1,-1.0,-0.1,493,635,0
L,,38069,0.162,0.988,0.087,0.1,-1.1,-0.1,485,627,0
L,,38079,0.156,0.994,0.083,0.2,-1.0,-0.1,495,639,0
L,,38089,0.161,0.992,0.089,0.3,-0.8,0.0,493,639,0
L,,38099,0.169,0.990,0.088,0.3,-0.7,-0.1,482,639,0
L,,38109,0.167,0.983,0.080,0.4,-0.5,-0.1,496,643,0
L,,38119,0.166,0.987,0.074,0.4,-0.4,-0.1,499,642,0
L,,38129,0.168,0.990,0.075,0.4,-0.4,-0.1,499,643,0
L,,38139,0.181,0.989,0.081,0.3,-0.3,-0.2,499,643,0
L,,38149,0.177,0.984,0.097,0.4,-0.1,-0.2,500,647,0
L,,38159,0.154,0.993,0.077,0.4,0.0,-0.2,500,646,0
L,,38169,0.133,0.996,0.065,0.2,-0.2,-0.1,499,647,0
L,,38179,0.153,0.978,0.078,0.2,-0.2,-0.1,501,647,0
L,,38189,0.162,1.003,0.090,0.2,-0.2,0.0,506,653,0
L,,38199,0.190,0.993,0.092,0.2,-0.2,-0.1,503,649,0
L,,38209,0.156,0.996,0.101,0.2,-0.3,-0.1,503,650,0
L,,38219,0.153,0.981,0.077,0.2,-0.3,-0.1,508,656,0
L,,38229,0.129,0.990,0.045,0.2,-0.5,0.0,503,650,0
L,,38239,0.143,0.991,0.070,0.1,-0.5,0.0,503,651,0
L,,38249,0.144,0.992,0.068,0.1,-0.4,0.1,503,652,0
L,,38259,0.166,0.995,0.070,0.2,-0.3,0.1,505,651,0
L,,38269,0.171,0.989,0.093,0.1,-0.3,0.1,503,652,0
L,,38279,0.170,0.988,0.100,0.1,-0.3,0.0,493,642,0
L,,38289,0.150,0.987,0.078,0.1,-0.4,0.0,505,652,0
L,,38299,0.149,0.992,0.065,0.1,-0.5,0.1,505,652,0
L,,38309,0.148,0.992,0.074,0.0,-0.5,0.2,509,658,0
L,,38319,0.146,0.998,0.071,0.1,-0.5,0.2,504,653,0
L,,38329,0.147,0.994,0.070,0.1,-0.5,0.3,507,655,0
L,,38339,0.166,0.984,0.094,0.0,-0.7,0.3,511,659,0
L,,38349,0.158,0.987,0.076,0.0,-0.8,0.3,506,657,0
L,,38359,0.152,0.985,0.059,0.0,-0.9,0.2,507,657,0
L,,38369,0.150,0.986,0.052,0.0,-1.0,0.3,508,658,0
L,,38379,0.159,0.982,0.058,0.0,-0.8,0.3,509,661,0
L,,38389,0.159,0.995,0.063,0.0,-0.6,0.2,511,661,0
L,,38399,0.162,0.997,0.068,0.0,-0.5,0.2,506,655,0
L,,38409,0.172,0.988,0.078,0.0,-0.4,0.2,510,660,0
L,,38419,0.164,0.989,0.089,0.0,-0.5,0.1,512,660,0
L,,38429,0.163,0.985,0.088,0.0,-0.6,0.1,510,662,0
L,,38439,0.153,0.986,0.068,0.0,-0.6,0.0,511,661,0
L,,38449,0.142,0.990,0.070,0.0,-0.6,0.1,513,662,0
L,,38459,0.150,0.990,0.068,0.1,-0.4,0.2,512,662,0
L,,38469,0.164,0.992,0.081,0.1,-0.3,0.2,510,663,0
L,,38479,0.171,0.998,0.086,0.2,-0.3,0.2,511,662,0
L,,38489,0.171,0.994,0.078,0.1,-0.4,0.1,512,663,0
L,,38499,0.174,0.993,0.075,0.0,-0.6,0.1,512,662,0
L,,38509,0.173,0.985,0.093,0.0,-0.6,0.0,511,662,0
L,,38519,0.158,0.993,0.073,0.1,-0.7,0.0,519,668,0
L,,38529,0.161,0.992,0.077,0.2,-0.6,0.0,513,663,0
L,,38539,0.146,0.991,0.084,0.3,-0.5,0.0,512,663,0
L,,38549,0.159,0.989,0.070,0.4,-0.4,0.0,520,669,0
L,,38559,0.154,0.992,0.081,0.3,-0.4,0.1,512,663,0
L,,38569,0.155,0.992,0.075,0.3,-0.4,0.1,513,663,0
L,,38579,0.164,0.994,0.079,0.3,-0.5,0.1,511,663,0
L,,38589,0.162,0.990,0.071,0.3,-0.5,0.1,512,664,0
L,,38599,0.166,0.989,0.066,0.3,-0.5,0.1,512,663,0
L,,38609,0.168,0.986,0.069,0.3,-0.5,0.0,505,656,0
L,,38619,0.167,0.992,0.065,0.3,-0.5,0.0,514,665,0
L,,38629,0.158,0.995,0.070,0.2,-0.5,0.0,512,665,0
L,,38639,0.158,0.989,0.074,0.2,-0.5,0.0,514,668,0
L,,38649,0.153,0.992,0.079,0.2,-0.5,0.1,514,665,0
L,,38659,0.150,0.989,0.071,0.2,-0.4,0.1,512,666,0
L,,38669,0.164,0.987,0.066,0.3,-0.4,0.1,514,665,0
L,,38679,0.161,0.990,0.068,0.3,-0.4,0.1,513,667,0
L,,38689,0.169,0.992,0.071,0.3,-0.4,0.1,513,666,0
L,,38699,0.163,0.992,0.069,0.3,-0.4,0.1,515,666,0
L,,38709,0.158,0.991,0.077,0.2,-0.5,0.1,514,666,0
L,,38719,0.138,0.993,0.075,0.1,-0.6,0.1,514,666,0
L,,38729,0.147,0.992,0.066,0.2,-0.5,0.2,520,671,0
L,,38739,0.153,0.990,0.060,0.2,-0.5,0.3,514,664,0
L,,38749,0.142,0.988,0.065,0.2,-0.5,0.4,512,663,0
L,,38759,0.174,0.988,0.052,0.2,-0.4,0.4,519,669,0
L,,38769,0.158,0.992,0.062,0.1,-0.4,0.3,515,664,0
L,,38779,0.168,0.991,0.057,0.0,-0.5,0.4,513,664,0
L,,38789,0.164,0.989,0.046,0.0,-0.5,0.3,514,664,0
L,,38799,0.162,0.989,0.064,0.0,-0.6,0.3,513,664,0
L,,38809,0.160,0.989,0.065,0.0,-0.5,0.3,512,664,0
L,,38819,0.167,0.994,0.071,0.0,-0.3,0.3,503,654,0
L,,38829,0.167,0.989,0.075,0.0,-0.2,0.3,513,664,0
L,,38839,0.158,0.993,0.072,0.1,-0.2,0.3,513,662,0
L,,38849,0.160,0.984,0.083,0.1,-0.2,0.3,519,670,0
L,,38859,0.162,0.983,0.077,0.1,-0.3,0.3,513,663,0
L,,38869,0.159,0.986,0.067,0.1,-0.2,0.3,515,662,0
L,,38879,0.152,0.994,0.057,0.1,-0.2,0.3,515,663,0
L,,38889,0.166,0.991,0.060,0.1,-0.2,0.3,515,663,0
L,,38899,0.171,0.994,0.059,0.1,-0.2,0.3,515,664,0
L,,38909,0.181,0.993,0.070,0.0,-0.2,0.3,514,666,0
L,,38919,0.179,0.995,0.062,0.0,-0.2,0.2,514,663,0
L,,38929,0.170,0.988,0.066,0.0,-0.2,0.2,514,665,0
L,,38970,0.178,0.991,0.072,0.2,-0.1,0.2,512,664,0
L,,39031,0.172,0.993,0.071,0.2,-0.3,0.1,512,662,0
L,,39090,0.165,0.991,0.054,0.2,-0.3,0.2,513,663,0
L,,39151,0.157,0.990,0.065,0.0,-0.3,0.3,515,666,0
L,,39210,0.167,0.987,0.067,0.0,-0.4,0.3,516,664,0
L,,39270,0.182,0.991,0.060,0.0,-0.2,0.3,516,665,0
L,,39331,0.175,0.984,0.068,0.0,-0.1,0.4,516,664,0
L,,39392,0.164,0.991,0.059,2.2,-0.5,0.3,514,664,0
L,,39451,0.180,0.986,0.079,0.0,-0.5,0.3,508,654,0
L,,39510,0.184,0.981,0.083,0.0,-0.6,0.2,496,639,0
L,,39571,0.183,0.989,0.079,0.0,-0.2,0.1,494,639,0
L,,39630,0.184,0.987,0.066,0.0,-0.2,0.2,498,641,0
L,,39691,0.168,0.987,0.085,0.0,-0.3,0.1,497,643,0
L,,39750,0.186,0.990,0.070,0.0,-0.4,0.2,500,643,0
L,,39810,0.175,0.987,0.060,0.0,-0.2,0.2,498,643,0
L,,39871,0.179,0.980,0.082,0.0,-0.3,0.0,501,645,0
L,,39930,0.176,0.988,0.062,0.0,-0.3,0.1,503,650,0
L,,39991,0.181,0.981,0.075,0.1,-0.3,0.0,507,653,0
L,,40081,0.177,0.985,0.075,0.0,-0.5,0.1,510,659,0
L,,40142,0.174,0.986,0.063,0.0,-0.4,0.2,511,658,0
L,,40201,0.188,0.986,0.065,0.0,-0.4,0.2,511,660,0
L,,40291,0.184,0.990,0.080,0.0,-0.3,0.1,509,655,0
L,,40350,0.178,0.991,0.081,0.0,-0.2,0.1,509,653,0
L,,40411,0.177,0.992,0.088,0.0,-0.3,0.1,508,653,0
L,,40500,0.186,0.989,0.076,0.0,-0.4,0.1,508,656,0
L,,40560,0.184,0.991,0.081,0.0,-0.4,0.1,508,654,0
L,,40621,0.180,0.983,0.074,0.0,-0.3,0.1,505,653,0
L,,40680,0.181,0.994,0.094,0.0,-0.4,0.0,507,654,0
L,,40741,0.182,0.988,0.093,0.1,-0.4,0.0,509,654,0
L,,40800,0.179,0.988,0.081,0.0,-0.2,0.0,510,657,0
L,,40862,0.180,0.981,0.090,0.0,0.0,0.1,512,660,0
L,,40920,0.180,0.983,0.094,-0.2,0.0,0.1,517,666,0
L,,40981,0.188,0.984,0.096,-0.1,-0.5,0.0,516,666,0
L,,41041,0.183,0.988,0.096,0.2,-0.5,-0.1,519,668,0
L,,41100,0.168,0.985,0.072,0.1,-0.5,-0.2,520,669,0
L,,41161,0.165,0.985,0.074,0.0,-0.3,0.0,521,671,0
L,,41220,0.162,0.989,0.077,-0.2,-0.1,0.0,522,671,0
L,,41281,0.169,0.986,0.084,-0.5,-0.4,0.0,522,673,0
L,,41340,0.169,0.986,0.089,-0.6,-0.1,0.0,522,674,0
L,,41401,0.162,0.980,0.120,-0.4,-0.2,-0.2,522,674,0
L,,41460,0.177,0.979,0.103,-0.5,0.0,-0.4,523,675,0
L,,41521,0.159,0.987,0.102,-0.5,0.3,-0.8,504,643,0
L,,41583,0.134,1.006,0.130,-0.8,-0.3,-0.7,485,622,0
L,,41640,0.129,0.962,0.276,-1.0,-0.3,-0.4,481,617,0
L,,41701,0.281,1.333,-0.020,-2.1,-1.9,-4.3,498,638,0
L,,41760,0.089,0.965,0.075,-1.1,0.3,0.0,501,647,0
L,,41821,0.072,0.985,0.217,-1.5,-0.4,-0.5,497,641,0
L,,41880,0.126,1.042,0.170,-0.9,-0.9,-0.7,500,641,0
L,,41941,0.100,1.013,0.179,-0.6,-1.3,0.5,499,640,0
L,,42000,0.100,0.992,0.229,-0.7,-1.1,1.2,458,585,0
L,,42061,0.116,0.988,0.200,-0.4,0.0,1.2,447,574,0
L,,42121,0.143,0.974,0.276,-0.6,0.2,0.7,456,585,0
L,,42180,0.138,0.997,0.183,0.0,0.1,1.3,459,596,0
L,,42240,0.175,0.976,0.216,0.0,0.3,1.2,460,596,0
L,,42302,0.000,0.961,0.168,0.5,0.8,3.0,445,575,0
L,,42361,0.164,0.967,0.197,1.2,1.1,2.8,425,547,0
L,,42420,0.195,0.970,0.189,1.6,1.0,3.0,404,518,0
L,,42481,0.191,0.974,0.204,2.2,0.9,3.9,394,504,0
L,,42541,0.342,0.989,0.241,-0.8,0.0,7.3,386,500,0
L,,42600,0.276,0.974,0.150,0.5,1.5,7.2,370,480,0
L,,42661,0.414,0.942,0.224,1.2,1.8,7.5,331,393,0
L,,42720,0.285,1.065,0.273,-0.1,0.5,4.7,246,208,0
L,,42781,0.107,1.107,-0.018,4.0,7.9,-0.5,233,218,0
L,,42840,0.253,0.956,-0.077,5.9,10.2,-1.2,230,223,0
L,,42901,0.337,0.966,-0.064,7.0,7.8,-1.7,234,229,0
L,,42962,0.247,1.020,0.110,9.1,11.0,-2.0,236,231,0
L,,43021,0.276,0.950,0.188,8.9,14.2,-4.7,239,246,0
L,,43081,0.208,1.000,0.246,8.6,19.1,-1.9,240,251,0
L,,43140,0.320,0.923,0.231,10.2,22.8,-5.8,240,249,0
L,,43201,0.291,0.886,0.263,3.4,18.7,-0.2,240,251,0
L,,43260,0.370,0.878,0.175,0.3,10.8,0.5,240,257,0
L,,43321,0.336,0.688,0.245,1.5,3.1,0.1,256,303,0
L,,43380,0.512,0.907,0.042,-2.0,4.2,1.2,260,333,0
L,,43441,0.460,1.052,0.078,-3.9,0.8,-1.0,303,398,0
L,,43500,0.235,1.013,0.292,-2.5,-0.1,-2.5,351,452,0
L,,43561,0.261,0.955,0.181,-1.7,-0.8,-3.5,369,479,0
L,,43621,0.169,0.981,0.209,-1.8,-0.7,-3.6,392,513,0
L,,43682,0.155,0.985,0.253,-1.4,-0.4,-2.7,410,535,0
L,,43741,0.159,0.989,0.254,-0.4,-0.4,-2.4,424,554,0
L,,43800,0.089,0.993,0.250,-0.2,-0.7,-1.6,437,570,0
L,,43861,0.109,0.979,0.217,0.2,-0.3,-0.6,446,581,0
L,,43920,0.098,0.979,0.231,0.4,-0.1,-0.1,449,587,0
L,,43981,0.089,0.988,0.239,0.7,0.0,0.2,455,596,0
L,,44041,0.089,1.005,0.219,0.8,-0.3,1.2,456,599,0
L,,44101,0.111,0.982,0.205,0.9,-0.7,1.1,454,599,0
L,,44161,0.123,0.981,0.202,0.4,-0.5,1.3,451,597,0
L,,44220,0.135,0.979,0.222,0.7,0.0,1.9,447,597,0
L,,44311,0.169,0.974,0.191,1.2,-0.3,1.1,435,589,0
L,,44371,0.162,0.970,0.173,0.8,-0.4,0.8,417,580,0
L,,44432,0.171,0.967,0.159,0.4,-0.2,0.8,421,581,0
L,,44491,0.176,0.973,0.173,0.0,-0.2,0.7,425,581,0
L,,44550,0.180,0.972,0.177,0.1,-0.1,0.5,430,585,0
L,,44611,0.184,0.974,0.180,0.0,-0.3,0.4,433,586,0
L,,44670,0.184,0.974,0.180,0.0,-0.4,0.2,435,586,0
L,,44731,0.186,0.980,0.181,0.0,-0.4,0.2,438,588,0
L,,44791,0.183,0.975,0.173,0.0,-0.4,0.2,439,587,0
L,,44851,0.186,0.975,0.183,-0.1,-0.4,0.2,443,589,0
L,,44911,0.180,0.977,0.195,0.0,-0.3,0.2,445,590,0
L,,44970,0.184,0.973,0.185,0.0,-0.2,0.2,447,590,0
L,,45031,0.182,0.975,0.188,-0.1,-0.4,0.1,448,591,0
L,,45092,0.185,0.975,0.192,0.0,-0.3,0.2,448,592,0
L,,45151,0.194,0.971,0.190,0.0,-0.3,0.1,452,597,0
L,,45210,0.198,0.973,0.182,0.0,-0.4,0.0,454,599,0
L,,45271,0.187,0.976,0.183,-0.1,-0.3,0.0,460,601,0
L,,45331,0.183,0.970,0.194,-0.4,-0.3,0.2,460,601,0
L,,45391,0.183,0.976,0.206,-0.2,-0.4,0.2,459,600,0
L,,45451,0.190,0.973,0.213,0.0,-0.4,0.1,460,602,0
L,,45510,0.185,0.971,0.203,0.2,-0.4,0.1,463,605,0
L,,45571,0.189,0.973,0.198,0.4,-0.3,0.2,466,607,0
L,,45630,0.193,0.970,0.196,0.3,-0.3,0.2,467,612,0
L,,45691,0.188,0.969,0.189,0.2,-0.3,0.2,468,612,0
L,,45750,0.187,0.969,0.186,0.0,-0.2,0.3,469,612,0
L,,45812,0.189,0.970,0.193,-0.3,-0.2,0.4,466,605,0
L,,45871,0.194,0.971,0.205,-0.4,-0.1,0.4,463,602,0
L,,45931,0.200,0.975,0.213,-0.1,-0.2,0.3,460,595,0
L,,45991,0.207,0.972,0.209,0.2,-0.4,0.1,462,598,0
L,,46050,0.198,0.972,0.205,0.4,-0.4,0.0,463,601,0
L,,46111,0.197,0.970,0.199,0.4,-0.4,0.0,464,605,0
L,,46170,0.196,0.970,0.196,0.3,-0.4,0.0,468,609,0
L,,46260,0.199,0.975,0.200,0.1,-0.4,0.0,467,611,0
L,,46321,0.195,0.971,0.197,0.1,-0.4,0.1,469,612,0
L,,46380,0.199,0.974,0.193,0.1,-0.4,0.1,471,613,0
L,,46471,0.195,0.969,0.193,0.0,-0.4,0.1,472,613,0
L,,46533,0.195,0.975,0.195,0.0,-0.4,0.1,471,615,0
L,,46590,0.191,0.971,0.193,0.0,-0.2,0.4,471,615,0
L,,46651,0.195,0.976,0.179,0.0,0.3,0.7,471,616,0
L,,46709,0.217,0.965,0.197,0.0,0.6,1.0,467,608,0
L,,46771,0.210,0.967,0.206,0.2,0.5,1.2,460,597,0
L,,46831,0.218,0.972,0.203,0.4,0.6,1.2,455,592,0
L,,46891,0.232,0.961,0.209,0.6,0.2,1.2,448,585,0
L,,46951,0.222,0.969,0.194,0.6,0.1,1.4,440,577,0
L,,47011,0.230,0.960,0.180,0.2,0.5,1.9,413,550,0
L,,47071,0.273,0.953,0.214,0.2,0.0,1.6,388,516,0
L,,47130,0.262,0.974,0.209,1.0,-0.3,1.3,375,502,0
L,,47190,0.289,0.965,0.180,1.3,0.2,1.2,347,473,0
L,,47252,0.266,0.934,0.162,0.7,0.8,1.4,329,461,0
L,,47311,0.283,0.944,0.195,0.3,1.0,1.6,318,425,0
L,,47371,0.294,0.939,0.164,0.0,0.8,1.5,310,405,0
L,,47431,0.377,0.948,0.182,0.6,0.1,1.0,312,399,0
L,,47491,0.304,0.953,0.178,0.6,-0.5,0.2,325,421,0
L,,47550,0.364,0.938,0.149,0.7,-0.6,0.0,326,431,0
L,,47611,0.290,0.945,0.136,0.3,-1.0,0.0,319,440,0
L,,47670,0.322,0.948,0.163,0.1,-0.7,0.0,327,457,0
L,,47731,0.321,0.947,0.165,0.3,-0.4,0.0,327,465,0
L,,47791,0.315,0.947,0.166,0.3,-0.5,-0.2,330,469,0
L,,47851,0.299,0.954,0.159,0.2,-0.6,-0.3,336,480,0
L,,47911,0.314,0.951,0.146,0.2,-0.5,-0.3,336,489,0
L,,47972,0.297,0.947,0.153,0.2,-0.4,-0.2,333,497,0
L,,48031,0.301,0.953,0.144,0.1,-0.4,-0.1,341,506,0
L,,48090,0.298,0.952,0.144,0.0,-0.4,-0.1,349,514,0
L,,48151,0.293,0.943,0.141,0.0,-0.3,0.0,351,519,0
L,,48210,0.288,0.948,0.135,0.0,-0.3,0.0,360,526,0
L,,48271,0.290,0.951,0.144,-0.2,-0.6,0.0,368,531,0
L,,48331,0.276,0.976,0.176,-0.4,-0.4,0.0,374,533,0
L,,48391,0.323,0.970,0.183,0.0,-0.3,0.0,382,538,0
L,,48451,0.336,0.996,0.179,1.5,-1.2,-1.2,372,528,0
L,,48511,0.418,1.126,0.225,4.9,-2.8,-3.5,314,443,0
L,,48571,0.342,1.145,0.322,6.4,-0.3,-5.8,228,229,0
L,,48632,0.650,0.470,0.469,0.3,-2.1,-2.1,229,228,0
L,,48691,0.644,0.512,0.504,-7.2,5.1,8.0,231,238,0
L,,48750,0.450,1.009,0.325,-11.5,8.3,11.7,239,248,0
L,,48811,0.222,1.105,0.055,-10.4,7.9,9.3,243,256,0
L,,48871,0.033,1.057,0.083,-5.1,9.1,6.3,239,261,0
L,,48931,-0.046,1.106,-0.040,1.3,11.4,1.4,252,290,0
L,,48991,0.814,0.862,-0.110,9.9,1.4,-1.6,258,272,0
L,,49051,0.180,1.585,0.048,5.0,-6.4,-14.7,336,401,0
L,,49111,-0.029,0.902,0.260,7.5,-0.9,-6.7,349,430,0
L,,49170,0.153,0.930,0.248,3.4,0.1,-5.6,353,453,0
L,,49231,0.045,0.971,0.265,1.7,-0.1,-4.6,357,460,0
L,,49291,0.078,0.979,0.204,0.9,1.0,-2.1,363,468,0
L,,49352,0.040,0.999,0.256,0.4,1.6,-1.0,368,473,0
L,,49411,0.072,0.999,0.241,0.8,2.2,-1.1,368,470,0
L,,49471,0.028,1.004,0.286,1.4,1.3,-2.4,369,471,0
L,,49531,0.089,0.991,0.287,5.3,1.8,-3.0,372,473,0
L,,49591,0.053,1.077,0.184,7.5,0.4,-4.3,311,434,0
L,,49651,0.131,1.202,0.210,11.3,0.4,-5.1,359,511,0
L,,49710,0.519,1.778,0.323,17.0,3.4,-9.5,341,531,0
L,,49771,1.118,1.758,0.700,20.9,0.7,-15.5,252,431,0
L,,49831,0.103,0.744,0.348,19.1,4.7,-13.6,188,233,0
L,,49891,0.347,-0.216,0.400,-7.2,1.7,4.0,222,239,0
L,,49951,0.327,0.017,0.194,-15.7,7.6,14.8,229,257,0
L,,50011,0.403,0.569,0.352,-26.3,2.5,22.9,225,264,0
L,,50073,0.383,1.649,0.544,-34.7,1.6,28.7,230,266,0
L,,50131,-0.238,2.909,0.376,-34.4,3.9,25.0,230,294,0
L,,50191,-0.449,2.599,-1.705,-1.3,22.1,14.4,187,265,0
L,,50250,1.049,-0.035,2.457,2.9,-8.8,-22.5,278,324,0
L,,50310,-0.084,1.194,0.376,7.0,-0.1,-12.7,348,439,0
L,,50371,0.054,0.922,0.304,8.2,-1.1,-5.3,359,460,0
L,,50431,0.139,1.022,0.258,2.3,-1.1,-4.5,370,480,0
L,,50491,-0.017,0.949,0.368,2.2,0.3,-2.1,375,487,0
L,,50551,0.136,0.969,0.324,1.3,0.0,-1.8,378,487,0
L,,50611,0.030,0.922,0.410,4.1,1.3,-2.6,379,489,0
L,,50670,0.095,0.971,0.229,6.7,0.2,-3.9,392,508,0
L,,50733,-0.018,1.060,0.284,7.9,0.7,-2.7,379,512,0
L,,50791,0.079,1.161,0.162,10.5,1.0,-4.0,334,522,0
L,,50851,0.150,1.404,0.216,13.7,2.8,-5.2,368,559,0
L,,50911,0.800,2.026,0.612,18.9,3.5,-8.5,338,557,0
L,,50971,-0.064,1.592,-0.198,22.6,5.6,-20.2,194,415,0
L,,51031,-0.240,0.010,0.711,7.2,0.9,-6.9,208,230,0
L,,51091,0.401,-0.168,0.460,-8.3,5.0,10.0,227,256,0
L,,51181,0.466,0.574,0.390,-27.3,1.4,21.7,236,278,0
L,,51241,0.414,1.528,0.543,-35.8,3.2,27.2,229,251,0
L,,51301,-0.094,2.544,-0.118,-37.6,4.7,26.1,230,282,0
L,,51361,-1.506,2.658,-1.870,-9.4,15.3,9.9,227,305,0
L,,51421,1.443,-0.315,2.301,6.8,-14.4,-6.5,271,296,0
L,,51483,-0.181,1.590,0.089,9.2,-4.1,-15.0,359,455,0
L,,51541,-0.119,0.871,0.171,11.1,1.4,-6.2,377,487,0
L,,51601,0.169,1.010,0.117,4.0,-0.3,-5.1,400,520,0
L,,51661,-0.035,0.954,0.293,2.9,0.4,-3.7,416,542,0
L,,51721,0.063,0.960,0.240,1.4,0.3,-1.5,417,543,0
L,,51781,0.030,1.002,0.317,3.9,1.6,-1.3,403,544,0
L,,51871,-0.013,1.017,0.290,7.1,0.0,-3.8,362,541,0
L,,51931,0.100,1.174,0.209,9.8,1.3,-1.5,368,567,0
L,,51991,0.089,1.379,0.334,13.3,0.5,-6.0,335,569,0
L,,52051,0.541,1.862,0.452,18.5,3.7,-8.3,350,572,0
L,,52111,0.415,1.753,0.293,24.9,5.3,-20.1,202,429,0
L,,52171,-0.619,-0.276,0.497,14.7,-2.0,-12.3,200,228,0
L,,52233,0.264,-0.232,0.417,-7.5,5.3,5.3,227,273,0
L,,52291,0.288,0.106,0.278,-20.9,0.3,15.9,222,275,0
L,,52351,0.283,0.917,0.423,-31.8,-0.1,24.4,227,282,0
L,,52441,0.264,2.157,0.044,-35.1,4.7,25.7,235,347,0
L,,52500,-0.585,2.288,-0.740,-19.6,7.9,15.5,237,362,0
L,,52561,-0.294,1.667,-0.952,14.1,9.9,-7.2,212,338,0
L,,52621,1.154,1.777,-0.475,10.6,-6.7,-11.7,310,371,0
L,,52711,-0.013,0.809,0.162,8.2,-3.7,-8.5,376,483,0
L,,52771,0.068,0.967,0.280,5.7,2.0,-4.5,406,527,0
L,,52831,0.019,0.979,0.281,3.0,0.0,-4.2,429,559,0
L,,52891,-0.001,0.939,0.302,1.9,0.4,-1.6,429,566,0
L,,52953,-0.025,0.976,0.320,2.9,0.9,-1.5,419,560,0
L,,53011,-0.002,0.964,0.326,5.0,1.1,-2.8,403,559,0
L,,53071,-0.040,1.008,0.225,6.5,0.8,-3.6,368,552,0
L,,53131,-0.014,1.220,0.208,9.1,1.2,-2.6,372,576,0
L,,53221,0.180,1.506,0.284,14.5,2.6,-6.1,362,585,0
L,,53281,0.782,2.047,1.153,21.6,5.6,-10.1,320,572,0
L,,53341,0.031,1.410,-0.173,23.8,4.3,-18.3,201,406,0
L,,53401,-0.221,0.143,0.151,4.8,9.8,-1.5,210,248,0
L,,53461,0.382,-0.075,0.118,-8.6,6.8,5.9,232,269,0
L,,53551,0.299,0.534,0.361,-29.0,0.1,18.8,231,299,0
L,,53611,0.216,1.438,0.327,-32.7,6.1,23.0,221,319,0
L,,53671,0.276,1.885,-0.039,-28.4,17.9,25.9,251,345,0
L,,53733,-0.133,2.206,-0.652,-30.6,7.5,14.7,259,359,0
L,,53791,-0.311,1.770,-1.168,12.5,8.0,-6.2,261,352,0
L,,53851,0.679,1.250,-5.536,43.5,21.1,-16.4,316,380,9
L,,53941,-0.087,0.868,0.374,7.4,-1.9,-8.1,374,484,0
L,,54001,0.171,0.971,0.285,5.1,1.2,-4.7,394,512,0
L,,54061,-0.004,0.982,0.314,3.6,0.0,-3.8,421,549,0
L,,54121,-0.016,0.922,0.334,1.5,1.1,-1.5,422,555,0
L,,54181,-0.009,0.960,0.302,2.5,-0.5,0.0,410,548,0
L,,54241,-0.032,0.941,0.430,3.6,2.3,-2.0,400,541,0
L,,54301,-0.074,0.994,0.286,5.2,0.7,-3.6,334,539,0
L,,54361,-0.067,1.087,0.252,6.9,1.0,-4.0,386,562,0
L,,54422,-0.020,1.183,0.183,8.9,0.6,-4.3,382,571,0
L,,54481,0.115,1.422,0.199,11.9,3.9,-5.8,379,588,0
L,,54541,0.535,1.961,0.846,16.6,7.0,-9.6,364,589,0
L,,54601,0.019,1.355,-0.250,21.5,5.1,-16.9,216,426,0
L,,54661,-0.766,-0.148,0.333,7.9,18.1,-6.1,196,231,0
L,,54751,0.450,-0.026,0.171,-16.2,6.5,6.8,213,284,0
L,,54841,0.632,1.093,0.072,-31.9,5.5,19.8,221,303,0
L,,54901,0.152,1.864,0.123,-31.1,13.9,24.4,231,329,0
L,,54961,0.191,1.874,-0.142,-28.4,13.8,17.3,247,362,0
L,,55021,-0.640,1.944,-0.995,-16.2,8.2,15.0,250,344,0
L,,55082,-0.116,1.845,-0.439,9.6,5.4,-10.0,243,281,0
L,,55141,0.330,1.642,0.662,5.3,-6.2,-20.7,349,440,0
L,,55203,-0.135,0.705,0.439,7.5,-3.2,-7.4,381,492,0
L,,55260,0.061,0.948,0.243,7.0,4.2,-3.1,394,513,0
L,,55321,-0.068,0.945,0.413,4.0,0.6,-4.2,415,543,0
L,,55381,-0.041,0.942,0.314,2.3,1.0,-2.0,435,567,0
L,,55441,-0.060,0.949,0.360,2.5,0.5,-1.2,441,581,0
L,,55501,0.019,0.884,0.403,5.5,1.8,2.1,440,588,0
L,,55561,-0.073,0.965,0.294,5.6,0.0,-2.1,424,586,0
L,,55621,-0.073,1.029,0.249,5.6,1.3,-3.0,386,574,0
L,,55681,0.027,0.970,0.215,8.5,2.0,-1.6,388,590,0
L,,55741,-0.054,1.221,0.268,10.9,1.6,-4.3,381,595,0
L,,55801,0.347,1.714,0.362,16.1,5.7,-7.5,371,598,0
L,,55861,0.670,1.650,0.671,19.4,7.8,-15.7,241,491,0
L,,55922,-0.153,0.788,0.325,16.4,10.5,-12.7,166,269,0
L,,55981,0.604,-0.131,0.426,-6.4,13.7,-3.4,215,262,0
L,,56041,0.447,-0.017,0.021,-17.8,6.6,7.9,243,315,0
L,,56101,0.362,0.735,0.316,-28.4,3.9,17.0,230,321,0
L,,56161,0.252,1.481,0.174,-31.4,12.1,20.0,236,341,0
L,,56221,0.354,1.786,0.007,-29.1,19.5,23.1,260,369,0
L,,56281,-0.086,2.027,-0.474,-30.9,9.6,13.7,276,384,0
L,,56341,-0.323,2.410,-1.000,3.3,10.7,-6.1,280,355,0
L,,56401,0.237,1.802,0.839,4.3,-12.9,-19.7,357,454,0
L,,56461,-0.313,0.793,0.416,7.1,-2.0,-7.0,384,494,0
L,,56521,0.133,0.880,0.326,5.1,1.2,-4.9,392,505,0
L,,56583,-0.104,0.964,0.489,4.7,1.5,-3.7,412,536,0
L,,56641,-0.034,0.901,0.378,3.6,0.2,-3.2,428,556,0
L,,56701,-0.086,0.942,0.377,3.6,1.1,-1.4,442,573,0
L,,56761,-0.067,0.937,0.322,4.7,2.0,-0.3,449,587,0
L,,56821,-0.018,0.923,0.285,4.8,1.3,-0.7,442,596,0
L,,56881,-0.092,1.057,0.274,5.7,2.0,-1.8,409,577,0
L,,56941,-0.093,1.021,0.240,7.4,2.4,-1.6,379,586,0
L,,57001,-0.041,1.233,0.300,10.7,2.6,-3.9,392,594,0
L,,57091,0.483,1.913,0.591,16.8,7.6,-7.6,369,597,0
L,,57151,-0.292,1.554,-0.026,20.8,4.9,-19.1,231,451,0
L,,57211,-0.580,0.305,0.124,14.3,13.6,-7.9,204,231,0
L,,57271,0.207,0.027,0.476,-8.7,13.7,2.5,249,292,0
L,,57333,0.363,0.159,0.110,-18.9,6.6,11.4,256,313,0
L,,57391,0.292,0.813,0.454,-29.8,2.2,19.4,255,329,0
L,,57451,0.107,1.586,0.052,-32.9,8.9,20.5,239,331,0
L,,57511,-0.084,2.240,-0.042,-37.4,3.1,21.7,258,353,0
L,,57571,-0.941,2.268,-1.642,-10.2,9.8,10.7,264,357,0
L,,57631,1.136,0.695,1.371,-2.5,-10.9,-11.0,273,298,0
L,,57691,-0.058,1.840,0.222,6.0,-5.8,-20.3,369,473,0
L,,57751,-0.106,0.816,0.442,7.7,-2.6,-7.0,390,501,0
L,,57811,0.165,0.971,0.217,6.0,2.4,-3.9,410,535,0
L,,57872,-0.051,0.939,0.349,4.5,0.0,-4.0,435,564,0
L,,57931,-0.026,0.950,0.260,2.9,0.6,-1.2,444,578,0
L,,57991,0.042,0.927,0.234,3.6,-0.6,0.6,432,573,0
L,,58052,-0.016,0.966,0.315,3.5,2.1,-0.8,413,562,0
L,,58111,-0.057,0.951,0.311,4.7,0.0,-3.3,384,552,0
L,,58171,-0.057,1.132,0.261,7.4,0.2,-3.3,397,575,0
L,,58231,0.092,1.297,0.218,10.7,0.2,-4.2,380,590,0
L,,58291,0.272,1.541,0.243,14.7,2.7,-6.5,376,591,0
L,,58351,0.892,1.996,1.049,22.0,6.0,-13.4,288,590,0
L,,58412,-0.157,1.206,0.157,23.1,3.5,-15.7,195,374,0
L,,58471,0.404,0.032,0.502,-0.6,4.2,3.8,234,281,0
L,,58531,0.366,-0.004,0.176,-12.4,6.4,7.2,238,299,0
L,,58591,0.400,0.468,0.294,-24.4,3.5,18.6,243,322,0
L,,58651,0.399,1.247,0.276,-32.1,5.2,22.0,237,331,0
L,,58712,0.333,1.862,0.073,-33.9,8.2,25.7,265,364,0
L,,58771,-0.113,2.343,-0.396,-22.1,8.1,17.5,272,380,0
L,,58861,0.951,0.431,1.409,2.7,-6.5,-12.9,292,346,0
L,,58921,-0.236,1.724,-0.108,8.2,-6.3,-19.8,371,473,0
L,,58981,-0.132,0.766,0.404,9.0,-0.9,-7.2,387,494,0
L,,59041,0.179,0.940,0.170,4.6,1.9,-4.4,416,544,0
L,,59101,-0.064,0.943,0.340,2.2,-0.3,-4.5,445,581,0
L,,59162,0.011,0.951,0.273,0.5,1.1,-1.3,453,589,0
L,,59221,-0.058,0.941,0.349,0.9,0.1,0.0,447,589,0
L,,59281,0.001,0.921,0.361,3.1,1.6,0.0,433,576,0
L,,59341,-0.059,0.874,0.279,5.5,1.1,-2.9,414,567,0
L,,59401,-0.055,1.046,0.268,7.1,1.3,-3.1,383,564,0
L,,59462,-0.082,1.140,0.171,8.4,1.0,-4.1,374,573,0
L,,59521,0.011,1.304,0.163,10.7,2.3,-4.5,377,594,0
L,,59582,0.418,1.749,0.390,15.9,4.4,-6.9,361,594,0
L,,59670,-0.081,1.387,-0.268,21.4,5.1,-16.0,201,424,0
L,,59731,-0.282,0.056,0.219,5.7,13.4,-3.5,225,281,0
L,,59791,0.284,0.081,0.227,-9.0,7.4,3.3,244,311,0
L,,59851,0.312,0.179,0.207,-20.9,2.5,13.3,256,321,0
L,,59912,0.399,0.941,0.208,-29.1,1.7,21.0,253,339,0
L,,59971,-0.023,1.775,0.258,-30.9,6.5,22.7,268,380,0
L,,60031,0.000,1.939,0.068,-32.0,8.2,18.3,289,395,0
L,,60091,-0.663,2.080,-1.003,-10.0,14.9,11.2,283,394,0
L,,60151,0.488,1.679,-0.193,-0.4,2.3,-12.1,273,320,0
L,,60212,-0.055,1.842,0.482,4.4,-14.3,-20.1,369,469,0
L,,60271,-0.249,0.743,0.509,9.0,-4.1,-7.4,380,485,0
L,,60332,0.026,0.973,0.113,7.3,2.9,-3.3,405,526,0
L,,60391,-0.040,0.964,0.356,2.2,-0.9,-4.9,416,545,0
L,,60452,-0.051,0.935,0.311,2.3,1.8,-0.8,428,558,0
L,,60511,-0.068,0.969,0.372,0.8,0.0,-1.6,438,570,0
L,,60571,-0.075,0.943,0.386,3.0,1.8,-0.5,444,577,0
L,,60631,-0.069,0.973,0.311,5.1,1.0,-1.7,446,588,0
L,,60691,-0.092,1.167,0.261,6.7,1.6,-0.5,429,588,0
L,,60751,-0.056,1.142,0.251,6.8,1.1,-0.6,389,570,0
L,,60811,-0.050,1.310,0.241,10.5,3.3,-4.4,395,582,0
L,,60873,0.373,1.714,0.300,16.2,6.2,-6.8,384,591,0
L,,60931,1.071,1.772,0.670,19.9,6.5,-13.0,294,524,0
L,,60992,-0.417,0.966,0.285,17.3,5.1,-14.5,194,308,0
L,,61051,0.420,-0.080,0.666,-4.1,10.6,-0.4,238,270,0
L,,61111,0.331,0.028,0.128,-13.3,5.9,5.8,258,320,0
L,,61171,0.430,0.483,0.276,-25.4,4.4,18.5,265,335,0
L,,61231,0.385,1.365,0.290,-33.4,5.1,19.7,249,346,0
L,,61291,0.280,1.977,0.163,-32.8,13.1,25.3,257,360,0
L,,61351,0.020,2.276,-0.358,-20.1,16.9,16.1,279,385,0
L,,61412,-0.400,1.932,-1.062,12.4,10.8,-5.8,274,372,0
L,,61471,0.942,0.926,-5.399,11.8,17.9,-17.1,325,387,9
L,,61532,-0.193,0.914,0.462,8.2,-3.8,-11.2,379,490,0
L,,61593,-0.087,0.932,0.319,8.6,1.5,-4.7,394,512,0
L,,61651,0.032,0.999,0.318,2.3,-0.4,-4.2,408,533,0
L,,61711,-0.061,0.952,0.340,1.8,1.2,-1.6,428,559,0
L,,61771,-0.031,0.961,0.369,0.0,0.0,-1.6,431,561,0
L,,61832,-0.070,0.935,0.421,2.6,1.1,-0.7,438,573,0
L,,61891,-0.054,0.989,0.328,4.5,1.6,-1.3,444,590,0
L,,61952,-0.069,0.968,0.283,8.3,1.0,0.0,432,595,0
L,,62011,-0.086,1.049,0.250,8.0,1.5,-1.4,396,582,0
L,,62072,-0.047,1.198,0.302,10.4,2.4,-4.5,391,600,0
L,,62131,0.232,1.602,0.250,15.1,5.1,-6.6,392,605,0
L,,62191,0.786,1.918,0.848,19.3,8.5,-12.6,299,590,0
L,,62252,-0.482,1.040,0.136,18.8,3.0,-15.7,197,352,0
L,,62311,0.386,0.089,0.457,-2.0,12.9,-2.2,247,314,0
L,,62372,0.441,-0.029,0.043,-11.5,9.3,4.1,263,317,0
L,,62431,0.508,0.416,0.263,-24.1,4.3,16.3,279,356,0
L,,62492,0.513,1.218,0.172,-31.5,4.0,22.6,262,366,0
L,,62551,0.276,1.861,0.259,-31.5,11.7,26.0,254,382,0
L,,62612,-0.111,1.944,-0.150,-31.0,11.6,20.4,284,408,0
L,,62671,-0.782,2.205,-1.512,3.4,13.8,5.0,287,406,0
L,,62731,1.493,-1.139,1.766,33.1,-49.7,-11.9,306,352,0
L,,62833,0.007,0.820,0.335,8.3,-3.8,-7.6,382,491,0
L,,62851,-0.072,0.854,0.336,6.9,-4.4,-6.8,384,496,0
L,,62912,0.060,0.978,0.284,3.5,1.5,-3.6,394,514,0
L,,62973,-0.072,0.942,0.369,2.7,0.0,-3.2,411,536,0
L,,63032,-0.030,0.941,0.313,1.1,1.2,-1.7,425,551,0
L,,63091,-0.063,0.977,0.347,0.8,1.9,-1.2,436,566,0
L,,63152,-0.065,0.991,0.402,3.0,1.4,-0.3,439,575,0
L,,63211,-0.080,0.989,0.293,4.4,1.5,-1.8,441,582,0
L,,63271,-0.047,1.002,0.308,6.9,2.1,-2.1,401,560,0
L,,63332,-0.055,1.085,0.234,8.3,1.7,-2.4,396,571,0
L,,63391,0.032,1.353,0.275,11.8,4.0,-5.2,398,591,0
L,,63452,0.478,1.909,0.511,17.3,8.0,-8.6,380,585,0
L,,63511,-0.184,1.578,-0.399,20.7,3.9,-14.6,238,456,0
L,,63572,-0.469,0.558,0.070,13.9,17.2,-10.3,213,252,0
L,,63631,0.318,-0.108,0.513,-10.5,15.4,2.9,239,287,0
L,,63693,0.657,-0.141,-0.021,-21.5,5.4,10.8,244,313,0
L,,63751,0.449,0.653,0.405,-31.5,1.2,20.7,244,313,0
L,,63811,0.199,1.738,0.161,-32.0,7.6,23.4,238,322,0
L,,63872,-0.056,2.254,-0.091,-30.4,10.7,21.3,268,364,0
L,,63931,-0.843,2.214,-1.481,-12.0,10.6,11.3,280,365,0
L,,63992,-0.129,1.356,-0.618,13.4,1.9,-9.6,272,328,0
L,,64051,0.620,1.669,-0.253,11.4,-13.6,-10.9,356,444,0
L,,64112,-0.072,0.917,0.381,5.4,-3.9,-7.6,389,499,0
L,,64171,-0.053,0.835,0.249,6.8,4.4,-2.8,401,516,0
L,,64231,0.000,0.958,0.380,2.6,0.0,-3.6,425,548,0
L,,64322,-0.062,0.945,0.446,3.2,1.5,-0.1,432,559,0
L,,64383,-0.092,0.925,0.371,5.2,1.6,0.3,422,556,0
L,,64442,0.027,0.927,0.245,5.7,2.3,-1.2,404,540,0
L,,64501,-0.004,1.000,0.264,5.8,1.2,-2.2,381,539,0
L,,64561,-0.025,1.080,0.264,7.5,1.7,-3.7,385,564,0
L,,64622,0.040,1.157,0.226,9.7,1.2,-4.7,382,587,0
L,,64681,0.181,1.508,0.262,14.0,2.5,-6.8,385,590,0
L,,64742,0.821,2.084,1.061,22.3,7.5,-11.5,333,583,0
L,,64801,-0.090,1.361,0.120,21.6,0.6,-16.3,204,374,0
L,,64862,0.143,0.110,0.543,2.2,7.5,0.1,239,283,0
L,,64952,0.375,0.020,0.264,-17.5,2.9,13.3,260,328,0
L,,65011,0.343,0.666,0.366,-27.2,1.2,21.5,262,325,0
L,,65072,0.297,1.538,0.356,-34.7,3.8,23.6,247,335,0
L,,65163,-0.521,2.673,-0.130,-31.4,2.5,18.7,251,355,0
L,,65221,-0.746,2.095,-1.420,8.6,14.8,-1.7,257,359,0
L,,65282,1.272,0.181,2.460,-11.0,6.1,-23.1,315,383,0
L,,65341,-0.296,1.117,0.630,4.7,-5.3,-14.9,382,483,0
L,,65402,-0.114,0.922,0.351,8.9,1.3,-5.2,402,518,0
L,,65461,0.102,1.054,0.246,3.0,-0.9,-5.2,424,554,0
L,,65521,-0.080,0.970,0.291,3.0,0.9,-2.3,439,572,0
L,,65582,0.030,0.969,0.292,0.7,-0.2,-2.1,444,578,0
L,,65641,-0.059,0.955,0.320,3.2,0.0,-0.6,442,580,0
L,,65702,-0.013,0.963,0.242,5.7,-0.3,-2.3,438,583,0
L,,65761,-0.073,1.030,0.282,6.8,1.1,-3.4,414,581,0
L,,65822,-0.022,1.131,0.157,8.7,1.4,-2.7,385,592,0
L,,65883,0.025,1.323,0.198,11.8,2.2,-4.7,388,600,0
L,,65942,0.375,1.685,0.394,15.7,2.2,-6.8,366,597,0
L,,66032,-0.101,1.499,-0.225,22.0,4.1,-16.7,209,429,0
L,,66091,-0.066,0.182,0.335,5.4,12.9,-3.4,243,300,0
L,,66152,0.369,-0.025,0.196,-9.1,6.8,4.2,262,332,0
L,,66211,0.236,0.208,0.293,-22.0,0.0,14.3,261,319,0
L,,66301,0.314,1.413,0.242,-31.7,4.5,19.8,270,356,0
L,,66391,-0.243,2.166,0.011,-32.1,9.5,20.5,283,387,0
L,,66451,-1.256,2.441,-1.860,-6.3,9.8,6.8,280,389,0
L,,66511,1.151,-0.243,2.525,19.8,-21.6,-14.9,322,385,0
L,,66572,-0.294,1.265,0.425,8.0,-6.2,-13.9,375,481,0
L,,66633,-0.165,0.941,0.268,9.4,1.8,-4.2,404,519,0
L,,66692,0.113,0.993,0.281,3.2,0.0,-5.5,425,551,0
L,,66751,-0.113,0.956,0.351,2.8,0.8,-3.4,448,577,0
L,,66811,-0.047,0.951,0.290,1.2,0.2,-1.6,450,584,0
L,,66872,-0.114,0.951,0.348,2.3,0.3,0.0,439,581,0
L,,66931,-0.043,0.981,0.301,2.8,2.4,-0.1,422,568,0
L,,66992,-0.240,1.024,0.362,5.7,1.5,-0.7,394,557,0
L,,67051,-0.098,1.062,0.278,7.0,1.8,-4.1,393,571,0
L,,67112,0.000,1.232,0.241,10.0,1.8,-5.4,383,590,0
L,,67202,0.488,1.907,0.617,16.5,6.0,-8.8,367,598,0
L,,67261,-0.467,1.530,-0.254,18.1,1.0,-15.9,219,456,0
L,,67322,-0.421,0.228,0.975,5.0,18.5,-9.9,220,271,0
L,,67383,0.638,-0.118,-0.001,-7.2,12.0,3.1,267,322,0
L,,67442,0.324,0.187,0.249,-22.4,1.3,12.1,276,358,0
L,,67501,0.456,1.025,0.075,-30.9,1.3,18.8,262,366,0
L,,67562,0.096,1.749,0.265,-28.7,13.7,25.7,265,392,0
L,,67622,0.216,1.987,0.023,-31.0,18.2,17.9,286,420,0
L,,67681,-0.496,2.046,-1.350,-17.2,11.9,13.1,303,425,0
L,,67742,0.249,1.712,-0.157,3.2,0.4,-8.7,302,363,0
L,,67801,0.102,1.879,0.474,7.0,-8.5,-18.2,364,465,0
L,,67862,-0.149,0.792,0.449,8.5,-2.8,-6.8,393,511,0
L,,67921,0.005,0.912,0.235,6.7,2.7,-3.7,406,529,0
L,,67982,-0.064,0.954,0.363,4.3,1.3,-3.4,426,557,0
L,,68041,-0.083,0.948,0.313,2.9,0.9,-1.4,446,580,0
L,,68103,-0.068,0.976,0.308,1.4,0.7,-0.6,451,592,0
L,,68162,-0.103,0.934,0.353,3.2,0.0,0.1,445,589,0
L,,68221,-0.093,0.956,0.285,3.4,0.8,-2.3,433,586,0
L,,68281,-0.062,1.024,0.289,5.1,1.7,-2.1,407,571,0
L,,68341,-0.105,1.062,0.257,7.2,1.6,-3.2,402,581,0
L,,68402,-0.009,1.145,0.263,11.0,1.9,-3.4,387,592,0
L,,68461,0.289,1.505,0.282,14.4,4.9,-7.2,379,596,0
L,,68522,0.771,1.939,0.996,19.0,11.9,-13.0,299,569,0
L,,68612,-0.881,0.198,0.230,10.3,19.3,-9.4,218,276,0
L,,68671,0.378,-0.059,0.213,-8.2,14.9,-1.8,250,298,0
L,,68732,0.332,0.075,0.173,-21.0,3.8,7.4,271,330,0
L,,68793,0.494,0.767,0.248,-30.1,4.0,17.9,266,349,0
L,,68852,0.270,1.339,0.244,-32.2,6.0,21.2,259,371,0
L,,68912,0.117,1.945,0.077,-33.6,13.3,25.6,285,391,0
L,,68971,-0.539,2.296,-1.742,-18.5,15.2,13.2,281,399,0
L,,69062,0.441,1.654,0.363,6.6,-16.5,-21.0,362,461,0
L,,69122,-0.332,0.634,0.458,9.7,-2.3,-7.9,390,498,0
L,,69181,0.075,0.990,0.210,7.9,1.4,-4.2,410,527,0
L,,69242,0.007,0.988,0.409,2.6,-0.2,-5.2,422,547,0
L,,69301,0.014,0.988,0.255,2.8,1.9,-1.0,445,576,0
L,,69362,-0.110,0.953,0.348,0.9,0.0,-1.6,451,584,0
L,,69421,-0.100,0.958,0.340,1.7,1.6,-0.3,460,596,0
L,,69482,-0.075,0.982,0.296,3.7,0.4,-1.3,458,600,0
L,,69543,-0.078,0.970,0.308,7.0,0.2,-0.3,437,591,0
L,,69602,-0.066,1.052,0.243,7.9,2.2,-0.8,407,585,0
L,,69662,-0.025,1.197,0.245,10.3,3.4,-4.5,403,594,0
L,,69721,0.227,1.601,0.304,15.1,5.4,-6.4,398,608,0
L,,69782,0.819,1.843,0.805,19.4,7.5,-12.1,322,576,0
L,,69841,-0.318,1.113,0.232,19.2,4.4,-15.0,196,338,0
L,,69902,0.406,0.060,0.452,-1.1,12.1,-2.3,240,297,0
L,,69961,0.472,-0.083,0.055,-12.1,9.4,3.8,265,320,0
L,,70022,0.358,0.394,0.281,-24.0,3.1,15.4,279,360,0
L,,70082,0.247,1.126,0.414,-32.7,1.2,23.1,267,367,0
L,,70142,0.250,1.862,0.274,-34.7,8.7,23.9,268,385,0
L,,70204,0.029,2.246,-0.238,-28.0,12.8,18.7,289,400,0
L,,70291,1.171,0.160,1.714,20.2,-2.3,-17.9,327,385,0
L,,70352,-0.122,1.557,-0.131,10.2,-7.1,-13.3,387,498,0
L,,70412,-0.160,0.845,0.481,9.0,0.5,-5.0,402,519,0
L,,70471,0.089,1.026,0.233,4.7,-0.3,-5.2,425,550,0
L,,70532,-0.067,0.933,0.387,4.1,1.1,-3.0,444,576,0
L,,70591,-0.075,0.947,0.352,2.6,0.5,-0.7,445,582,0
L,,70652,0.024,0.955,0.181,7.3,1.0,1.3,422,573,0
L,,70711,-0.131,0.933,0.336,5.0,3.1,0.6,399,555,0
L,,70772,-0.041,0.981,0.334,4.9,0.7,-3.0,386,557,0
L,,70832,-0.056,1.061,0.214,7.2,0.9,-3.1,383,572,0
L,,70892,0.067,1.214,0.116,9.7,0.4,-5.1,380,594,0
L,,70954,0.152,1.504,0.248,13.7,2.6,-6.1,385,604,0
L,,71041,0.371,1.765,0.701,20.9,1.0,-16.5,248,509,0
L,,71102,-0.218,0.684,0.357,14.9,8.0,-13.8,223,292,0
L,,71162,0.328,-0.028,0.395,-1.7,7.4,0.0,249,329,0
L,,71222,0.320,-0.033,0.169,-14.9,2.0,11.2,275,364,0
L,,71282,0.231,0.606,0.482,-26.6,-1.5,20.6,278,374,0
L,,71341,0.177,1.465,0.449,-31.9,2.7,22.8,266,395,0
L,,71401,-0.016,2.059,0.268,-35.3,5.6,23.3,287,406,0
L,,71461,-0.594,2.068,-0.584,-18.7,20.3,19.6,290,417,0
L,,71522,0.086,2.596,-1.208,10.5,2.8,-13.7,289,365,0
L,,71582,0.558,1.821,0.050,7.8,-17.9,-23.0,363,465,0
L,,71642,-0.151,0.765,0.321,10.3,-1.8,-8.0,388,499,0
L,,71704,0.008,0.980,0.158,8.0,2.3,-4.2,403,524,0
L,,71761,-0.032,0.957,0.415,4.5,0.0,-5.0,426,554,0
L,,71822,0.002,0.979,0.264,2.4,0.9,-1.9,444,575,0
L,,71881,-0.071,0.998,0.338,1.4,0.2,-0.9,445,581,0
L,,71942,-0.162,0.987,0.313,4.2,-2.3,0.0,439,580,0
L,,72001,-0.019,1.062,0.376,5.0,0.5,-1.6,432,580,0
L,,72062,-0.208,1.076,0.290,7.7,1.0,-0.7,394,568,0
L,,72122,0.020,1.242,0.212,9.6,2.3,-4.3,394,586,0
L,,72182,0.090,1.466,0.348,13.3,3.5,-5.4,391,598,0
L,,72272,0.755,1.805,0.804,23.1,7.3,-16.1,275,550,0
L,,72332,-0.200,0.942,0.376,17.7,3.4,-13.5,222,344,0
L,,72423,0.389,-0.033,0.156,-8.4,9.6,4.3,265,338,0
L,,72482,0.330,0.228,0.236,-21.3,0.5,14.6,279,362,0
L,,72541,0.248,0.945,0.481,-31.6,1.1,21.4,275,374,0
L,,72602,0.243,1.922,0.234,-34.0,7.1,24.1,262,400,0
L,,72662,-0.508,1.840,0.036,-33.3,4.5,20.2,291,403,0
L,,72722,-1.090,2.240,-1.394,-5.7,19.5,8.8,276,413,0
L,,72782,1.374,0.983,0.355,-11.9,-12.8,-7.9,307,362,0
L,,72872,-0.114,1.031,0.567,7.7,-4.1,-14.3,397,512,0
L,,72932,-0.156,0.928,0.327,10.5,1.5,-4.7,418,540,0
L,,72992,0.073,0.988,0.299,4.5,-0.6,-5.4,440,572,0
L,,73052,-0.100,0.964,0.256,3.3,0.4,-2.5,458,596,0
L,,73112,-0.032,0.966,0.255,0.4,-0.5,-1.4,464,603,0
L,,73173,-0.055,0.947,0.306,0.4,0.1,-1.0,458,605,0
L,,73231,-0.062,1.013,0.286,1.4,0.7,-1.4,461,612,0
L,,73291,-0.098,0.994,0.347,5.5,1.3,-2.1,450,607,0
L,,73352,-0.036,1.052,0.260,8.3,2.8,-2.6,407,595,0
L,,73412,-0.078,1.180,0.218,9.7,1.5,-3.1,404,603,0
L,,73472,0.187,1.447,0.174,13.2,3.7,-5.9,402,610,0
L,,73532,0.595,1.924,0.839,18.1,7.2,-11.7,368,607,0
L,,73591,-0.371,1.336,-0.395,18.4,6.9,-16.3,214,424,0
L,,73682,0.505,0.103,0.236,-0.3,12.1,-2.1,246,308,0
L,,73742,0.384,0.026,0.106,-14.9,2.7,7.2,276,358,0
L,,73802,0.436,0.539,0.212,-25.9,0.7,15.6,276,369,0
L,,73862,0.419,1.179,0.184,-30.2,5.8,21.2,263,379,0
L,,73923,0.119,1.944,0.278,-31.3,15.2,24.5,265,389,0
L,,73982,0.004,2.126,-0.283,-25.6,16.0,17.8,294,412,0
L,,74041,-0.725,2.059,-1.484,4.7,16.2,3.3,288,413,0
L,,74102,0.858,1.512,-2.877,16.4,-12.0,-11.0,359,450,0
L,,74162,-0.160,0.652,0.481,9.1,-6.7,-10.5,388,497,0
L,,74222,0.029,0.998,0.231,10.9,2.3,-4.1,400,518,0
L,,74282,0.012,0.993,0.321,3.9,-0.5,-5.7,431,565,0
L,,74342,-0.110,0.957,0.281,4.4,2.4,-1.0,447,586,0
L,,74402,-0.033,0.972,0.264,0.5,-0.9,-1.9,457,599,0
L,,74461,-0.077,0.980,0.276,1.0,1.2,-0.6,460,606,0
L,,74522,-0.043,0.982,0.300,2.8,0.1,-1.4,417,620,0
L,,74583,-0.099,1.006,0.299,6.1,0.3,-1.8,446,605,0
L,,74642,-0.060,1.066,0.262,7.2,1.7,-2.5,403,600,0
L,,74702,-0.013,1.171,0.211,8.8,0.3,-3.3,399,602,0
L,,74762,0.110,1.448,0.204,13.0,3.6,-5.6,397,607,0
L,,74822,0.400,1.902,0.812,16.4,6.4,-8.7,376,604,0
L,,74882,-0.044,1.406,-0.205,19.6,11.2,-18.4,227,441,0
L,,74972,0.738,-0.021,0.295,-0.8,12.2,-1.1,244,296,0
L,,75032,0.401,-0.029,0.059,-13.6,2.8,5.3,274,333,0
L,,75092,0.389,0.459,0.294,-26.6,0.8,16.1,276,362,0
L,,75152,0.406,1.199,0.218,-31.7,5.2,21.0,277,374,0
L,,75211,0.165,1.915,0.283,-31.9,17.5,25.8,268,400,0
L,,75272,0.280,2.344,-0.441,-25.4,13.9,17.2,303,419,0
L,,75333,-0.600,2.642,-1.261,0.0,8.9,-2.8,315,416,0
L,,75392,1.139,1.857,0.162,13.1,-12.7,-18.1,358,449,0
L,,75452,-0.303,0.670,0.438,8.1,-5.6,-9.8,391,498,0
L,,75512,0.031,0.991,0.255,8.6,2.7,-3.3,401,517,0
L,,75572,0.054,0.999,0.320,1.1,-1.4,-6.0,425,550,0
L,,75632,-0.120,0.947,0.369,2.7,2.1,-1.3,432,557,0
L,,75692,-0.004,0.960,0.385,0.2,-0.2,-2.7,438,563,0
L,,75751,-0.076,0.955,0.377,3.0,1.8,-1.0,446,577,0
L,,75812,-0.060,0.947,0.326,4.8,0.5,-2.5,455,590,0
L,,75871,-0.076,0.958,0.261,8.8,0.5,-1.6,448,596,0
L,,75932,-0.120,1.063,0.269,7.2,2.0,-1.2,407,579,0
L,,75992,-0.043,1.247,0.213,9.4,2.6,-4.6,407,589,0
L,,76053,0.072,1.485,0.257,13.1,5.1,-6.1,403,595,0
L,,76112,0.655,2.065,0.881,17.3,8.1,-10.1,377,595,0
L,,76172,0.082,1.380,-0.216,18.5,4.9,-14.5,218,420,0
L,,76232,-0.290,0.119,0.437,3.9,21.3,-6.2,248,300,0
L,,76291,0.536,0.020,0.101,-9.0,11.2,-0.1,264,330,0
L,,76351,0.402,0.264,0.165,-22.1,3.3,11.6,245,369,0
L,,76412,0.422,0.840,0.314,-30.6,2.4,19.6,281,364,0
L,,76472,0.276,1.667,0.267,-33.7,10.6,21.9,260,382,0
L,,76532,-0.276,2.544,0.124,-32.1,14.0,25.9,281,392,0
L,,76592,-1.153,2.468,-1.212,-7.8,19.2,8.4,274,401,0
L,,76652,0.930,0.123,1.218,18.2,-18.8,-11.1,321,373,0
L,,76713,-0.197,1.548,-0.078,9.8,-7.0,-14.2,381,489,0
L,,76772,-0.107,0.839,0.395,9.0,-1.0,-6.5,401,514,0
L,,76832,0.025,0.939,0.233,5.3,1.8,-4.1,420,547,0
L,,76892,-0.068,0.930,0.288,2.8,0.7,-3.5,444,577,0
L,,76952,-0.036,0.944,0.303,-0.2,0.2,-1.9,453,589,0
L,,77041,-0.062,0.915,0.447,2.0,1.9,0.0,444,583,0
L,,77102,-0.164,1.005,0.388,7.6,-2.6,-1.5,440,585,0
L,,77162,-0.144,1.003,0.294,6.8,2.0,-0.3,422,579,0
L,,77222,-0.029,1.161,0.319,8.3,4.0,-1.2,410,576,0
L,,77282,-0.083,1.227,0.297,10.0,4.1,-4.7,394,589,0
L,,77342,0.187,1.559,0.284,14.3,6.2,-6.8,391,591,0
L,,77402,0.688,2.059,0.861,20.9,14.5,-13.1,299,559,0
L,,77463,-0.197,1.171,0.413,19.6,4.6,-14.3,184,306,0
L,,77522,0.391,0.050,0.352,0.4,8.3,-0.2,253,308,0
L,,77582,0.344,-0.072,0.142,-11.6,9.6,7.7,257,330,0
L,,77642,0.415,0.303,0.238,-22.7,5.8,16.6,265,340,0
L,,77702,0.401,1.106,0.336,-32.1,2.8,24.5,253,349,0
L,,77762,0.371,1.965,0.152,-35.8,5.7,26.4,258,369,0
L,,77822,-0.503,2.553,-0.278,-26.2,8.5,18.2,289,399,0
L,,77882,-0.534,2.156,-1.512,9.3,9.0,-3.1,282,391,0
L,,77942,0.666,0.934,-3.770,-4.2,43.6,-21.7,341,409,0
L,,78002,-0.208,1.018,0.556,7.1,-1.5,-12.2,379,484,0
L,,78062,-0.034,0.961,0.360,7.5,1.0,-4.9,398,515,0
L,,78124,0.036,0.993,0.233,3.3,-0.5,-5.2,415,542,0
L,,78182,-0.027,0.974,0.320,3.1,1.1,-2.6,433,562,0
L,,78242,-0.017,0.963,0.276,1.6,0.5,-1.1,439,574,0
L,,78302,-0.020,0.916,0.254,2.0,1.1,1.2,435,572,0
L,,78362,-0.129,0.994,0.352,4.3,1.6,-0.7,420,565,0
L,,78422,-0.074,1.081,0.289,6.5,0.0,-3.0,392,561,0
L,,78482,0.035,1.170,0.200,9.1,0.8,-3.7,403,599,0
L,,78541,0.052,1.199,0.201,11.6,1.1,-5.6,391,610,0
L,,78602,0.463,1.651,0.379,17.0,3.7,-7.1,358,609,0
L,,78662,0.450,1.710,0.679,21.5,0.3,-16.8,243,514,0
L,,78722,-0.155,0.987,0.494,14.9,6.8,-17.7,213,318,0
L,,78782,0.490,-0.030,0.366,-2.5,7.1,-0.1,258,322,0
L,,78843,0.283,0.005,0.237,-15.1,1.6,8.5,271,334,0
L,,78902,0.280,0.472,0.388,-26.9,-2.0,17.9,277,359,0
L,,78962,0.132,1.331,0.343,-31.6,2.6,20.2,266,372,0
L,,79022,0.030,1.974,0.224,-34.2,7.3,23.4,296,404,0
L,,79082,-0.349,2.148,-0.244,-23.2,14.7,19.0,308,422,0
L,,79142,-0.390,1.947,-1.395,6.8,16.0,-0.2,293,418,0
L,,79202,0.407,1.495,0.904,-19.7,8.8,-24.7,339,416,0
L,,79262,-0.314,1.190,0.674,5.8,-5.9,-7.9,387,496,0
L,,79322,-0.081,0.982,0.340,8.8,1.6,-4.7,403,524,0
L,,79382,0.030,1.016,0.345,2.4,-0.8,-5.0,424,550,0
L,,79442,-0.052,0.989,0.312,3.0,1.2,-2.0,442,573,0
L,,79502,-0.079,0.974,0.328,1.5,0.3,-1.3,448,584,0
L,,79564,-0.044,0.935,0.302,4.9,-1.3,0.0,446,583,0
L,,79622,-0.037,0.956,0.274,4.4,0.8,-1.8,441,590,0
L,,79682,-0.094,1.023,0.226,6.4,1.7,-2.2,415,587,0
L,,79742,0.026,1.264,0.206,8.4,2.7,-2.4,405,594,0
L,,79802,-0.074,1.194,0.220,10.8,2.2,-4.7,396,605,0
L,,79862,0.265,1.551,0.239,15.1,4.7,-6.5,394,599,0
L,,79922,0.420,2.095,1.021,23.3,14.5,-15.2,292,595,0
L,,79982,-0.224,1.018,0.345,20.6,4.0,-14.0,210,370,0
L,,80042,0.140,0.008,0.279,-0.3,4.4,4.4,239,289,0
L,,80102,0.337,0.022,0.203,-13.4,5.5,7.5,254,311,0
L,,80162,0.355,0.435,0.264,-24.8,1.2,16.2,263,331,0
L,,80223,0.452,1.235,0.304,-32.7,4.5,22.4,258,351,0
L,,80282,0.203,1.997,0.172,-35.1,8.9,24.8,271,379,0
L,,80342,0.032,2.304,-0.315,-23.3,12.1,16.7,292,394,0
L,,80402,-0.469,1.947,-1.421,2.1,13.8,1.7,303,405,0
L,,80462,1.539,1.185,1.703,-0.5,9.5,-17.7,348,427,0
L,,80522,-0.048,0.954,0.660,9.0,-8.6,-12.9,388,495,0
L,,80583,-0.060,1.055,0.165,12.8,2.7,-4.0,413,535,0
L,,80642,0.018,0.986,0.269,5.6,0.5,-4.9,439,569,0
L,,80702,-0.125,0.939,0.245,2.4,0.0,-2.3,463,598,0
L,,80762,-0.058,0.954,0.247,0.0,-0.8,-1.5,467,608,0
L,,80822,-0.066,0.962,0.270,0.4,0.5,-0.9,467,611,0
L,,80882,-0.092,0.975,0.271,0.7,0.3,-1.5,468,617,0
L,,80944,-0.116,0.998,0.334,3.3,1.0,-1.6,456,613,0
L,,81002,-0.046,1.200,0.259,7.4,1.6,-2.5,411,598,0
L,,81062,0.029,1.274,0.199,9.6,1.8,-2.8,414,607,0
L,,81123,0.075,1.573,0.269,13.8,3.9,-5.7,404,606,0
L,,81182,0.487,1.979,0.838,16.3,9.2,-10.9,383,603,0
L,,81242,-0.352,1.222,-0.100,17.9,21.9,-18.7,230,438,0
L,,81301,-0.175,0.085,0.369,3.4,17.3,-5.2,243,310,0
L,,81362,0.446,-0.038,0.164,-12.2,9.0,2.3,259,333,0
L,,81422,0.396,0.316,0.195,-24.5,2.5,12.3,279,357,0
L,,81482,0.436,1.016,0.300,-32.6,1.5,21.2,265,367,0
L,,81542,0.235,1.857,0.134,-31.4,12.1,24.0,263,384,0
L,,81602,0.065,1.789,-0.284,-30.2,14.3,21.1,301,415,0
L,,81664,-0.840,2.178,-1.728,-17.9,14.8,11.9,317,424,0
L,,81722,0.513,0.325,2.140,32.0,-20.1,-5.6,331,399,0
L,,81782,0.066,1.380,0.283,8.3,-8.2,-15.8,378,488,0
L,,81842,-0.134,0.830,0.541,7.8,-0.3,-5.7,392,507,0
L,,81902,0.007,0.993,0.306,4.0,-0.2,-5.2,408,528,0
L,,81962,-0.082,0.966,0.361,3.4,1.2,-2.7,414,536,0
L,,82022,-0.100,0.955,0.376,1.7,1.2,-1.3,399,529,0
L,,82083,-0.308,0.965,0.321,5.7,-2.9,1.3,362,500,0
L,,82172,-0.083,0.926,0.282,4.2,3.8,-0.7,364,509,0
L,,82232,-0.087,1.026,0.322,4.9,2.5,-0.1,366,514,0
L,,82292,-0.093,1.059,0.262,6.5,1.7,-4.4,375,525,0
L,,82354,-0.023,1.225,0.244,9.4,1.9,-6.1,374,533,0
L,,82413,0.210,1.591,0.363,12.9,5.0,-8.0,364,540,0
L,,82472,0.416,1.776,0.710,18.0,11.8,-15.0,253,441,0
L,,82532,-0.312,1.176,0.447,12.9,14.0,-15.1,207,263,0
L,,82591,0.787,0.287,0.424,-0.7,15.3,-2.9,214,259,0
L,,82652,0.565,-0.065,0.016,-11.3,10.3,2.7,242,294,0
L,,82712,0.557,0.486,0.175,-23.4,5.4,15.7,242,325,0
L,,82772,0.280,0.974,0.238,-30.5,5.0,20.4,222,334,0
L,,82833,0.286,1.751,0.268,-32.0,14.3,25.6,229,353,0
L,,82892,-0.003,2.368,-0.411,-25.4,15.3,18.6,280,373,0
L,,82952,-0.959,2.139,-1.576,0.0,9.2,3.2,267,374,0
L,,83012,1.048,1.020,1.981,-3.0,-11.0,-14.9,334,404,0
L,,83074,-0.153,0.903,0.453,6.8,-4.7,-11.1,376,480,0
L,,83132,-0.027,0.994,0.292,9.3,3.0,-3.3,397,516,0
L,,83192,-0.014,1.006,0.346,3.6,0.0,-5.1,422,546,0
L,,83252,-0.072,0.977,0.298,3.0,2.2,-1.4,441,572,0
L,,83342,-0.086,0.958,0.311,1.7,0.9,0.2,437,575,0
L,,83402,-0.129,0.984,0.341,5.1,-0.3,1.7,422,563,0
L,,83462,0.053,0.969,0.348,5.7,2.9,-1.6,397,551,0
L,,83522,-0.067,0.926,0.224,8.6,3.7,-2.4,397,561,0
L,,83583,0.040,1.195,0.201,9.7,1.3,-5.4,385,580,0
L,,83642,0.152,1.466,0.273,13.1,3.9,-6.1,390,589,0
L,,83703,0.886,1.993,0.927,20.9,12.3,-10.8,343,581,0
L,,83762,-0.072,1.415,0.115,22.2,2.2,-16.2,206,410,0
L,,83824,-0.037,0.149,0.317,4.2,9.8,-2.1,249,314,0
L,,83882,0.285,0.040,0.156,-8.2,8.5,4.2,258,330,0
L,,83942,0.427,0.367,0.210,-21.2,2.7,14.2,270,360,0
L,,84002,0.272,0.868,0.414,-30.4,2.9,24.0,273,369,0
L,,84062,0.246,1.960,0.215,-34.7,7.9,24.9,226,397,0
L,,84123,-0.533,2.267,-0.060,-34.8,7.3,21.9,286,409,0
L,,84182,-1.176,2.345,-1.909,-0.5,15.5,8.3,267,395,0
L,,84243,1.185,0.487,2.335,-12.8,-6.8,-25.7,343,419,0
L,,84302,-0.051,1.048,0.673,5.6,-7.9,-15.0,386,498,0
L,,84362,-0.043,0.998,0.258,11.1,2.3,-4.2,402,522,0
L,,84422,0.193,1.001,0.272,3.7,-0.6,-5.8,424,556,0
L,,84484,-0.023,0.936,0.292,4.5,0.8,-2.8,448,584,0
L,,84542,-0.006,0.962,0.276,2.1,-0.8,-2.1,456,596,0
L,,84632,-0.018,0.974,0.299,3.2,-0.3,-0.9,455,608,0
L,,84692,-0.028,0.985,0.243,5.1,-0.9,-1.4,446,608,0
L,,84752,-0.070,1.083,0.236,7.7,1.3,-2.5,421,597,0
L,,84812,0.038,1.143,0.109,9.5,-0.2,-2.6,374,593,0
L,,84873,0.148,1.446,0.185,13.8,2.2,-5.3,379,598,0
L,,84932,0.494,1.978,0.850,18.0,3.3,-8.0,337,599,0
L,,84993,-0.392,1.449,-0.021,20.6,6.0,-18.6,225,460,0
L,,85052,-0.296,0.124,0.331,9.1,8.4,-5.0,246,306,0
L,,85112,0.291,-0.061,0.243,-7.5,5.9,3.6,277,351,0
L,,85172,0.308,0.120,0.230,-19.9,-2.0,12.0,284,343,0
L,,85234,0.321,0.806,0.407,-31.0,-2.2,20.4,289,376,0
L,,85292,0.156,1.699,0.209,-32.2,7.6,21.7,288,381,0
L,,85352,0.150,2.187,-0.039,-32.0,13.0,21.6,314,409,0
L,,85413,-0.565,2.129,-1.198,-20.9,9.5,11.2,318,420,0
L,,85472,0.597,1.370,-0.132,2.9,-4.8,-10.2,320,377,0
L,,85533,-0.117,1.707,0.345,7.0,-11.5,-23.4,379,481,0
L,,85592,-0.124,0.757,0.456,9.1,-2.8,-7.5,393,503,0
L,,85652,0.031,0.941,0.215,6.8,3.7,-3.4,414,538,0
L,,85711,-0.086,0.923,0.340,3.2,0.1,-4.2,441,573,0
L,,85772,-0.012,0.950,0.293,1.5,0.9,-1.6,450,583,0
L,,85833,-0.079,0.961,0.347,1.3,0.8,-1.0,452,586,0
L,,85894,-0.084,0.950,0.311,2.6,0.3,-1.2,446,585,0
L,,85953,-0.100,0.970,0.237,4.3,0.0,-2.1,439,593,0
L,,86012,-0.081,1.057,0.295,6.1,2.4,-2.9,415,580,0
L,,86072,-0.048,1.106,0.238,7.8,1.5,-2.9,409,585,0
L,,86163,0.146,1.485,0.216,12.8,4.7,-6.0,401,606,0
L,,86222,0.592,1.904,0.949,18.1,7.6,-10.5,372,605,0
L,,86283,-0.126,1.382,-0.152,19.7,6.2,-16.3,194,359,0
L,,86342,-0.385,-0.160,0.199,7.2,12.9,-6.0,225,263,0
L,,86402,0.185,0.013,0.268,-13.0,3.7,1.5,236,271,0
L,,86462,0.280,0.261,0.129,-21.6,3.6,12.1,270,326,0
L,,86522,0.525,0.844,0.272,-28.1,6.4,22.0,254,340,0
L,,86583,0.386,1.694,0.326,-33.0,12.6,26.0,243,333,0
L,,86644,-0.090,2.365,-0.074,-31.4,10.8,26.2,266,379,0
L,,86703,-1.020,2.139,-1.382,-13.0,16.1,8.8,265,387,0
L,,86762,1.049,0.714,1.369,21.7,-0.4,-20.3,330,391,0
L,,86823,-0.226,1.718,0.071,9.6,-7.9,-21.7,381,488,0
L,,86882,-0.076,0.796,0.484,9.1,-1.6,-7.0,399,512,0
L,,86942,0.053,0.951,0.231,6.3,2.6,-3.7,422,545,0
L,,87002,-0.052,0.910,0.319,3.4,1.0,-4.2,440,566,0
L,,87061,-0.032,0.956,0.296,0.8,0.5,-2.1,451,581,0
L,,87123,-0.065,0.961,0.387,0.9,0.6,-1.4,452,587,0
L,,87182,-0.083,0.931,0.386,3.5,1.5,-1.1,449,587,0
L,,87243,-0.087,1.030,0.397,6.5,-0.8,-2.1,444,589,0
L,,87333,-0.026,0.973,0.301,8.4,2.6,-1.0,414,583,0
L,,87394,-0.064,1.193,0.319,10.1,2.5,-5.4,402,594,0
L,,87453,0.210,1.520,0.247,13.8,5.2,-6.9,400,597,0
L,,87512,0.659,1.927,0.906,18.6,8.0,-14.0,347,575,0
L,,87573,-0.176,1.149,0.213,18.7,9.4,-14.5,207,341,0
L,,87632,0.124,0.037,0.344,-0.2,15.5,-1.0,253,304,0
L,,87692,0.450,0.002,0.158,-14.0,7.2,3.5,247,310,0
L,,87752,0.454,0.423,0.126,-24.4,5.1,14.7,264,341,0
L,,87812,0.500,1.088,0.258,-31.1,5.8,23.7,226,362,0
L,,87873,0.270,1.888,0.100,-34.4,12.5,27.0,264,374,0
L,,87932,-0.179,2.423,-0.115,-29.7,14.7,21.5,279,402,0
L,,87993,-0.591,2.084,-1.704,8.2,16.2,2.5,275,406,0
L,,88054,0.584,1.330,1.146,-23.8,10.2,-22.3,341,432,0
L,,88113,-0.101,1.125,0.552,7.4,-3.3,-10.8,386,491,0
L,,88172,-0.131,0.999,0.261,9.1,-0.2,-5.8,400,517,0
L,,88232,-0.026,0.975,0.283,5.2,1.3,-4.6,425,551,0
L,,88292,-0.097,0.956,0.291,3.7,1.1,-3.2,451,587,0
L,,88352,-0.101,0.933,0.284,1.1,0.3,-1.1,464,603,0
L,,88413,-0.068,0.975,0.313,0.9,0.6,-0.7,464,606,0
L,,88472,-0.247,0.996,0.391,3.8,-1.9,-0.9,451,604,0
L,,88533,-0.085,1.009,0.342,4.6,1.8,-1.2,429,597,0
L,,88592,-0.081,1.075,0.288,7.2,2.1,-3.1,413,604,0
L,,88653,0.075,1.063,0.217,10.2,2.3,-3.4,417,611,0
L,,88712,0.110,1.614,0.294,13.7,4.0,-5.7,403,609,0
L,,88774,0.817,2.048,1.016,19.4,16.0,-9.7,325,592,0
L,,88832,-0.503,1.056,0.216,19.4,5.8,-16.0,217,388,0
L,,88892,0.241,0.003,0.435,-2.7,10.7,-1.9,253,321,0
L,,88953,0.429,0.032,0.090,-13.4,7.5,3.7,258,326,0
L,,89012,0.502,0.499,0.117,-23.0,7.7,13.5,257,353,0
L,,89073,0.519,1.103,0.134,-29.6,7.7,21.1,267,356,0
L,,89132,0.324,1.777,0.278,-32.7,13.4,24.3,271,358,0
L,,89192,0.040,2.046,-0.281,-25.9,13.6,21.5,287,392,0
L,,89252,-0.590,2.070,-1.507,2.9,13.9,4.1,290,393,0
L,,89312,1.381,-0.543,2.618,44.6,-57.6,-1.6,333,389,0
L,,89373,-0.156,1.242,0.269,9.4,-2.8,-11.3,394,507,0
L,,89432,-0.115,0.956,0.259,8.0,-1.1,-6.6,406,517,0
L,,89494,0.000,0.992,0.292,4.3,1.0,-4.9,429,551,0
L,,89552,-0.063,0.964,0.295,3.0,1.0,-3.3,452,583,0
L,,89613,-0.085,0.927,0.299,1.6,1.4,-0.2,454,594,0
L,,89672,0.013,0.919,0.264,3.3,0.7,1.0,335,594,0
L,,89732,-0.063,0.933,0.348,2.2,1.8,-0.9,411,558,0
L,,89792,-0.081,1.026,0.337,5.5,1.2,-1.8,407,556,0
L,,89852,-0.042,1.227,0.273,7.9,1.8,-3.8,404,568,0
L,,89913,0.049,1.196,0.140,10.4,2.7,-4.9,380,577,0
L,,89972,0.135,1.443,0.236,13.2,3.5,-6.2,379,599,0
L,,90033,0.723,2.077,1.067,19.5,7.0,-10.3,352,601,0
L,,90092,-0.078,1.423,0.007,21.9,-0.1,-17.2,200,402,0
L,,90154,-0.049,-0.033,0.349,3.3,6.9,-1.7,239,342,0
L,,90212,0.267,0.006,0.181,-9.3,5.6,6.5,245,353,0
L,,90272,0.293,0.289,0.223,-21.0,3.0,16.1,221,379,0
L,,90333,0.431,0.939,0.249,-27.5,6.6,24.1,258,372,0
L,,90392,0.323,1.801,0.243,-32.7,8.7,26.3,236,389,0
L,,90453,-0.245,2.414,0.003,-30.9,7.0,22.5,282,391,0
L,,90512,-0.991,2.176,-1.777,-7.5,13.0,7.1,240,424,0
L,,90573,0.962,0.177,2.259,-0.4,-11.5,-15.7,319,368,0
L,,90632,-0.176,1.495,0.126,8.1,-1.2,-16.1,389,498,0
L,,90693,-0.072,0.814,0.233,7.7,-2.6,-8.0,405,525,0
L,,90752,0.145,0.955,0.279,5.3,2.1,-3.9,424,551,0
L,,90812,-0.048,0.945,0.317,2.6,-0.6,-3.9,439,573,0
L,,90874,-0.023,0.967,0.250,1.2,1.3,-0.5,439,572,0
L,,90932,-0.134,1.063,0.300,0.6,-1.7,-1.3,439,578,0
L,,90993,0.031,1.111,0.206,2.4,2.0,0.1,417,581,0
L,,91052,-0.077,1.044,0.284,6.3,0.3,-2.2,418,564,0
L,,91113,-0.107,1.141,0.291,9.0,0.6,0.5,334,583,0
L,,91172,0.053,1.126,0.191,10.1,1.5,-4.4,385,588,0
L,,91233,0.184,1.447,0.239,13.8,2.3,-5.3,388,598,0
L,,91292,0.756,1.929,0.963,21.4,6.9,-10.6,359,600,0
L,,91352,-0.168,1.440,-0.043,21.8,-0.3,-16.2,176,427,0
L,,91413,-0.174,0.143,0.142,8.0,5.9,-2.5,247,296,0
L,,91472,0.159,-0.014,0.178,-5.9,4.4,3.6,268,326,0
L,,91533,0.190,0.204,0.238,-18.2,0.4,14.4,275,353,0
L,,91594,0.305,0.719,0.407,-28.5,-0.6,20.7,281,371,0
L,,91653,0.103,1.858,0.271,-33.3,3.6,22.1,269,384,0
L,,91712,-0.164,2.208,0.046,-34.7,6.6,19.8,295,411,0
L,,91773,-0.711,2.149,-1.020,-22.6,11.7,13.3,296,400,0
L,,91833,0.121,1.696,-0.427,5.7,6.2,-8.1,281,346,0
L,,91892,0.164,1.643,0.835,4.6,-12.6,-23.8,369,466,0
L,,91952,-0.183,0.829,0.406,8.4,-4.1,-7.4,390,504,0
L,,92053,0.005,1.013,0.283,3.6,-0.5,-4.9,423,551,0
L,,92073,-0.035,0.975,0.357,4.0,0.2,-4.1,431,560,0
L,,92132,-0.009,0.969,0.289,2.6,0.7,-1.6,449,581,0
L,,92193,-0.088,0.972,0.320,1.5,0.2,-1.1,456,592,0
L,,92254,0.077,0.938,0.240,4.7,-1.1,-0.6,454,601,0
L,,92312,-0.048,0.960,0.198,4.2,0.8,-2.6,453,601,0
L,,92373,-0.093,1.028,0.290,6.9,1.2,-2.5,427,598,0
L,,92432,-0.020,1.200,0.317,9.6,1.5,-1.4,397,591,0
L,,92493,0.046,1.357,0.210,12.5,2.9,-4.4,404,607,0
L,,92552,0.390,1.827,0.472,15.6,2.6,-7.1,379,604,0
L,,92613,0.321,1.595,0.256,21.1,6.9,-16.3,216,481,0
L,,92672,-0.512,0.003,0.337,11.7,13.2,-11.2,234,296,0
L,,92733,0.471,-0.036,0.221,-5.1,9.5,0.1,269,334,0
L,,92792,0.339,0.108,0.134,-19.5,2.3,8.4,285,371,0
L,,92852,0.487,0.750,0.242,-29.6,2.3,17.9,244,392,0
L,,92913,0.218,1.501,0.231,-33.4,9.8,21.9,267,400,0
L,,92974,0.164,2.149,0.062,-33.9,17.5,21.6,299,422,0
L,,93033,-0.324,2.114,-1.046,-16.6,15.0,13.6,283,435,0
L,,93123,0.896,1.939,2.021,-16.6,5.5,-14.1,310,433,0
L,,93182,-0.185,1.020,0.627,8.0,-6.3,-11.5,386,496,0
L,,93242,-0.082,1.013,0.216,10.2,1.4,-4.0,395,510,0
L,,93302,0.018,0.983,0.272,4.8,-0.3,-4.5,414,540,0
L,,93363,-0.100,0.914,0.245,3.8,1.0,-2.0,436,565,0
L,,93422,-0.053,0.978,0.320,0.9,-0.6,-0.9,442,579,0
L,,93483,-0.081,0.908,0.336,1.0,1.5,-0.1,445,581,0
L,,93542,-0.054,0.955,0.226,2.1,1.0,-0.8,447,588,0
L,,93602,-0.079,0.965,0.292,3.0,2.7,0.8,443,590,0
L,,93665,-0.106,1.030,0.330,6.0,3.1,-1.3,420,579,0
L,,93722,-0.086,1.219,0.361,9.1,3.6,-1.4,413,591,0
L,,93813,0.292,1.682,0.366,14.1,7.3,-7.7,380,593,0
L,,93873,-0.301,1.364,0.522,16.0,26.7,-12.7,248,466,0
L,,93932,-0.546,0.748,0.255,11.9,24.4,-12.9,229,320,0
L,,94023,0.558,0.106,0.080,-11.5,15.3,0.0,249,335,0
L,,94083,0.637,0.503,0.082,-23.6,8.5,10.4,271,363,0
L,,94142,0.478,1.085,0.174,-30.2,5.3,17.3,271,378,0
L,,94203,0.366,1.832,0.319,-31.6,13.0,20.5,230,390,0
L,,94262,0.088,1.784,-0.225,-22.3,19.5,17.0,238,416,0
L,,94323,-0.418,1.967,-1.301,3.0,13.0,3.7,276,400,0
L,,94382,1.188,1.360,2.193,14.7,-22.8,-2.6,318,381,0
L,,94444,-0.071,1.112,0.548,7.9,-7.0,-10.8,382,494,0
L,,94502,-0.151,0.921,0.287,8.7,0.4,-5.0,399,515,0
L,,94563,0.020,0.985,0.310,4.3,0.6,-4.4,428,557,0
L,,94623,-0.090,0.963,0.276,3.3,1.3,-2.7,453,586,0
L,,94682,-0.091,0.935,0.282,1.2,0.6,-0.7,457,599,0
L,,94743,-0.119,0.984,0.290,1.2,1.2,0.8,453,599,0
L,,94802,-0.058,0.978,0.287,0.9,1.9,1.2,441,591,0
L,,94863,-0.064,0.992,0.316,5.2,1.9,-0.3,423,571,0
L,,94922,0.090,1.317,0.320,6.9,2.9,-1.8,390,556,0
L,,94983,-0.008,1.160,0.240,8.8,3.0,-3.7,401,573,0
L,,95073,0.242,1.558,0.348,13.7,4.4,-6.1,240,620,0
L,,95163,-0.034,1.522,-0.110,20.1,-0.5,-17.9,250,466,0
L,,95224,-0.482,0.217,0.180,12.3,12.2,-8.2,226,285,0
L,,95283,0.271,0.086,0.484,-4.9,1.2,3.0,247,320,0
L,,95342,0.125,0.204,0.247,-16.4,2.8,10.2,271,313,0
L,,95403,0.403,0.653,0.218,-25.5,9.7,19.9,266,360,0
L,,95462,0.383,1.318,0.354,-30.7,13.3,25.4,223,400,0
L,,95523,0.373,2.474,0.178,-36.3,9.9,23.4,241,404,0
L,,95583,-0.845,2.319,-0.917,-16.0,13.2,14.3,268,411,0
L,,95643,0.599,1.416,-0.546,1.6,3.4,-15.1,205,394,0
L,,95703,-0.182,1.614,0.391,4.5,-10.2,-21.1,376,477,0
L,,95762,-0.235,0.832,0.309,10.2,-1.7,-7.1,397,513,0
L,,95823,0.071,0.919,0.199,5.9,0.3,-5.3,429,565,0
L,,95884,-0.063,0.962,0.315,4.4,1.4,-1.6,448,597,0
L,,95943,-0.095,0.907,0.289,1.7,0.4,-0.3,447,610,0
L,,96002,-0.054,0.964,0.257,-0.7,0.0,0.4,458,617,0
L,,96063,0.021,1.014,0.415,0.2,-0.6,-0.3,442,579,0
L,,96123,-0.030,0.998,0.467,5.3,-2.8,-2.3,422,547,0
L,,96183,-0.066,0.983,0.198,6.2,0.3,-2.1,443,571,0
L,,96243,-0.074,1.024,0.175,6.0,0.5,-2.2,427,595,0
L,,96302,-0.107,1.223,0.292,8.0,1.2,-0.5,406,577,0
L,,96363,0.001,1.226,0.131,10.2,4.1,-1.9,395,592,0
L,,96422,0.326,1.497,0.126,13.9,2.5,-4.1,346,612,0
L,,96483,0.614,1.711,0.752,16.5,-0.9,-10.8,297,602,0
L,,96542,-0.778,1.050,-0.345,17.3,4.3,-15.1,217,429,0
L,,96604,0.396,0.138,0.467,5.4,13.3,0.5,242,313,0
L,,96663,0.314,0.063,0.131,-7.8,5.5,5.6,284,338,0
L,,96722,0.367,0.526,0.211,-21.8,0.8,12.7,259,382,0
L,,96783,0.258,1.158,0.212,-26.0,1.8,17.5,287,389,0
L,,96842,0.102,1.633,0.250,-28.4,5.2,19.5,302,396,0
L,,96903,0.128,1.738,0.111,-26.6,3.8,15.9,306,406,0
L,,96962,-0.541,1.625,-0.166,-15.2,11.4,12.4,302,406,0
L,,97023,0.044,1.263,-0.683,6.6,3.6,-4.7,300,406,0
L,,97083,1.368,1.440,1.282,2.1,-19.5,-16.4,336,411,0
L,,97143,-0.087,1.156,0.374,8.1,-3.1,-13.5,383,494,0
L,,97203,-0.150,0.932,0.300,7.5,-1.2,-5.4,383,493,0
L,,97262,0.191,0.996,0.200,4.0,2.5,-3.3,401,530,0
L,,97324,-0.049,0.899,0.326,1.8,-0.9,-4.6,428,562,0
L,,97382,0.050,0.953,0.303,1.9,0.5,-1.7,446,588,0
L,,97443,-0.081,0.935,0.278,0.2,-0.4,-1.1,454,601,0
L,,97502,-0.014,0.988,0.303,0.6,0.4,-0.1,459,609,0
L,,97563,-0.011,0.966,0.450,4.2,-0.9,-1.1,457,608,0
L,,97623,-0.009,1.019,0.290,5.7,0.7,0.3,454,608,0
L,,97683,-0.029,1.090,0.144,7.1,1.6,-0.8,427,595,0
L,,97743,-0.023,1.114,0.215,8.8,2.0,-1.8,378,588,0
L,,97802,0.114,1.322,0.161,11.7,3.1,-1.9,374,600,0
L,,97863,0.417,1.520,0.139,15.5,2.5,-3.5,357,598,0
L,,97922,0.378,1.353,0.346,17.2,-1.0,-10.9,229,536,0
L,,97984,-0.434,0.951,0.120,15.2,-0.4,-12.1,257,374,0
L,,98042,0.202,0.223,0.465,1.6,8.2,0.6,259,330,0
L,,98103,0.261,0.175,0.142,-9.3,5.0,7.9,204,358,0
L,,98163,0.216,0.580,0.322,-22.4,-0.3,14.2,276,382,0
L,,98223,0.230,1.248,0.265,-27.9,0.1,16.3,286,398,0
L,,98283,0.069,1.695,0.264,-30.0,5.7,17.8,271,420,0
L,,98342,-0.142,1.722,-0.024,-24.3,8.6,14.2,294,418,0
L,,98403,-0.139,1.683,-0.917,-1.2,13.6,6.7,299,425,0
L,,98462,0.147,1.105,-0.222,4.6,-6.9,-8.2,295,390,0
L,,98523,1.400,0.976,-0.043,-9.2,5.9,-17.8,339,414,0
L,,98583,-0.042,0.910,0.246,8.5,-2.7,-8.6,375,483,0
L,,98643,0.080,1.018,0.346,5.6,0.2,-4.6,398,518,0
L,,98705,0.165,1.018,0.296,2.2,0.2,-4.6,422,553,0
L,,98763,-0.070,0.964,0.310,1.7,-0.6,-3.8,452,594,0
L,,98823,-0.022,0.978,0.303,1.9,-0.1,-1.6,462,607,0
L,,98882,-0.058,0.945,0.276,2.4,-0.6,-0.1,459,610,0
L,,98943,-0.020,0.958,0.254,1.5,0.3,0.0,453,612,0
L,,99002,-0.032,0.956,0.263,2.7,0.0,0.1,449,616,0
L,,99063,-0.150,1.027,0.271,4.0,0.4,0.1,426,611,0
L,,99123,-0.008,1.073,0.252,6.1,1.8,-0.3,394,605,0
L,,99183,-0.054,1.099,0.211,7.4,1.8,-1.5,375,606,0
L,,99243,0.112,1.247,0.090,9.3,2.2,-1.4,389,621,0
L,,99303,0.239,1.319,0.192,10.2,1.9,-2.0,330,617,0
L,,99393,-0.229,0.976,-0.077,11.8,-0.8,-8.1,236,467,0
L,,99484,0.144,0.391,0.355,3.9,14.2,1.9,289,259,0
L,,99542,0.195,0.471,0.109,-5.1,9.5,7.3,286,360,0
L,,99603,0.144,0.754,-0.081,-14.5,1.1,8.4,300,381,0
L,,99663,0.074,1.247,-0.548,-15.4,1.7,9.1,306,398,0
L,,99723,0.038,1.341,-0.508,-8.6,2.1,7.5,306,395,0
L,,99783,0.033,1.241,-0.333,-4.3,0.0,3.8,317,399,0
L,,99842,-0.107,1.149,-0.133,-1.0,-0.6,0.5,311,397,0
L,,99933,0.204,0.561,0.159,-3.2,-0.4,-0.3,322,401,0
L,,100023,0.824,0.971,1.177,2.0,-5.6,-6.0,366,466,0
L,,100083,0.049,1.004,0.278,-1.4,-1.4,-5.1,387,501,0
L,,100143,-0.011,0.993,0.081,0.8,0.0,-2.4,409,537,0
L,,100205,0.020,1.004,0.142,-0.2,-0.7,-1.3,433,571,0
L,,100263,0.031,0.991,0.165,-0.5,0.3,-0.2,443,584,0
L,,100323,0.031,1.002,0.148,-0.3,-0.4,-0.2,449,589,0
L,,100382,-0.001,0.995,0.151,0.0,-0.3,-0.1,451,592,0
L,,100443,-0.001,1.003,0.194,0.6,-0.7,0.1,454,594,0
L,,100502,0.020,1.015,0.131,0.6,-0.9,1.0,456,602,0
L,,100563,0.031,1.004,0.122,-0.1,-0.2,2.0,461,606,0
L,,100653,0.050,1.000,0.146,0.4,0.6,3.3,457,609,0
L,,100712,0.073,0.987,0.168,2.3,0.2,5.3,444,594,0
L,,100773,0.152,0.950,0.113,2.3,-0.3,4.4,409,551,0
L,,100833,0.174,1.017,0.160,2.2,0.2,3.4,351,478,0
L,,100893,0.177,0.999,0.047,2.1,-0.1,2.2,261,359,0
L,,100955,0.065,1.019,0.161,1.2,1.5,1.6,254,336,0
L,,101042,0.214,0.998,0.105,0.7,4.5,0.8,283,310,0
L,,101103,0.286,0.976,0.039,0.8,2.0,0.0,290,311,0
L,,101163,0.257,0.943,0.055,0.9,0.0,-0.4,291,319,0
L,,101223,0.236,0.956,0.093,0.8,-0.1,-0.4,286,324,0
L,,101283,0.230,0.948,0.082,0.8,0.0,-0.5,288,326,0
L,,101343,0.217,0.960,0.108,0.6,0.5,-0.3,295,330,0
L,,101403,0.151,0.960,0.142,0.3,2.3,-0.3,293,330,0
L,,101462,0.126,0.953,0.181,-0.2,4.6,0.0,300,338,0
L,,101523,0.210,0.948,0.149,-0.4,5.1,-0.4,299,343,0
L,,101583,0.180,0.956,0.108,-1.6,3.3,-1.5,299,342,0
L,,101644,0.158,1.038,0.097,-7.9,-3.2,-4.4,308,362,0
L,,101703,0.041,1.008,0.062,-1.2,-0.8,-2.8,324,391,0
L,,101763,0.134,1.001,0.159,-0.8,0.5,-1.5,327,432,0
L,,101823,0.103,0.994,0.201,0.0,-1.5,-3.5,370,468,0
L,,101883,0.031,1.012,0.101,1.9,-0.2,-3.3,380,484,0
L,,101943,0.021,1.036,0.185,2.0,-1.6,-3.7,385,520,0
L,,102002,-0.027,1.023,0.103,1.1,-0.8,-2.0,412,544,0
L,,102063,-0.063,1.010,0.099,-1.6,-0.9,-0.4,425,571,0
L,,102123,0.000,0.996,0.104,-3.4,0.1,0.7,425,580,0
L,,102183,-0.024,0.997,0.171,-3.9,1.0,0.9,439,582,0
L,,102243,0.047,0.988,0.210,-3.1,1.0,0.6,442,577,0
L,,102303,-0.021,0.997,0.252,-1.1,0.2,0.4,435,575,0
L,,102365,0.012,1.002,0.235,0.5,-0.6,0.0,437,569,0
L,,102422,-0.041,0.979,0.213,2.6,-0.2,0.0,438,567,0
L,,102483,-0.002,1.000,0.181,2.7,-0.4,0.3,440,569,0
L,,102542,-0.015,0.977,0.152,2.9,0.1,0.8,439,565,0
L,,102603,0.012,1.002,0.138,1.8,0.4,1.8,436,571,0
L,,102663,0.020,1.024,0.145,1.2,0.7,2.1,427,555,0
L,,102723,0.063,1.010,0.158,1.8,0.9,2.0,410,548,0
L,,102783,0.105,1.061,0.210,4.2,0.6,1.4,404,533,0
L,,102843,0.163,1.183,0.178,9.6,0.1,-0.4,346,466,0
L,,102903,0.270,1.308,0.124,11.9,-0.6,-4.1,345,393,0
L,,102993,0.098,0.648,0.238,5.2,5.9,-4.6,287,303,0
L,,103053,0.283,0.553,0.148,-2.4,6.3,1.5,301,326,0
L,,103115,0.390,0.728,0.052,-10.2,4.5,6.0,307,337,0
L,,103173,0.360,1.022,0.016,-13.5,4.2,9.2,313,344,0
L,,103233,0.215,1.178,0.024,-13.1,3.9,8.8,312,347,0
L,,103292,0.070,1.194,0.043,-9.3,6.2,7.0,315,347,0
L,,103353,0.007,1.138,0.020,-4.2,10.6,5.0,312,351,0
L,,103413,0.096,1.003,0.016,-1.4,12.3,2.8,315,355,0
L,,103473,0.141,0.915,0.033,0.1,9.3,-0.1,311,356,0
L,,103533,0.157,1.009,-0.270,7.9,7.1,-5.6,305,354,0
L,,103593,0.264,1.158,0.477,1.3,-5.2,-9.7,345,410,0
L,,103653,0.037,0.896,0.330,4.6,-3.2,-4.8,358,444,0
L,,103713,0.114,1.009,0.173,4.4,1.2,-2.3,365,461,0
L,,103775,0.013,0.987,0.209,1.0,-0.2,-2.8,379,489,0
L,,103833,0.082,1.019,0.259,1.6,0.2,-1.6,383,500,0
L,,103923,-0.003,0.984,0.192,2.9,1.0,-2.5,379,541,0
L,,103983,-0.057,0.996,0.141,0.5,0.0,-1.1,409,551,0
L,,104042,-0.039,0.996,0.161,-0.4,0.5,0.1,426,558,0
L,,104103,-0.035,0.982,0.169,-0.5,1.0,1.0,407,561,0
L,,104163,-0.013,0.963,0.219,-0.5,0.3,0.7,412,548,0
L,,104223,-0.001,1.015,0.246,2.4,1.1,-1.3,394,518,0
L,,104283,0.007,1.079,0.198,5.7,2.0,-2.1,359,513,0
L,,104343,0.018,1.220,0.255,8.9,2.0,-3.1,383,548,0
L,,104403,0.303,1.499,0.165,13.1,1.3,-6.1,393,576,0
L,,104463,0.615,1.741,0.483,16.5,3.6,-13.4,364,560,0
L,,104525,-0.456,1.197,0.091,16.8,1.7,-15.7,217,361,0
L,,104583,0.014,-0.020,0.697,-2.4,20.4,-3.3,240,291,0
L,,104643,0.701,0.009,-0.081,-11.8,15.3,7.8,260,323,0
L,,104703,0.303,0.524,0.216,-24.5,1.4,18.1,259,329,0
L,,104763,0.315,1.424,0.186,-30.6,2.5,18.9,259,344,0
L,,104823,0.211,1.817,0.138,-28.7,9.0,23.2,276,360,0
L,,104883,-0.289,1.868,-0.326,-20.3,10.1,14.3,287,372,0
L,,104943,-0.416,1.761,-1.045,6.6,10.2,-3.2,287,380,0
L,,105003,1.240,1.585,-0.044,13.1,-0.6,-13.9,344,428,0
L,,105063,-0.051,0.894,0.428,7.6,-4.0,-10.7,376,483,0
L,,105123,0.113,0.970,0.392,9.4,3.4,-2.9,385,500,0
L,,105183,0.006,0.994,0.290,5.0,0.1,-6.0,413,540,0
L,,105245,-0.074,1.004,0.282,4.0,1.6,-3.2,434,571,0
L,,105303,-0.078,0.966,0.233,1.6,0.1,-0.8,446,588,0
L,,105363,-0.068,0.980,0.242,0.1,0.9,0.4,446,595,0
L,,105423,-0.043,0.974,0.281,0.2,1.0,0.1,434,588,0
L,,105483,-0.051,1.097,0.278,2.3,1.5,1.2,419,576,0
L,,105543,-0.142,1.097,0.284,6.1,1.8,-1.0,397,560,0
L,,105603,0.164,1.259,0.170,8.1,2.1,-3.4,389,561,0
L,,105663,0.046,1.328,0.169,10.9,2.8,-5.8,384,577,0
L,,105723,0.508,1.809,0.433,16.6,8.3,-6.1,285,588,0
L,,105783,0.023,1.334,-0.164,16.5,-5.2,-15.4,224,428,0
L,,105843,-0.500,0.262,0.127,13.0,6.0,-6.6,239,262,0
L,,105905,0.315,-0.061,0.044,0.1,7.6,7.2,270,322,0
L,,105963,0.289,0.084,0.194,-11.1,0.2,17.3,276,340,0
L,,106023,0.323,0.882,-0.130,-17.7,-1.1,21.9,249,352,0
L,,106083,0.029,1.412,-0.029,-23.0,-18.9,22.3,271,373,0
L,,106173,-1.077,1.738,0.119,-13.0,-15.8,9.3,261,352,0
L,,106233,-0.744,1.274,-0.035,-3.3,-1.1,-4.7,264,327,0
L,,106293,1.611,1.423,-0.624,17.4,-0.6,5.0,336,399,0
L,,106353,0.448,1.064,-0.003,-1.9,-5.1,-10.8,388,503,0
L,,106413,0.259,0.936,0.123,1.4,0.3,-3.6,404,531,0
L,,106473,0.060,0.984,0.226,-2.3,-4.9,-5.8,415,560,0
L,,106533,0.045,1.006,0.135,-1.8,-2.6,-3.3,441,582,0
L,,106593,0.024,0.980,0.216,-1.5,-1.8,-1.6,454,598,0
L,,106655,0.096,1.038,0.358,1.1,-2.8,-1.7,452,593,0
L,,106713,0.125,0.983,0.269,6.2,-3.2,-3.1,428,597,0
L,,106773,-0.002,0.990,0.060,3.8,-1.8,-2.4,420,614,0
L,,106833,-0.062,1.024,0.068,0.0,-0.3,-0.3,442,627,0
L,,106893,-0.026,1.002,0.093,-2.9,0.4,2.0,475,632,0
L,,106953,0.023,1.004,0.210,0.0,0.1,2.1,470,626,0
L,,107012,0.148,0.950,0.609,7.7,-1.3,0.1,424,609,0
L,,107073,0.048,1.061,0.037,5.8,-1.7,-0.7,435,630,0
L,,107133,-0.015,1.054,-0.015,2.7,-0.5,0.5,470,630,0
L,,107193,-0.002,1.004,0.035,-0.7,-0.1,3.8,471,632,0
L,,107253,0.086,1.005,0.071,-2.9,0.1,5.9,459,627,0
L,,107313,0.157,0.930,0.151,-1.7,0.7,6.0,458,625,0
L,,107375,0.291,1.017,0.079,3.5,0.7,5.9,459,621,0
L,,107433,0.211,1.091,0.133,7.5,-0.6,5.4,335,486,0
L,,107493,0.042,1.336,0.040,7.2,-1.4,-1.3,258,271,0
L,,107553,-0.046,0.924,0.207,4.7,-1.6,-1.8,266,263,0
L,,107613,0.180,0.781,0.089,2.3,0.7,-1.1,293,242,0
L,,107673,0.424,0.728,-0.062,0.0,2.8,-0.2,284,294,0
L,,107733,0.318,0.757,-0.048,-2.4,-2.2,0.6,277,320,0
L,,107793,0.286,0.925,-0.008,-3.9,-1.8,1.8,279,317,0
L,,107853,0.155,1.088,0.033,-4.5,-1.3,1.8,285,326,0
L,,107913,0.165,1.140,0.014,-2.9,-0.6,0.3,283,316,0
L,,107973,0.231,1.006,-0.040,0.0,0.8,-1.4,279,322,0
L,,108035,0.291,0.922,-0.045,1.9,-2.0,-2.0,282,328,0
L,,108093,0.330,0.938,-0.032,2.8,-4.6,-1.6,284,330,0
L,,108153,0.223,0.927,0.029,3.6,-2.7,-1.5,290,342,0
L,,108213,0.259,0.989,0.022,2.8,0.2,-0.6,287,340,0
L,,108273,0.301,1.042,0.025,0.9,2.2,-0.1,292,345,0
L,,108363,0.189,0.916,0.074,-1.3,2.9,-0.2,297,349,0
L,,108453,0.115,0.957,-0.066,-0.4,4.1,-0.9,290,342,0
L,,108513,0.158,0.862,0.068,-1.3,0.3,-2.0,284,322,0
L,,108603,-0.008,0.893,-0.020,-2.7,0.9,-2.4,308,393,0
L,,108664,0.183,1.157,0.204,-7.4,-0.5,-3.6,356,480,0
L,,108723,0.024,0.983,0.165,-3.2,1.1,-1.5,384,520,0
L,,108783,0.069,0.992,0.212,-4.6,-0.1,-2.3,400,544,0
L,,108844,0.067,1.028,0.178,-3.0,-0.4,-1.5,427,574,0
L,,108933,0.081,0.984,0.367,-2.6,-2.1,-2.3,445,591,0
L,,108993,-0.027,0.999,0.254,-1.6,-1.6,-2.0,454,599,0
L,,109083,-0.050,1.021,0.263,1.7,0.4,-0.7,466,614,0
L,,109143,-0.087,0.967,0.331,2.2,-0.7,-0.4,466,619,0
L,,109203,-0.050,0.957,0.208,1.1,-1.1,-0.3,464,618,0
L,,109263,-0.012,1.006,0.173,1.2,-1.6,-0.3,475,629,0
L,,109323,-0.012,1.014,0.182,3.8,-0.6,-0.2,470,623,0
L,,109414,-0.133,0.850,-0.024,6.7,-1.5,-0.9,472,628,0
L,,109473,-0.117,1.028,-0.058,7.5,0.5,-1.7,466,633,0
L,,109533,-0.093,0.911,-0.042,4.7,0.0,-1.1,450,623,0
L,,109594,-0.203,0.870,-0.108,0.8,-0.4,-1.0,457,624,0
L,,109653,-0.181,1.149,-0.055,-7.2,3.9,5.0,462,632,0
L,,109713,0.715,2.210,-0.161,1.8,9.7,9.4,332,612,0
L,,109773,-0.296,0.764,-0.206,1.9,-1.9,14.6,197,239,0
L,,109833,0.130,0.060,0.303,15.3,0.8,4.0,235,263,0
L,,109893,0.518,0.775,0.380,7.4,1.7,7.4,250,285,0
L,,109954,0.155,0.893,0.010,-0.4,-2.5,6.6,267,291,0
L,,110013,0.015,1.564,-0.016,-3.7,-3.7,6.0,274,310,0
L,,110073,0.099,1.229,-0.135,-1.5,-2.1,1.3,280,324,0
L,,110133,0.240,0.870,-0.108,1.8,4.3,-0.7,285,325,0
L,,110193,0.533,0.722,-0.154,2.4,0.8,-0.6,292,346,0
L,,110253,0.418,0.751,-0.060,0.8,-2.0,-0.1,294,347,0
L,,110315,0.352,0.914,-0.003,-0.5,-2.5,0.6,294,336,0
L,,110403,0.280,0.970,-0.018,-1.2,0.2,-0.1,300,335,0
L,,110463,0.381,0.905,-0.105,-0.6,1.4,-0.4,305,344,0
L,,110523,0.327,0.882,-0.103,-1.0,-1.8,-0.8,305,347,0
L,,110583,0.306,0.858,-0.037,-1.0,-1.8,-0.9,310,354,0
L,,110643,0.362,0.802,-0.021,-1.4,-3.4,-1.0,315,362,0
L,,110733,0.283,1.043,-0.021,-0.7,-3.0,-1.1,312,364,0
L,,110793,0.222,1.248,-0.026,-0.9,-2.4,-2.2,308,361,0
L,,110853,0.226,1.264,-0.001,-1.8,0.8,-2.9,301,340,0
L,,110914,0.234,1.167,0.092,-4.2,4.2,-3.0,303,348,0
L,,110973,-0.083,0.774,0.102,-9.1,-3.5,-2.0,288,321,0
L,,111033,0.384,0.506,-0.752,1.2,5.7,-6.5,232,304,0
L,,111095,-0.265,1.441,0.548,-1.6,-1.4,-3.2,305,444,0
L,,111153,0.301,1.853,0.308,7.1,-5.4,-11.1,429,554,0
L,,111213,-0.107,0.982,0.030,2.3,-0.8,-1.3,447,587,0
L,,111273,0.150,1.108,0.000,-1.3,-3.8,1.1,453,594,0
L,,111333,-0.040,0.969,0.080,-2.5,0.8,1.2,452,590,0
L,,111393,0.005,0.978,0.112,-2.7,0.1,0.7,449,589,0
L,,111454,0.057,1.004,0.089,-1.1,0.0,0.0,455,593,0
L,,111543,0.006,0.990,0.105,0.3,-1.0,-0.6,464,603,0
L,,111603,-0.067,0.973,0.008,-0.2,-1.3,-1.6,467,610,0
L,,111693,-0.012,0.990,0.096,0.7,-0.5,0.1,480,622,0
L,,111784,0.022,1.027,0.084,2.0,-1.3,0.2,477,623,0
L,,111845,0.106,1.016,0.117,3.2,-1.0,-0.6,475,629,0
L,,111903,-0.017,0.996,0.038,2.5,-1.6,-0.6,475,630,0
L,,111962,-0.010,1.016,-0.004,1.1,0.0,0.4,477,631,0
L,,112023,-0.020,0.996,0.051,-1.8,1.3,2.9,482,638,0
L,,112083,0.107,1.176,0.024,-4.5,1.6,3.9,428,614,0
L,,112143,0.176,1.133,0.041,-2.2,1.2,4.4,350,592,0
L,,112204,0.320,1.202,0.094,10.4,-4.6,2.4,257,341,0
L,,112263,-0.454,1.185,0.050,11.1,-1.4,-2.3,248,279,0
L,,112323,0.341,0.595,0.136,6.5,7.0,0.2,276,302,0
L,,112383,0.104,0.706,0.043,-3.3,0.0,3.4,284,318,0
L,,112443,0.023,0.952,-0.089,-5.2,2.3,4.7,288,313,0
L,,112503,0.136,1.015,-0.184,-3.3,3.4,2.5,295,322,0
L,,112565,0.228,0.978,-0.139,-0.5,2.6,1.0,291,329,0
L,,112624,0.218,1.016,-0.028,-0.3,1.5,0.1,295,326,0
L,,112683,0.273,1.041,0.013,0.0,2.2,-0.3,300,340,0
L,,112744,0.388,1.003,-0.038,0.4,4.4,-0.4,301,333,0
L,,112803,0.364,0.913,-0.028,1.0,5.5,-0.2,297,336,0
L,,112863,0.422,0.941,0.029,1.7,6.6,0.6,296,339,0
L,,112923,0.361,0.921,0.109,1.8,9.3,0.9,296,346,0
L,,112983,0.297,0.884,0.193,0.9,13.3,2.7,295,347,0
L,,113043,0.211,0.867,0.213,-0.2,17.9,4.0,302,347,0
L,,113103,-0.105,0.921,0.134,-1.7,17.3,2.2,303,348,0
L,,113164,0.528,0.893,-0.222,-1.1,14.0,-0.8,291,350,0
L,,113223,0.048,1.243,0.135,-3.3,-10.8,-19.3,355,455,0
L,,113285,0.164,1.047,0.108,8.6,5.5,-4.4,380,507,0
L,,113343,0.026,0.983,-0.096,1.5,0.8,-5.3,410,550,0
L,,113403,-0.043,1.035,0.028,-1.1,3.9,-0.9,424,572,0
L,,113463,0.008,1.051,0.182,-2.1,5.3,-0.5,403,552,0
L,,113523,0.075,1.073,0.190,-1.8,5.6,-0.2,336,513,0
L,,113583,0.053,1.086,0.206,1.9,3.8,-1.5,361,542,0
L,,113643,0.255,1.292,0.260,9.5,2.4,-6.0,358,566,0
L,,113704,0.596,1.531,0.447,17.9,0.9,-10.9,356,570,0
L,,113763,0.103,1.599,-0.194,19.9,-6.7,-17.9,220,403,0
L,,113824,0.012,0.110,0.592,13.0,16.5,-2.4,258,329,0
L,,113883,0.432,-0.161,0.385,-7.9,13.0,8.1,272,349,0
L,,113945,0.184,0.575,0.480,-22.6,18.8,21.5,281,353,0
L,,114003,0.240,1.638,-0.151,-35.7,14.5,20.5,286,367,0
L,,114063,-0.286,2.173,-1.472,-22.2,7.9,11.2,296,376,0
L,,114124,-0.573,0.850,-1.820,1.0,-6.2,-12.0,296,357,0
L,,114183,0.380,1.484,0.325,9.5,-11.1,-14.0,337,448,0
L,,114244,0.163,0.994,0.100,12.9,2.9,-5.7,361,486,0
L,,114303,-0.066,1.067,0.056,3.0,-0.7,-2.5,403,542,0
L,,114364,-0.038,1.100,0.186,0.0,4.2,0.4,414,563,0
L,,114423,0.200,1.182,0.234,0.7,4.4,0.2,338,544,0
L,,114483,0.260,1.137,0.362,11.2,4.0,-2.4,334,554,0
L,,114543,0.697,1.819,0.644,22.1,-0.3,-11.5,312,560,0
L,,114603,-0.584,1.007,-0.013,19.8,-6.7,-16.0,227,407,0
L,,114665,0.457,-0.277,0.975,2.2,15.3,3.1,279,382,0
L,,114723,0.225,0.177,0.546,-19.3,12.2,13.9,277,336,0
L,,114784,0.123,1.251,0.264,-33.7,15.5,18.7,300,376,0
L,,114843,-0.068,2.099,-0.955,-26.8,13.7,13.4,303,387,0
L,,114904,-0.008,1.355,-1.751,-4.1,3.2,1.4,308,388,0
L,,114963,0.671,2.917,-0.277,17.8,3.0,-16.8,342,444,0
L,,115023,-0.359,1.318,-0.176,11.6,-2.5,-6.9,363,482,0
L,,115083,0.011,1.025,-0.009,4.5,0.7,-2.0,410,547,0
L,,115143,-0.055,1.005,0.219,-0.7,2.7,0.9,416,556,0
L,,115204,0.006,1.061,0.228,-2.0,4.1,1.9,369,522,0
L,,115263,0.015,1.057,0.286,-1.2,4.0,-1.3,314,509,0
L,,115324,0.139,1.155,0.402,13.5,3.1,-5.0,305,544,0
L,,115385,0.581,2.042,0.589,22.1,2.0,-11.0,370,576,0
L,,115444,0.402,1.383,0.147,19.1,-6.8,-22.1,241,451,0
L,,115503,-0.060,-0.087,0.837,6.2,16.4,0.2,256,345,0
L,,115563,0.384,-0.145,0.386,-14.5,12.6,10.3,271,349,0
L,,115624,0.179,0.566,0.534,-29.7,14.2,19.9,287,358,0
L,,115683,0.378,1.853,0.086,-38.9,10.0,17.9,293,365,0
L,,115744,-0.230,2.248,-1.502,-18.4,13.7,11.9,300,389,0
L,,115803,-0.324,1.762,-1.142,9.5,-3.3,-9.8,307,375,0
L,,115864,0.327,0.372,0.386,11.2,-9.3,-15.5,354,460,0
L,,115923,0.006,1.070,0.077,11.4,4.3,-2.7,385,513,0
L,,115983,-0.074,1.027,0.132,2.0,-0.5,-3.0,423,563,0
L,,116075,0.022,1.026,0.287,-0.1,2.4,2.4,411,557,0
L,,116133,0.136,0.975,0.226,8.4,6.3,2.4,341,535,0
L,,116194,0.063,1.068,0.253,7.0,3.4,-2.7,334,549,0
L,,116253,0.139,1.485,0.324,15.3,1.8,-7.1,344,572,0
L,,116313,1.198,2.529,1.276,23.3,5.8,-12.8,362,579,0
L,,116374,-1.253,1.166,-0.007,19.5,-1.0,-19.0,211,375,0
L,,116433,0.656,-0.300,0.630,-2.2,18.4,1.9,249,293,0
L,,116494,0.514,-0.155,0.192,-21.0,7.2,11.0,268,336,0
L,,116553,0.359,0.637,0.385,-31.9,6.5,20.1,282,360,0
L,,116614,0.293,1.787,0.028,-32.5,9.9,22.8,277,383,0
L,,116673,-0.546,2.145,-0.064,-27.5,13.6,18.8,294,399,0
L,,116734,-0.692,1.792,-1.395,2.1,16.8,4.6,301,410,0
L,,116795,3.247,2.074,2.815,-9.1,-7.1,-24.2,332,422,9
L,,116853,-0.268,0.626,0.580,10.5,-5.1,-10.9,359,463,0
L,,116913,0.227,1.148,-0.044,10.5,1.6,-6.1,401,536,0
L,,116973,-0.105,0.970,0.121,4.7,0.5,-4.2,434,584,0
L,,117034,-0.144,0.952,0.137,0.4,2.1,1.1,428,591,0
L,,117093,-0.136,1.006,0.141,-2.6,2.5,5.3,403,587,0
L,,117154,-0.050,0.982,0.234,-1.5,3.9,6.9,365,497,0
L,,117213,0.184,0.963,0.265,5.7,3.6,9.2,277,494,0
L,,117303,0.122,1.067,0.145,6.9,3.6,-1.4,366,493,0
L,,117364,0.201,1.184,0.370,13.8,5.8,2.0,384,495,0
L,,117423,-0.549,1.298,1.297,7.3,16.5,-4.9,236,274,0
L,,117485,0.387,0.987,0.183,10.9,42.5,-6.2,261,312,0
L,,117543,0.581,0.693,-0.227,1.0,22.3,-4.2,271,311,0
L,,117603,0.280,0.533,-0.060,-2.8,14.3,-0.9,280,321,0
L,,117664,0.453,0.581,-0.086,-3.7,12.6,4.3,277,315,0
L,,117723,0.390,0.859,-0.030,-6.3,4.3,5.5,281,323,0
L,,117784,0.215,1.162,0.115,-6.2,1.8,5.2,288,328,0
L,,117843,0.215,1.251,0.149,-4.7,4.5,4.5,282,328,0
L,,117904,0.276,1.052,0.237,-2.8,7.1,3.5,284,336,0
L,,117963,0.402,0.800,0.164,-5.6,5.5,4.1,297,341,0
L,,118053,-0.066,0.844,-0.120,-4.2,0.7,0.8,294,349,0
L,,118114,1.711,1.563,1.194,-2.6,-9.0,-23.9,362,463,0
L,,118173,-0.587,0.857,-0.005,3.1,-0.8,-5.6,395,514,0
L,,118235,0.059,1.078,0.212,0.4,0.0,-1.3,434,572,0
L,,118293,-0.031,1.002,0.190,-2.2,-0.1,2.3,441,581,0
L,,118353,0.153,0.941,0.328,-1.2,1.4,4.0,406,532,0
L,,118414,0.169,0.934,0.441,3.3,3.9,3.0,394,512,0
L,,118473,0.060,1.057,0.439,4.6,0.5,-2.3,405,522,0
L,,118534,0.035,1.013,0.114,8.1,-0.8,-4.7,422,546,0
L,,118593,0.034,0.929,0.078,7.5,-1.6,-2.3,433,561,0
L,,118654,-0.074,1.045,0.019,3.0,0.2,-2.3,445,584,0
L,,118713,-0.016,1.023,0.081,0.1,1.0,1.1,443,579,0
L,,118774,0.051,1.041,0.159,1.7,2.6,2.2,398,555,0
L,,118833,0.101,1.035,0.108,1.7,0.7,0.8,374,536,0
L,,118893,0.087,1.111,0.184,7.7,0.5,-0.5,338,541,0
L,,118955,0.375,1.526,0.208,12.4,-1.7,-3.8,361,573,0
L,,119013,0.947,1.925,0.439,17.3,-5.0,-9.2,338,573,0
L,,119074,-0.547,1.010,-0.303,18.4,-10.7,-15.3,240,389,0
L,,119133,0.203,0.258,0.653,5.5,-2.2,2.1,231,309,0
L,,119194,0.045,0.053,0.494,-6.0,-1.0,10.4,260,321,0
L,,119253,0.101,0.687,0.324,-21.6,2.3,16.4,265,318,0
L,,119314,0.013,1.342,-0.101,-25.1,-3.8,13.1,280,359,0
L,,119374,0.049,1.524,0.021,-23.7,-9.4,12.6,284,373,0
L,,119433,-0.120,1.561,0.101,-15.8,-2.9,9.5,285,369,0
L,,119494,-0.237,1.484,-0.041,-8.1,8.6,-1.6,279,378,0
L,,119553,0.067,1.253,-0.176,1.5,9.0,-0.8,285,370,0
L,,119615,0.368,1.009,-1.042,7.1,-2.7,-6.6,296,363,0
L,,119673,0.061,1.751,0.159,11.6,-9.2,-12.3,350,444,0
L,,119734,-0.213,0.975,0.007,14.9,2.6,-7.1,379,496,0
L,,119793,-0.077,1.043,0.020,10.2,-0.6,-6.0,435,576,0
L,,119854,-0.041,0.942,-0.047,6.3,2.0,0.0,442,600,0
L,,119914,0.061,1.222,0.077,-0.9,1.2,-0.3,388,591,0
L,,119973,0.127,1.192,0.103,3.8,1.8,-1.8,362,601,0
L,,120033,0.106,1.139,0.216,9.2,2.2,-5.1,357,595,0
L,,120093,0.524,1.481,0.243,16.0,2.1,-11.8,339,585,0
L,,120154,0.385,2.146,0.185,25.8,-0.8,-19.4,235,460,0
L,,120213,-0.659,0.405,0.280,12.9,8.5,-7.7,232,294,0
L,,120274,0.271,-0.349,0.372,-9.0,15.8,7.3,254,318,0
L,,120335,0.374,-0.051,0.594,-24.5,5.1,19.3,262,316,0
L,,120393,0.295,1.298,0.540,-39.8,6.3,20.8,263,322,0
L,,120454,0.130,2.147,0.101,-32.4,4.1,21.0,247,318,0
L,,120513,-0.594,2.124,-1.049,-18.4,18.8,9.6,249,336,0
L,,120574,0.364,2.505,-2.246,17.8,4.1,-8.7,282,360,0
L,,120633,-0.101,0.419,0.616,9.6,-24.6,-16.0,349,459,0
L,,120694,0.445,1.253,-0.049,11.8,6.5,-4.2,422,594,0
L,,120753,-0.165,1.000,0.062,2.6,-1.4,-0.8,433,615,0
L,,120814,-0.112,1.020,0.217,-0.9,2.1,4.8,425,618,0
L,,120874,0.008,0.922,0.293,-1.0,2.8,4.5,384,579,0
L,,120933,0.039,0.989,0.342,2.2,1.1,3.2,396,556,0
L,,120994,0.205,1.146,0.364,10.9,2.5,0.9,394,532,0
L,,121055,-0.096,0.955,-0.027,10.2,-0.1,-3.5,392,535,0
L,,121114,-0.029,0.887,0.049,7.6,-1.2,-0.4,433,572,0
L,,121173,-0.052,0.962,-0.071,3.7,0.0,2.0,426,572,0
L,,121234,0.031,0.991,-0.009,2.7,2.1,3.4,412,565,0
L,,121324,0.150,0.998,-0.016,1.6,1.8,5.6,401,548,0
L,,121383,0.227,1.095,0.025,3.4,0.7,6.3,403,546,0
L,,121444,0.141,1.146,0.084,2.7,1.3,4.5,319,511,0
L,,121503,-0.337,1.276,0.386,0.4,13.2,3.3,272,487,0
L,,121564,0.019,1.318,0.113,7.2,33.2,1.0,206,250,0
L,,121624,0.490,0.747,0.009,3.4,14.5,-5.4,193,271,0
L,,121684,0.604,0.735,-0.071,0.3,0.6,-4.9,242,275,0
L,,121746,0.130,0.846,0.132,-0.3,2.7,-3.8,257,285,0
L,,121803,0.158,0.926,0.177,-1.9,5.2,-2.4,255,284,0
L,,121863,0.134,1.037,0.207,-3.4,9.2,-2.0,250,284,0
L,,121923,0.294,1.078,0.070,-3.2,10.5,-2.0,253,295,0
L,,121984,0.492,1.016,-0.052,0.1,9.8,-1.9,263,309,0
L,,122043,0.712,0.921,-0.142,1.6,3.3,-1.7,268,324,0
L,,122104,0.641,0.965,-0.081,0.7,-1.8,0.0,277,327,0
L,,122164,0.509,0.952,0.065,1.1,0.5,2.6,281,334,0
L,,122253,0.396,1.041,0.251,-3.2,4.5,6.0,279,330,0
L,,122314,0.222,0.938,0.287,-5.7,6.2,6.7,283,336,0
L,,122374,0.048,1.009,0.148,-4.0,7.9,6.3,270,338,0
L,,122434,-0.002,1.012,0.071,-2.6,7.0,4.1,270,323,0
L,,122496,-0.043,0.900,-0.026,-2.0,-0.7,-0.4,277,344,0
L,,122553,0.437,1.423,0.417,-0.3,2.1,-6.1,343,426,0
L,,122614,0.107,0.855,0.215,0.5,0.8,-10.2,386,496,0
L,,122673,0.050,0.999,0.183,0.6,-1.1,-6.4,422,554,0
L,,122734,0.092,1.030,0.217,-1.8,-1.1,-3.7,448,590,0
L,,122793,0.030,0.979,0.217,-4.3,-2.2,-2.8,462,607,0
L,,122854,0.025,0.968,0.261,-4.1,-0.6,-0.4,468,614,0
L,,122914,0.076,0.966,0.326,-2.8,0.2,-0.2,467,609,0
L,,122974,0.050,0.998,0.351,0.7,-0.2,-2.0,470,611,0
L,,123034,-0.001,0.966,0.296,0.8,0.0,-1.2,476,619,0
L,,123124,0.000,0.966,0.293,0.2,0.3,-0.4,475,623,0
L,,123184,-0.042,0.960,0.314,0.3,0.0,-0.3,476,624,0
L,,123275,-0.035,0.958,0.314,1.0,-0.3,0.4,479,624,0
L,,123333,0.000,0.973,0.293,1.6,-0.5,1.1,479,622,0
L,,123394,-0.015,0.962,0.282,1.9,-0.9,1.1,477,621,0
L,,123454,0.037,0.997,0.226,3.1,-0.2,1.0,482,627,0
L,,123513,0.018,0.986,0.252,1.2,-0.8,0.9,484,626,0
L,,123574,-0.001,0.977,0.287,3.2,0.0,0.8,484,629,0
L,,123633,0.020,0.988,0.244,2.5,-0.8,1.1,483,629,0
L,,123694,0.053,1.009,0.194,3.5,-1.0,1.9,482,627,0
L,,123753,0.048,1.003,0.209,4.9,-1.2,3.2,467,630,0
L,,123814,0.098,1.036,0.142,6.0,-0.8,3.6,441,625,0
L,,123874,0.163,1.119,0.150,7.6,-0.6,3.6,343,597,0
L,,123935,0.402,1.253,0.018,8.3,-0.1,1.6,308,594,0
L,,123994,0.264,1.177,0.172,7.0,-3.1,-0.9,289,556,0
L,,124053,-0.276,1.045,0.027,8.3,-3.2,-5.4,200,340,0
L,,124114,-0.008,0.663,0.105,3.9,-9.3,-1.9,234,270,0
L,,124173,-0.072,0.430,0.310,-4.1,-6.3,1.0,224,274,0
L,,124234,0.254,0.638,0.066,-8.1,2.6,5.8,276,310,0
L,,124293,0.310,0.925,0.060,-14.7,1.4,7.2,284,310,0
L,,124354,0.484,1.289,-0.120,-14.7,-2.2,7.9,290,338,0
L,,124414,0.065,1.347,-0.052,-9.8,0.7,4.0,300,350,0
L,,124474,0.207,1.283,-0.201,-1.3,2.7,2.3,308,358,0
L,,124564,0.177,1.101,-0.060,8.2,-0.4,-4.2,301,353,0
L,,124624,0.863,-0.997,0.574,-2.8,-3.9,6.4,306,358,0
L,,124685,-0.681,3.116,-1.497,-2.1,1.3,-2.6,311,373,0
L,,124744,0.339,0.742,0.334,5.3,4.4,-2.0,346,440,0
L,,124804,0.345,1.151,0.262,6.7,2.2,-0.4,304,357,0
L,,124864,0.237,1.024,0.195,6.6,1.4,-5.6,327,391,0
L,,124923,0.553,0.041,0.293,2.2,0.6,-0.5,337,411,0
L,,124983,0.626,-0.009,0.514,-13.1,-3.0,11.1,345,414,0
L,,125043,-1.545,3.712,-2.088,-5.5,-4.6,-3.0,298,422,9
L,,125104,0.512,0.888,0.247,5.1,7.9,0.6,351,442,0
L,,125164,0.140,1.310,-0.218,6.2,5.8,-2.5,340,407,0
L,,125224,0.059,1.145,-0.282,11.0,1.2,-7.8,349,422,0
L,,125284,0.219,0.887,-0.126,12.1,-0.2,-7.7,348,425,0
L,,125345,0.238,0.713,0.061,9.3,-2.0,-5.9,342,418,0
L,,125434,0.223,0.695,0.201,3.6,3.5,-1.1,324,403,0
L,,125494,0.601,0.882,0.288,-7.4,2.4,-17.7,353,298,0
L,,125554,0.197,0.595,0.154,-8.2,2.2,5.3,319,404,0
L,,125614,0.485,1.338,0.125,-8.6,3.5,-2.7,351,349,0
L,,125673,-0.190,0.881,0.162,-3.9,0.8,-2.8,381,474,0
L,,125734,0.187,1.016,0.066,-3.9,0.6,-1.3,394,497,0
L,,125793,0.040,1.009,0.265,-3.1,-1.1,-1.8,413,529,0
L,,125854,0.102,0.958,0.237,-1.8,-2.9,-3.9,423,546,0
L,,125914,0.026,0.984,0.200,-0.5,-1.3,-2.0,430,558,0
L,,125974,-0.004,0.963,0.255,-1.0,-1.5,-2.0,434,568,0
L,,126034,0.009,1.018,0.211,-1.2,-2.0,-1.4,445,583,0
L,,126095,-0.017,1.021,0.271,-1.1,-0.8,-1.4,450,592,0
L,,126184,-0.035,0.977,0.244,-0.2,-1.0,-0.2,459,597,0
L,,126244,-0.033,0.982,0.330,1.5,-0.4,-0.1,463,604,0
L,,126304,0.035,1.005,0.268,6.8,0.7,-0.8,463,603,0
L,,126364,-0.034,0.897,0.290,6.9,-1.7,-1.0,459,602,0
L,,126423,-0.031,0.948,0.045,2.9,-0.7,-0.9,474,619,0
L,,126484,-0.100,0.996,0.077,-1.7,-0.7,0.4,488,637,0
L,,126543,-0.049,1.014,0.204,-1.5,0.3,1.0,495,645,0
L,,126604,-0.064,0.979,0.179,0.3,-0.5,0.7,486,640,0
L,,126664,0.000,1.029,0.176,1.3,-0.4,-0.3,489,644,0
L,,126724,-0.120,0.933,0.103,2.1,-1.0,-0.2,483,637,0
L,,126784,-0.073,0.984,0.073,-1.4,-0.5,0.8,489,643,0
L,,126845,-0.015,0.996,0.104,-3.9,-0.2,1.0,493,643,0
L,,126904,-0.028,1.032,0.218,-3.7,-0.7,0.6,492,641,0
L,,126963,-0.018,1.046,0.218,-3.4,-1.1,0.3,484,636,0
L,,127024,-0.048,0.983,0.264,-1.9,0.0,0.9,481,629,0
L,,127083,-0.030,0.984,0.276,-0.2,-0.6,0.4,479,625,0
L,,127144,0.010,0.986,0.272,0.3,-1.1,0.0,474,620,0
L,,127204,-0.035,0.994,0.272,0.3,-1.6,0.0,461,607,0
L,,127264,0.041,0.956,0.277,1.5,-1.7,0.4,444,581,0
L,,127324,-0.019,0.980,0.250,1.8,-0.8,1.1,442,578,0
L,,127384,0.004,0.967,0.266,2.4,-0.8,0.8,433,567,0
L,,127444,0.002,1.029,0.201,2.0,-0.2,1.0,438,569,0
L,,127505,-0.107,0.983,0.220,2.7,-2.6,1.9,432,562,0
L,,127564,-0.011,0.990,0.127,1.5,-0.5,2.3,422,547,0
L,,127623,-0.015,1.007,0.125,0.5,0.1,2.1,426,551,0
L,,127684,-0.013,0.980,0.165,1.5,-0.2,2.4,423,549,0
L,,127744,0.108,1.007,0.153,0.7,-0.2,2.6,426,554,0
L,,127833,0.136,0.984,0.097,5.1,-0.5,4.3,416,538,0
L,,127894,0.131,1.001,0.096,1.1,-1.2,2.4,371,478,0
L,,127954,0.249,1.091,0.127,4.4,2.4,1.3,356,479,0
L,,128014,0.095,1.090,0.131,6.2,2.4,-1.5,314,439,0
L,,128074,0.106,1.027,-0.049,6.5,5.9,-2.4,287,342,0
L,,128134,0.290,0.874,0.126,-1.6,-0.2,-1.3,270,296,0
L,,128194,0.214,0.885,0.038,-1.0,2.3,1.5,268,293,0
L,,128255,0.291,0.923,-0.073,-2.3,2.8,3.3,283,310,0
L,,128314,0.291,0.978,-0.058,-2.8,0.3,3.1,287,327,0
L,,128374,0.191,1.057,-0.044,-1.8,-0.6,3.0,241,353,0
L,,128434,0.155,1.058,-0.034,-0.4,-0.6,1.3,306,353,0
L,,128494,0.174,0.997,-0.018,0.2,-0.3,0.4,309,351,0
L,,128554,0.181,0.976,-0.003,0.3,-0.7,0.0,311,361,0
L,,128644,0.075,1.114,0.017,3.0,0.0,-0.9,312,368,0
L,,128704,0.044,1.184,-0.024,4.7,1.7,-4.0,312,368,0
L,,128764,0.228,0.683,0.372,5.1,4.4,-4.0,307,349,0
L,,128824,1.006,-0.616,0.916,-13.2,4.0,11.1,312,358,0
L,,128884,-2.050,6.422,-5.408,1.3,-8.3,-10.2,326,395,9
L,,128974,0.092,1.225,-0.064,3.8,0.6,1.1,319,376,0
L,,129036,0.136,1.361,-0.096,7.6,1.9,-5.0,325,373,0
L,,129094,0.189,0.923,0.053,8.4,-1.5,-8.3,334,390,0
L,,129184,1.095,-0.165,1.066,-18.1,0.0,15.9,332,389,0
L,,129244,-0.180,1.326,1.105,-10.7,-11.2,0.0,340,445,0
L,,129304,0.070,1.129,-0.090,-2.2,0.1,0.6,366,463,0
L,,129364,0.263,0.898,0.217,-1.3,1.6,0.6,366,466,0
L,,129424,0.315,0.992,0.210,0.2,0.0,0.2,369,474,0
L,,129484,0.236,0.956,0.180,-0.4,-1.1,-0.2,376,482,0
L,,129543,0.266,0.970,0.187,0.4,0.4,0.2,377,484,0
L,,129604,0.236,0.969,0.170,0.2,0.3,0.5,379,487,0
L,,129664,0.254,0.957,0.161,0.0,-0.9,0.0,380,488,0
L,,129725,0.252,0.956,0.171,0.1,0.0,0.4,379,487,0
L,,129784,0.253,0.960,0.162,-0.1,-0.6,0.3,380,487,0
L,,129844,0.260,0.966,0.162,-0.2,-0.3,0.3,382,490,0
L,,129904,0.232,0.976,0.168,-0.4,-0.5,0.3,387,495,0
L,,129964,0.222,0.987,0.146,-0.2,-0.5,0.3,390,496,0
L,,130024,0.241,0.976,0.152,-0.3,-0.1,0.5,390,498,0
L,,130083,0.283,0.954,0.207,-0.1,-0.2,0.4,387,496,0
L,,130144,0.260,0.951,0.182,0.0,-0.4,0.2,382,489,0
L,,130204,0.277,0.948,0.185,0.1,-0.4,0.1,382,490,0
L,,130264,0.251,0.975,0.183,0.0,-0.3,0.1,386,494,0
L,,130324,0.259,0.968,0.179,0.0,-0.5,0.1,386,497,0
L,,130425,0.241,1.028,0.205,0.1,-0.4,0.1,390,499,0
L,,130446,0.222,1.125,0.173,1.7,0.0,0.0,381,484,0
L,,130504,0.349,1.160,0.229,6.2,0.1,-0.2,327,390,0
L,,130564,0.128,1.461,-0.210,9.7,-0.1,-9.0,323,391,0
L,,130624,0.136,1.084,-0.120,11.4,-2.0,-11.0,337,402,0
L,,130684,0.121,0.232,0.131,9.3,-2.9,-8.9,339,404,0
L,,130744,0.689,-0.245,0.557,-1.0,4.1,4.2,340,410,0
L,,130804,-0.055,1.216,0.192,-7.3,5.6,1.5,325,417,0
L,,130864,0.025,1.236,0.918,-5.5,1.6,0.9,294,531,0
L,,130924,0.225,1.041,-0.034,-3.7,-0.4,-0.8,323,570,0
L,,130984,-0.072,0.955,0.000,-1.0,1.6,-0.4,324,577,0
L,,131044,0.057,1.032,0.104,-0.3,-0.1,-1.2,312,579,0
L,,131104,0.032,1.000,0.072,0.7,-0.8,-0.3,328,584,0
L,,131166,0.041,0.975,0.004,0.6,-0.2,-0.1,337,586,0
L,,131223,0.047,0.993,0.024,-0.2,-0.3,0.0,343,595,0
L,,131284,0.042,0.990,0.039,-0.5,-0.4,0.1,341,598,0
L,,131344,0.044,1.011,0.054,-0.1,-0.2,0.6,345,600,0
L,,131404,0.046,1.006,0.059,-0.2,-0.5,0.7,352,603,0
L,,131464,0.037,0.985,0.051,-0.5,-0.6,0.7,355,602,0
L,,131524,0.084,1.045,0.063,-0.5,-0.3,1.1,360,603,0
L,,131583,0.080,1.025,0.067,0.0,0.0,1.1,337,578,0
L,,131644,0.204,1.107,0.115,0.4,0.1,0.9,309,530,0
L,,131704,0.112,1.042,0.075,2.4,-3.6,-1.0,276,421,0
L,,131764,0.542,0.883,0.394,1.2,-4.1,3.8,268,314,0
L,,131826,0.736,-0.476,0.715,-8.2,-1.2,12.8,278,330,0
L,,131884,-1.270,4.357,-2.700,-0.5,5.5,9.4,299,333,9
L,,131944,0.018,0.993,0.169,-1.5,1.7,-0.2,352,436,0
L,,132034,0.296,0.897,0.276,-0.4,0.5,0.3,362,457,0
L,,132094,0.314,0.962,0.234,0.3,-0.2,0.0,367,464,0
L,,132154,0.281,0.937,0.206,0.2,-0.7,0.0,367,468,0
L,,132214,0.287,0.952,0.187,0.2,-0.1,0.1,370,472,0
L,,132274,0.258,0.953,0.187,0.3,-0.4,0.2,374,475,0
L,,132334,0.259,0.963,0.166,0.0,-0.4,0.2,373,475,0
L,,132394,0.264,0.964,0.204,0.1,-0.3,0.2,375,480,0
L,,132454,0.255,0.981,0.180,0.1,-0.6,0.3,378,482,0
L,,132514,0.257,0.970,0.172,0.1,-0.4,0.2,380,485,0
L,,132576,0.282,0.960,0.197,0.1,-0.4,0.4,379,487,0
L,,132664,0.272,1.005,0.179,0.3,-0.2,0.3,371,474,0
L,,132724,0.355,1.036,0.199,4.3,-0.5,-0.2,335,403,0
L,,132784,-0.073,1.519,-0.167,9.0,-3.2,-8.6,313,372,0
L,,132844,0.400,0.480,0.495,11.2,-0.3,-8.6,323,377,0
L,,132904,1.356,-1.301,1.392,-12.3,-0.6,14.5,329,387,0
L,,132964,0.089,1.728,1.727,-15.8,-12.1,2.7,353,458,0
L,,133024,0.224,0.996,-0.169,-2.8,1.7,1.5,377,482,0
L,,133084,0.274,0.905,0.256,-0.5,1.7,1.0,379,485,0
L,,133144,0.334,0.993,0.208,0.1,-0.8,0.0,383,492,0
L,,133204,0.276,0.936,0.161,0.0,-0.7,-0.2,388,499,0
L,,133265,0.293,0.952,0.177,0.4,0.1,0.1,388,499,0
L,,133324,0.288,0.947,0.162,0.7,0.1,0.1,388,496,0
L,,133384,0.263,0.958,0.125,0.2,-0.6,0.0,388,498,0
L,,133485,0.265,0.942,0.168,0.4,-0.2,0.0,391,501,0
L,,133504,0.128,0.983,0.141,0.3,-0.3,0.0,392,501,0
L,,133564,0.298,0.955,0.179,0.2,-0.2,0.0,393,502,0
L,,133625,0.077,1.179,-0.018,0.4,-1.0,-0.6,383,493,0
L,,133684,0.297,1.007,0.163,1.8,-0.9,-0.4,367,468,0
L,,133744,0.144,1.296,-0.028,3.9,-2.3,-2.4,322,398,0
L,,133804,0.078,1.139,-0.002,6.7,-3.2,-6.8,332,410,0
L,,133864,0.484,0.135,0.571,5.2,-1.3,-5.3,341,417,0
L,,133924,0.937,0.499,1.018,-19.3,0.1,14.9,326,381,0
L,,133986,0.849,-0.507,1.162,-6.5,-3.8,-9.9,364,458,0
L,,134044,0.155,0.922,0.088,-0.2,1.6,0.9,371,464,0
L,,134104,0.142,0.950,0.305,-1.1,-0.5,-1.3,373,467,0
L,,134194,0.168,0.955,0.143,0.7,0.0,0.2,372,466,0
L,,134254,0.159,0.980,0.162,-0.6,-0.8,0.2,381,480,0
L,,134314,0.194,0.993,0.203,-0.7,0.0,0.6,382,483,0
L,,134404,0.199,0.976,0.193,-0.6,0.1,0.9,382,481,0
L,,134464,0.184,0.997,0.222,-0.7,-0.1,0.7,376,472,0
L,,134524,0.195,0.974,0.221,-0.1,-0.1,0.9,365,452,0
L,,134614,0.262,1.150,0.147,-0.9,-5.2,4.1,316,353,0
L,,134704,0.071,1.311,-0.017,9.9,3.3,-5.6,291,326,0
L,,134764,0.184,1.046,0.042,11.4,1.2,-7.4,296,333,0
L,,134826,0.253,0.641,0.227,7.3,-0.5,-5.2,300,337,0
L,,134884,1.047,-1.186,1.064,-9.9,-3.7,7.6,312,351,0
L,,134944,0.401,2.061,0.562,-21.9,3.0,18.2,310,346,0
L,,135004,0.621,-0.108,0.909,-0.3,1.6,-1.2,337,414,0
L,,135064,0.499,1.025,0.097,6.2,0.9,-0.6,316,343,0
L,,135125,0.458,0.888,0.302,2.6,-0.9,-2.2,323,360,0
L,,135184,0.302,0.758,0.332,-0.8,-1.4,1.6,325,364,0
L,,135274,-0.062,0.912,0.104,-4.3,-2.1,1.6,323,363,0
L,,135334,-0.053,0.887,0.018,-4.6,-0.3,0.8,321,370,0
L,,135394,-0.273,1.117,-0.215,-0.5,7.1,-9.1,312,379,0
L,,135455,0.134,0.993,0.112,1.3,-1.6,-5.9,371,454,0
L,,135516,-0.014,0.947,0.211,1.0,0.5,-2.7,385,485,0
L,,135574,0.099,1.002,0.236,-0.9,-1.6,-3.4,414,531,0
L,,135633,0.045,1.008,0.259,0.9,-0.8,-2.9,428,557,0
L,,135694,-0.005,0.981,0.163,0.8,-0.5,-1.1,443,576,0
L,,135754,-0.003,0.970,0.197,-1.3,-0.5,0.1,456,590,0
L,,135814,0.055,0.975,0.265,-1.8,0.1,0.5,454,589,0
L,,135875,0.034,0.978,0.271,-1.0,0.1,-0.1,448,580,0
L,,135964,0.016,0.949,0.261,0.4,-1.1,-0.5,445,576,0
L,,136024,-0.001,0.954,0.229,-0.2,-0.2,0.0,440,565,0
L,,136084,0.037,0.984,0.279,-0.4,0.3,0.0,433,561,0
L,,136144,0.022,0.968,0.276,0.2,0.0,0.0,436,560,0
L,,136205,0.020,0.975,0.269,0.1,-0.1,-0.4,432,562,0
L,,136266,0.000,0.955,0.252,0.0,-0.3,-0.8,438,565,0
L,,136324,0.003,0.982,0.264,0.0,0.0,-0.5,444,571,0
L,,136384,-0.005,0.979,0.284,0.8,0.2,-0.5,448,579,0
L,,136444,0.017,0.986,0.279,0.7,-0.2,-0.8,452,586,0
L,,136504,0.000,0.985,0.245,0.5,0.1,-0.1,455,590,0
L,,136594,-0.028,0.982,0.245,-0.2,-0.1,0.5,452,594,0
L,,136654,-0.022,0.971,0.255,-0.9,-0.6,1.1,451,599,0
L,,136714,-0.005,0.977,0.254,-1.4,-1.0,1.2,461,605,0
L,,136774,0.033,0.967,0.307,-0.3,-0.8,1.2,455,596,0
L,,136834,0.013,1.037,0.400,1.7,-1.6,0.7,458,597,0
L,,136894,-0.016,1.017,0.289,0.0,-1.6,1.8,458,600,0
L,,136984,0.120,0.999,0.221,5.7,-0.2,2.2,422,585,0
L,,137045,0.197,1.225,0.227,10.4,0.1,-0.8,343,550,0
L,,137104,0.437,1.303,0.210,11.5,-2.2,-3.6,306,499,0
L,,137165,0.092,0.754,-0.103,7.8,-8.3,-2.6,236,305,0
L,,137254,0.046,0.455,0.125,-1.9,-1.3,6.5,291,326,0
L,,137314,0.223,0.140,0.142,-11.3,-1.9,10.8,299,344,0
L,,137375,0.269,0.999,0.193,-22.0,-5.6,10.3,306,350,0
L,,137434,-1.097,2.602,-0.617,-2.6,2.8,-1.9,358,451,0
L,,137495,0.284,0.872,0.291,2.3,0.8,0.6,375,476,0
L,,137554,0.202,0.935,0.207,-0.7,-1.2,-0.3,377,481,0
L,,137614,0.173,0.986,0.251,0.9,0.0,0.1,376,478,0
L,,137674,0.150,0.954,0.211,0.6,-2.0,-1.3,383,492,0
L,,137736,0.165,0.945,0.165,0.9,0.0,-0.8,384,491,0
L,,137794,0.181,0.955,0.229,0.0,-0.2,-0.9,388,496,0
L,,137854,0.181,0.963,0.247,0.0,-0.6,-1.4,386,492,0
L,,137915,0.144,0.948,0.196,-0.4,0.1,-1.8,382,487,0
L,,137974,0.113,0.907,0.467,-2.2,0.2,-5.7,382,489,0
L,,138035,0.056,1.048,0.177,0.6,0.0,-3.1,386,497,0
L,,138094,0.028,0.978,0.222,1.3,-2.0,-4.5,395,517,0
L,,138184,-0.034,0.980,0.195,1.0,-1.8,-1.1,431,564,0
L,,138245,0.000,0.986,0.166,-0.6,-0.2,0.0,445,584,0
L,,138304,-0.016,0.985,0.205,-2.0,-0.2,0.1,455,593,0
L,,138406,0.012,0.966,0.265,-0.2,0.0,0.0,453,593,0
L,,138424,-0.025,1.037,0.331,0.5,0.0,0.2,454,595,0
L,,138486,-0.015,0.972,0.220,2.9,-0.3,0.0,438,581,0
L,,138544,0.005,0.964,0.153,1.1,0.4,0.3,424,576,0
L,,138604,0.025,0.953,0.196,0.1,0.7,0.1,426,580,0
L,,138665,-0.005,0.984,0.162,-0.2,0.6,0.2,429,588,0
L,,138724,-0.023,0.981,0.236,-0.5,-0.5,0.0,441,594,0
L,,138785,-0.002,1.011,0.204,0.2,-1.3,0.0,458,607,0
L,,138844,-0.039,0.980,0.184,0.8,-1.0,0.4,468,620,0
L,,138904,-0.016,0.979,0.194,0.3,-0.3,1.5,473,625,0
L,,138964,0.006,0.983,0.196,0.1,0.2,2.3,475,629,0
L,,139024,0.022,0.997,0.232,2.2,0.3,3.1,477,631,0
L,,139084,-0.090,1.047,0.273,2.0,0.4,3.6,462,618,0
L,,139144,0.159,1.124,0.290,8.4,0.6,1.6,384,546,0
L,,139206,0.205,1.216,-0.181,7.1,-3.1,-2.0,312,431,0
L,,139264,0.056,0.903,0.256,3.5,3.7,-0.6,281,294,0
L,,139325,0.482,0.345,0.537,0.5,10.6,9.2,284,299,0
L,,139384,0.691,0.609,0.265,-17.0,6.9,15.6,302,324,0
L,,139444,-0.767,1.305,-0.183,-15.5,-20.8,-3.0,339,412,0
L,,139504,0.466,0.832,0.094,8.3,4.7,1.3,360,453,0
L,,139564,0.109,0.985,0.225,1.1,-0.1,-0.8,368,468,0
L,,139625,0.232,0.983,0.183,0.6,0.2,1.0,373,476,0
L,,139684,0.215,1.023,0.233,-1.9,-0.4,1.4,378,480,0
L,,139745,0.303,1.087,0.182,2.3,3.3,0.0,327,426,0
L,,139804,-0.288,1.521,-0.241,6.9,2.5,-5.4,319,363,0
L,,139896,0.162,0.738,0.151,9.4,2.3,-8.0,332,377,0
L,,139955,0.390,0.369,0.334,4.6,5.4,-1.7,329,370,0
L,,140014,0.321,0.785,0.554,-6.8,4.0,1.5,334,380,0
L,,140075,-0.350,2.565,-0.781,10.1,4.8,-0.4,332,395,0
L,,140134,0.102,0.782,0.106,-1.4,2.9,-4.1,370,454,0
L,,140194,0.090,1.000,0.111,-1.1,1.8,-1.9,397,503,0
L,,140254,0.043,1.048,0.159,-2.4,-1.6,-3.1,420,555,0
L,,140314,-0.003,0.999,0.213,-1.3,-0.8,-2.2,444,581,0
L,,140375,-0.028,1.005,0.181,-1.4,-0.7,-0.7,458,598,0
L,,140434,-0.011,0.993,0.214,-1.9,-0.4,0.3,465,605,0
L,,140495,0.027,0.989,0.279,-0.9,-0.4,0.1,467,607,0
L,,140554,0.008,1.003,0.245,0.1,-0.5,-0.1,470,611,0
L,,140616,-0.027,0.994,0.250,0.6,-0.4,-0.3,469,611,0
L,,140674,0.001,0.965,0.199,-0.4,-0.1,-0.2,469,612,0
L,,140734,-0.027,0.974,0.234,-1.0,0.0,0.0,475,617,0
L,,140794,-0.038,0.980,0.260,-0.5,-0.4,0.0,480,621,0
L,,140854,-0.011,0.981,0.235,-0.1,0.0,0.4,478,621,0
L,,140915,-0.017,0.991,0.259,0.1,-0.3,0.5,481,624,0
L,,140974,-0.014,0.987,0.245,0.5,0.4,1.4,483,628,0
L,,141035,-0.004,0.962,0.242,0.4,0.3,2.0,480,624,0
L,,141094,0.015,0.993,0.280,1.2,-0.5,1.6,480,619,0
L,,141155,0.052,1.019,0.259,4.8,0.5,3.2,461,604,0
L,,141214,0.120,1.024,0.220,4.6,0.9,1.7,410,547,0
L,,141276,0.265,1.313,0.164,5.2,-3.7,0.9,315,469,0
L,,141334,0.077,0.976,0.121,6.8,-1.3,-2.4,277,324,0
L,,141424,0.366,0.497,0.428,0.0,1.6,8.7,287,324,0
L,,141514,0.189,2.546,0.260,-16.9,-3.5,13.7,297,329,0
L,,141575,0.643,0.721,1.600,-8.2,-4.2,1.3,347,428,0
L,,141634,0.306,1.026,0.105,-3.0,-2.2,-0.2,367,461,0
L,,141695,0.203,1.039,0.230,1.1,1.0,0.3,370,464,0
L,,141754,0.329,0.994,0.133,6.0,3.0,0.8,345,419,0
L,,141814,-0.043,1.370,-0.450,7.8,-0.6,-7.4,334,394,0
L,,141874,-0.035,0.935,-0.059,9.5,-1.0,-9.2,336,387,0
L,,141934,0.299,0.496,0.240,4.9,2.3,-4.2,338,383,0
L,,141995,0.246,0.610,0.360,-7.7,1.9,0.2,330,379,0
L,,142056,0.574,1.410,0.275,-14.0,-4.7,0.6,324,372,0
L,,142115,0.220,0.899,0.111,-1.3,0.4,-2.8,376,465,0
L,,142205,0.101,1.020,0.138,-2.0,-0.4,-1.9,400,505,0
L,,142264,0.044,0.997,0.224,-1.9,-1.2,-2.4,410,527,0
L,,142325,-0.048,0.976,0.189,-1.9,-1.4,-1.8,420,542,0
L,,142384,-0.025,1.011,0.234,-2.0,-0.5,-0.4,436,559,0
L,,142445,-0.032,0.984,0.228,-1.5,0.1,0.4,441,567,0
L,,142504,0.008,0.994,0.251,-1.0,0.3,0.5,438,566,0
L,,142564,-0.017,0.963,0.245,-0.7,0.5,0.1,437,563,0
L,,142625,-0.004,0.978,0.240,-0.4,0.1,-0.2,436,564,0
L,,142684,0.006,0.995,0.271,0.0,-0.5,-0.2,440,571,0
L,,142745,0.000,0.991,0.264,-0.2,-0.6,0.0,443,575,0
L,,142806,-0.008,1.000,0.272,-0.5,-0.4,0.2,448,580,0
L,,142865,-0.016,0.996,0.298,0.1,-0.1,0.7,446,582,0
L,,142965,0.006,0.970,0.243,0.1,-0.4,0.7,448,585,0
L,,142985,-0.019,0.980,0.233,0.0,-0.8,0.9,449,583,0
L,,143044,0.016,0.983,0.266,0.4,-0.6,0.8,453,584,0
L,,143134,-0.012,0.997,0.281,1.1,-1.0,1.4,453,584,0
L,,143195,0.012,1.012,0.267,1.9,-1.4,2.3,450,581,0
L,,143285,0.129,1.037,0.244,4.5,-0.3,0.8,425,553,0
L,,143344,0.089,1.255,0.224,4.6,-0.2,1.2,356,500,0
L,,143405,0.240,1.198,0.187,7.9,-0.3,-1.5,302,472,0
L,,143464,0.052,1.039,0.026,6.2,-3.4,-2.9,266,361,0
L,,143526,0.248,0.541,0.009,1.2,-10.8,-0.2,280,290,0
L,,143584,-0.743,0.564,0.172,-2.4,-8.8,-4.1,281,338,0
L,,143644,-0.307,0.766,0.017,2.6,1.5,2.8,268,479,0
L,,143705,0.129,1.022,-0.122,0.1,0.9,0.0,260,535,0
L,,143764,0.026,0.953,-0.079,-0.1,-0.6,1.3,284,552,0
L,,143854,-0.017,0.906,-0.116,-0.5,-0.4,2.3,294,545,0
L,,143915,0.113,0.899,-0.077,-1.5,-3.0,2.6,271,392,0
L,,143974,0.125,1.018,0.205,-3.6,-7.3,7.7,274,325,0
L,,144035,-0.021,1.146,0.203,-1.2,3.8,2.9,290,336,0
L,,144094,0.093,0.974,0.232,0.3,12.4,2.4,305,352,0
L,,144155,0.702,0.921,0.378,-3.7,7.1,1.2,306,375,0
L,,144214,0.275,1.089,0.318,-2.8,0.9,-1.5,279,385,0
L,,144276,0.088,0.990,0.159,-1.4,-0.1,-1.1,342,412,0
L,,144334,0.199,0.989,0.168,-0.8,0.0,-1.2,355,434,0
L,,144394,0.149,0.982,0.220,-1.0,-0.6,-3.1,374,457,0
L,,144455,0.114,0.984,0.157,-0.7,-0.4,-1.7,381,479,0
L,,144514,0.075,0.994,0.169,-1.6,-0.4,-2.1,391,498,0
L,,144575,0.095,0.968,0.201,-1.5,0.0,-1.6,404,521,0
L,,144634,0.026,0.995,0.281,-0.8,-0.8,-2.1,416,533,0
L,,144695,0.020,0.987,0.287,-0.1,-1.4,-2.4,425,550,0
L,,144754,0.000,1.000,0.210,0.3,-2.2,-1.9,439,571,0
L,,144814,-0.047,0.987,0.227,-0.6,-1.6,-1.0,448,580,0
L,,144875,-0.006,0.988,0.241,-0.8,-0.9,-0.5,456,592,0
L,,144934,-0.018,0.993,0.270,0.0,-0.2,-0.3,463,599,0
L,,144996,0.017,0.982,0.233,2.8,-0.3,-0.9,464,601,0
L,,145054,-0.040,1.014,0.212,2.7,-0.2,-0.5,466,600,0
L,,145115,-0.059,1.008,0.193,1.3,-0.2,-0.3,469,603,0
L,,145174,-0.037,0.985,0.183,-0.4,-0.4,0.3,470,608,0
L,,145264,-0.040,0.990,0.192,-0.7,-0.5,0.0,466,597,0
L,,145325,-0.031,0.997,0.236,-0.4,-1.5,0.1,452,578,0
L,,145384,-0.027,0.991,0.217,0.0,-0.2,0.0,443,571,0
L,,145445,-0.024,0.979,0.221,-0.3,0.0,-0.1,448,577,0
L,,145504,-0.050,0.994,0.237,-1.2,-0.7,0.0,454,583,0
L,,145565,-0.041,0.990,0.231,-1.2,-1.0,-0.4,458,591,0
L,,145625,-0.039,0.990,0.248,-0.7,-0.7,0.3,463,601,0
L,,145686,-0.049,0.994,0.273,0.5,-0.6,0.5,463,597,0
L,,145745,-0.043,0.997,0.205,1.3,-0.3,0.0,468,605,0
L,,145804,-0.025,0.995,0.230,2.7,0.3,-0.1,470,607,0
L,,145865,-0.066,0.941,0.077,3.9,-0.5,0.9,466,601,0
L,,145924,-0.054,0.978,0.128,-0.5,-0.9,0.1,468,604,0
L,,145985,-0.004,1.015,0.181,-0.6,0.1,0.0,472,608,0
L,,146044,-0.050,0.975,0.186,0.0,-0.1,0.0,473,612,0
L,,146134,-0.053,0.994,0.196,-1.1,-0.4,-0.1,477,618,0
L,,146195,-0.043,0.972,0.174,-1.1,-0.4,-0.1,478,616,0
L,,146254,-0.028,0.984,0.207,-1.3,-0.4,0.0,480,618,0
L,,146315,-0.069,0.982,0.224,-1.4,-1.0,-0.6,484,621,0
L,,146375,-0.069,0.974,0.278,-0.3,-0.4,-0.1,487,623,0
L,,146436,-0.060,0.999,0.268,0.0,-0.2,-0.1,489,627,0
L,,146495,-0.034,0.990,0.371,0.4,-0.1,0.2,491,629,0
L,,146554,-0.043,0.987,0.277,0.5,-0.3,0.4,493,631,0
L,,146615,-0.042,0.996,0.215,0.1,-1.1,0.3,496,636,0
L,,146674,-0.050,0.987,0.237,0.9,-1.0,0.3,495,632,0
L,,146735,-0.032,0.987,0.209,0.3,-0.5,0.1,493,631,0
L,,146794,-0.102,1.023,0.313,0.5,-0.4,0.6,499,635,0
L,,146855,-0.041,0.983,0.180,0.0,-1.1,1.0,498,636,0
L,,146915,-0.024,0.995,0.246,-0.9,-0.2,1.1,492,627,0
L,,146974,-0.021,0.993,0.246,0.8,-0.4,0.9,484,619,0
L,,147035,-0.004,0.986,0.182,0.6,0.0,0.7,481,615,0
L,,147094,-0.010,0.979,0.213,-0.2,0.0,0.4,479,614,0
L,,147156,-0.013,0.994,0.217,-0.5,0.0,0.2,481,619,0
L,,147214,-0.012,0.991,0.216,-0.8,0.0,0.1,480,621,0
L,,147275,-0.004,0.984,0.231,-0.9,0.3,0.1,484,624,0
L,,147334,-0.010,0.964,0.242,-0.9,0.0,0.1,478,620,0
L,,147395,-0.015,0.968,0.273,-0.6,-0.3,-0.1,481,622,0
L,,147455,-0.011,0.964,0.243,-0.2,-0.8,-0.7,479,617,0
L,,147514,-0.034,0.986,0.284,0.0,-0.9,-1.2,485,621,0
L,,147575,-0.048,0.989,0.275,0.0,-1.3,-1.1,487,627,0
L,,147634,-0.045,0.981,0.264,0.3,-0.6,-0.3,491,632,0
L,,147695,-0.060,0.976,0.256,0.2,-0.6,0.0,495,635,0
L,,147754,-0.045,0.979,0.266,0.0,-0.6,0.0,497,636,0
L,,147816,-0.042,0.986,0.279,0.9,-0.5,-0.1,499,638,0
L,,147875,-0.037,0.987,0.265,2.1,-0.3,-0.3,495,635,0
L,,147934,-0.048,1.011,0.260,3.5,-0.3,0.0,492,629,0
L,,147995,-0.051,1.040,0.236,7.1,-2.5,0.7,480,623,0
L,,148054,-0.069,0.999,0.082,6.4,1.3,0.6,452,615,0
L,,148115,-0.065,0.954,0.060,0.4,-0.6,0.3,446,612,0
L,,148174,-0.044,0.973,0.101,-1.2,-0.5,0.2,457,619,0
L,,148235,-0.069,0.968,0.138,-3.8,1.2,0.4,470,624,0
L,,148294,-0.009,1.011,0.198,-3.7,-0.5,0.3,479,628,0
L,,148396,-0.017,0.991,0.200,-1.3,-0.5,0.3,488,635,0
L,,148415,-0.029,1.004,0.231,-1.0,-0.4,0.5,489,636,0
L,,148474,-0.039,0.995,0.222,0.2,-0.6,0.4,493,636,0
L,,148566,-0.030,0.992,0.183,1.0,0.0,0.1,496,639,0
L,,148625,-0.040,1.009,0.169,0.8,-0.1,0.1,504,645,0
L,,148685,-0.031,0.986,0.183,2.1,-0.5,0.5,498,644,0
L,,148745,-0.030,0.965,0.123,1.0,-0.3,1.4,495,639,0
L,,148804,-0.011,0.995,0.187,0.0,-0.5,0.3,491,630,0
L,,148865,-0.011,0.992,0.177,-0.3,-0.4,0.0,490,633,0
L,,148924,-0.018,0.981,0.144,-1.1,-0.4,-0.3,493,631,0
L,,148985,-0.033,0.989,0.148,-1.8,-0.6,-0.4,498,638,0
L,,149044,-0.029,0.995,0.202,-2.0,-0.4,-0.5,495,633,0
L,,149105,-0.037,0.995,0.251,-0.8,-0.1,-0.5,495,633,0
L,,149195,-0.058,0.985,0.214,-0.1,-0.6,-0.3,495,637,0
L,,149256,-0.056,0.985,0.215,-0.2,-0.6,0.0,498,639,0
L,,149315,-0.044,0.985,0.231,-0.1,-0.5,0.0,500,641,0
L,,149375,-0.037,0.986,0.228,0.4,-0.3,0.1,505,648,0
L,,149435,-0.047,0.986,0.234,0.5,-0.3,0.1,505,646,0
L,,149495,-0.056,0.996,0.215,1.2,-0.4,0.1,504,646,0
L,,149554,-0.047,0.984,0.182,0.6,-0.6,0.3,505,647,0
L,,149615,-0.045,0.985,0.206,-0.2,-0.4,0.2,504,648,0
L,,149674,-0.045,0.981,0.214,-0.2,-0.3,0.2,507,649,0
L,,149735,-0.042,0.981,0.213,-0.4,-0.3,0.2,509,651,0
L,,149794,-0.048,0.977,0.209,-0.9,-0.5,0.0,512,653,0
L,,149855,-0.034,0.979,0.234,-0.9,-0.4,-0.1,506,648,0
L,,149915,-0.030,0.986,0.277,-0.6,-0.3,-0.1,497,639,0
L,,149976,-0.040,0.996,0.260,-0.2,-0.5,0.0,498,638,0
L,,150035,-0.038,0.989,0.292,0.9,-0.2,0.1,499,634,0
L,,150094,-0.060,0.989,0.263,3.3,-0.1,0.4,496,633,0
L,,150154,-0.029,0.993,0.195,2.2,0.7,0.1,488,625,0
L,,150214,-0.056,0.985,0.165,-0.2,0.1,0.0,490,623,0
L,,150275,-0.065,0.974,0.257,-1.3,-0.2,0.4,488,624,0
L,,150334,-0.024,1.010,0.213,-1.6,-0.1,0.0,489,625,0
L,,150395,-0.044,0.999,0.228,-1.3,-0.7,0.2,490,626,0
L,,150455,-0.046,0.986,0.223,0.1,-1.2,0.2,493,629,0
L,,150514,-0.070,0.977,0.249,1.1,-1.0,0.0,489,629,0
L,,150605,-0.034,0.994,0.225,0.0,-0.6,0.2,476,617,0
L,,150665,-0.080,0.982,0.257,-0.1,0.1,0.4,479,616,0
L,,150726,-0.045,0.982,0.208,0.4,-0.3,0.7,482,619,0
L,,150785,-0.040,0.979,0.209,0.0,0.1,0.6,481,617,0
L,,150844,-0.031,0.987,0.229,0.2,0.2,0.6,473,601,0
L,,150905,-0.027,0.982,0.230,0.4,-0.1,0.2,462,590,0
L,,150995,-0.039,0.982,0.226,-0.4,-0.3,-0.1,466,593,0
L,,151054,-0.024,0.996,0.223,-0.2,0.0,0.1,466,596,0
L,,151115,-0.057,0.982,0.245,0.0,-0.5,0.3,475,606,0
L,,151174,-0.020,0.982,0.214,0.0,-0.7,0.3,484,615,0
L,,151235,-0.010,0.992,0.238,0.2,-0.7,-0.2,484,618,0
L,,151294,-0.048,0.999,0.271,1.5,0.0,0.0,486,623,0
L,,151355,-0.043,0.978,0.175,0.0,0.3,0.0,482,620,0
L,,151416,-0.035,0.980,0.203,-0.6,0.6,0.4,484,621,0
L,,151475,-0.048,0.981,0.218,-0.2,0.6,1.0,485,626,0
L,,151565,-0.032,0.989,0.208,0.4,0.9,1.5,481,621,0
L,,151625,-0.032,0.992,0.195,0.2,0.2,1.7,480,621,0
L,,151685,-0.008,0.999,0.212,0.2,0.4,2.5,481,623,0
L,,151745,0.020,1.001,0.214,0.2,0.3,3.1,479,620,0
L,,151804,0.042,1.010,0.311,1.4,-0.5,2.3,470,614,0
L,,151865,0.123,1.052,0.311,5.7,-0.7,2.1,439,592,0
L,,151924,0.257,1.191,0.156,8.7,1.0,0.3,329,540,0
L,,152015,0.215,1.114,0.015,8.7,-3.6,-1.0,229,379,0
L,,152075,0.169,0.325,0.286,0.0,-6.3,-0.5,257,287,0
L,,152134,0.224,0.432,0.404,-5.8,-2.2,9.8,261,297,0
L,,152196,0.255,0.747,0.282,-9.6,-2.2,15.5,271,296,0
L,,152254,0.426,2.987,0.064,-20.2,-4.1,3.3,275,291,0
L,,152315,0.672,0.951,0.453,5.5,2.0,1.8,345,418,0
L,,152375,0.217,0.976,0.294,-1.0,-2.2,-0.1,359,440,0
L,,152435,0.328,0.929,0.225,0.3,0.0,0.6,364,441,0
L,,152495,0.274,1.005,0.239,0.0,-1.2,0.1,371,458,0
L,,152596,0.305,0.949,0.210,0.4,0.2,0.7,377,467,0
L,,152615,0.307,0.938,0.248,0.7,0.7,0.7,375,463,0
L,,152674,0.290,0.860,0.244,1.0,0.0,0.3,374,462,0
L,,152765,0.280,0.952,0.236,-0.8,-0.6,0.1,386,479,0
L,,152825,0.288,0.955,0.238,0.0,-0.1,0.3,388,484,0
L,,152884,0.271,0.972,0.224,0.1,-0.7,0.2,386,487,0
L,,152946,0.307,0.972,0.251,1.2,0.1,0.4,391,493,0
L,,153004,0.326,1.023,0.304,4.9,1.2,-0.6,363,452,0
L,,153065,0.092,1.166,0.055,5.3,1.1,-3.1,327,376,0
L,,153125,0.271,0.822,0.177,4.8,1.9,-2.5,339,391,0
L,,153185,0.391,0.463,0.324,-4.7,-3.5,2.9,346,403,0
L,,153245,0.169,1.253,-0.095,-11.5,-3.0,-2.1,332,436,0
L,,153334,0.213,0.895,0.563,-2.2,-4.4,2.0,369,446,0
L,,153395,0.160,0.933,0.302,1.3,-0.9,0.9,376,459,0
L,,153455,0.214,0.953,0.258,0.2,-1.7,0.9,378,470,0
L,,153544,0.205,0.946,0.223,0.0,0.0,0.4,387,485,0
L,,153605,0.281,0.936,0.283,0.0,-0.2,0.9,391,492,0
L,,153666,0.197,0.973,0.218,-0.1,-0.6,0.9,391,492,0
L,,153725,0.308,0.906,0.289,0.3,-0.6,1.6,386,481,0
L,,153785,0.185,1.061,0.230,1.6,-0.3,2.1,361,437,0
L,,153845,0.312,0.947,0.277,3.7,-0.3,-1.3,296,384,0
L,,153905,0.171,1.054,0.132,3.3,-0.7,-2.6,309,374,0
L,,153964,0.216,0.948,0.159,4.3,-0.6,-3.0,338,372,0
L,,154024,0.320,0.775,0.169,2.8,-1.5,-1.7,269,395,0
L,,154115,0.348,0.737,0.378,-6.0,-2.0,4.5,342,397,0
L,,154174,0.290,1.276,0.258,-2.6,-3.6,0.3,343,414,0
L,,154235,0.259,0.914,0.215,1.0,0.4,-0.2,363,443,0
L,,154294,0.215,0.964,0.186,0.2,0.2,-0.1,362,445,0
L,,154355,0.259,0.928,0.242,-0.7,-0.7,-0.7,366,450,0
L,,154416,0.240,0.992,0.183,-0.2,-1.1,-0.8,373,457,0
L,,154475,0.245,0.937,0.181,-0.2,-0.6,-1.1,370,456,0
L,,154565,0.230,0.912,0.180,0.6,-0.7,-1.5,375,459,0
L,,154625,0.262,0.958,0.145,-0.1,-1.4,-1.2,374,469,0
L,,154685,0.187,1.015,0.246,-2.1,-2.2,-0.9,377,481,0
L,,154745,0.234,0.962,0.246,-0.9,1.1,-1.5,363,471,0
L,,154805,0.039,1.156,0.098,1.6,1.8,-3.3,354,471,0
L,,154865,0.038,1.008,0.218,2.2,-0.2,-3.1,354,473,0
L,,154924,0.080,0.984,0.149,1.9,-1.0,-1.7,360,482,0
L,,154985,0.100,0.960,0.181,0.4,-0.7,-0.1,368,487,0
L,,155044,0.130,0.975,0.213,-0.2,-0.4,0.0,371,494,0
L,,155105,0.117,0.973,0.239,0.8,-0.4,-0.3,375,495,0
L,,155166,0.115,0.992,0.224,2.6,-0.7,-1.5,376,495,0
L,,155225,0.062,0.970,0.172,2.7,-0.1,-1.8,376,498,0
L,,155285,0.098,0.999,0.141,2.2,0.0,-0.6,387,507,0
L,,155345,0.029,1.027,0.032,0.6,1.3,0.0,393,520,0
L,,155405,-0.054,0.866,0.099,-2.7,2.7,0.2,398,528,0
L,,155464,0.006,1.072,0.148,0.4,3.4,4.7,395,527,0
L,,155525,0.237,1.115,0.224,5.1,0.1,2.5,265,510,0
L,,155584,0.377,1.348,0.329,15.1,-1.3,-1.7,267,336,0
L,,155645,0.100,1.082,0.225,9.7,-1.5,-3.3,286,326,0
L,,155705,0.281,0.607,0.226,2.1,0.3,0.8,292,322,0
L,,155765,0.268,0.685,0.150,-6.0,-1.3,4.7,295,334,0
L,,155827,0.228,0.892,0.090,-10.2,-0.7,6.4,302,345,0
L,,155885,0.225,1.079,-0.002,-9.8,-0.6,6.5,299,339,0
L,,155945,0.114,1.156,-0.019,-6.6,-0.4,3.9,305,355,0
L,,156004,-0.003,1.140,0.033,-2.7,2.4,1.5,313,359,0
L,,156065,0.101,1.063,0.060,-1.2,7.2,0.1,314,369,0
L,,156125,0.412,0.748,-0.079,-3.0,4.4,1.3,317,370,0
L,,156185,0.276,0.754,-0.121,-6.0,-4.7,1.6,314,374,0
L,,156245,0.694,1.208,0.350,8.6,-0.2,-2.1,333,405,0
L,,156305,0.221,0.789,0.324,1.9,-2.1,-6.0,341,442,0
L,,156365,0.047,1.077,0.147,3.2,1.8,-4.8,328,471,0
L,,156425,0.074,0.977,0.205,2.4,-0.2,-2.9,336,474,0
L,,156485,-0.083,1.151,0.062,0.5,-1.1,-2.5,355,477,0
L,,156546,0.129,0.965,0.230,0.6,0.8,-0.6,357,481,0
L,,156605,0.098,1.015,0.183,1.5,-0.3,-1.4,367,488,0
L,,156665,0.082,0.963,0.238,3.3,-0.5,-2.3,370,491,0
L,,156754,-0.020,0.998,0.009,3.5,-0.4,-2.4,384,512,0
L,,156815,-0.008,0.992,0.063,1.2,0.1,-0.6,402,543,0
L,,156875,-0.017,1.023,0.115,-0.3,0.5,0.7,406,552,0
L,,156935,0.031,1.026,0.143,0.2,1.6,2.4,403,549,0
L,,156995,0.082,1.062,0.150,2.8,2.1,1.5,368,540,0
L,,157055,0.198,1.240,0.298,10.1,1.2,0.0,322,512,0
L,,157115,0.640,1.718,0.234,16.6,-1.5,-4.8,301,516,0
L,,157175,-0.209,1.039,0.139,13.4,-7.4,-10.3,227,317,0
L,,157237,0.017,0.378,0.297,2.5,-0.2,-0.5,246,307,0
L,,157294,0.049,0.349,0.161,-6.3,4.1,5.9,261,313,0
L,,157355,0.252,0.750,-0.128,-12.8,5.3,9.1,278,335,0
L,,157414,0.316,1.124,-0.271,-14.5,-0.1,9.7,282,346,0
L,,157475,0.190,1.254,-0.140,-13.4,-5.8,8.7,272,343,0
L,,157535,0.077,1.256,-0.011,-8.5,-3.5,7.0,261,317,0
L,,157595,0.070,1.212,0.046,-4.4,0.0,3.4,254,304,0
L,,157655,0.114,1.142,0.051,-2.0,0.2,0.8,266,309,0
L,,157715,0.095,0.976,0.041,0.6,-0.4,-0.4,267,313,0
L,,157775,0.071,0.756,0.039,0.5,-2.6,-1.0,280,333,0
L,,157865,0.335,1.970,0.518,1.4,0.5,-9.6,272,436,0
L,,157925,-0.184,1.038,0.105,1.8,-5.1,-9.3,354,470,0
L,,157987,0.074,0.988,0.074,4.1,1.0,-2.3,385,513,0
L,,158044,0.114,0.979,0.113,-0.9,-2.0,-2.0,399,533,0
L,,158105,0.030,0.969,0.232,-1.8,-0.3,0.0,404,536,0
L,,158165,0.106,0.963,0.252,-0.9,-0.8,-0.9,401,531,0
L,,158225,0.043,0.975,0.283,1.0,-1.0,-1.5,402,532,0
L,,158285,0.062,0.942,0.312,4.9,-1.4,-2.0,403,531,0
L,,158345,0.022,1.016,0.165,4.7,-3.0,-0.9,391,516,0
L,,158405,-0.036,0.987,0.116,2.3,-0.4,-0.4,374,502,0
L,,158465,-0.005,1.015,0.104,0.0,-0.5,1.5,366,493,0
L,,158525,0.006,1.013,0.105,-1.3,0.7,2.3,366,490,0
L,,158584,0.060,0.963,0.242,-1.1,1.3,1.6,363,486,0
L,,158645,0.091,1.001,0.222,0.1,3.3,-0.1,373,495,0
L,,158707,0.045,1.036,0.200,2.2,2.9,-0.7,371,499,0
L,,158765,0.069,1.033,0.225,7.8,3.3,-0.6,369,488,0
L,,158825,0.245,1.487,0.445,13.4,2.7,-2.7,300,368,0
L,,158885,0.749,1.682,0.236,15.7,0.9,-10.2,283,380,0
L,,158945,-0.648,0.880,0.016,8.7,3.2,-12.0,225,290,0
L,,159005,0.258,0.221,0.287,1.2,16.7,-1.1,248,284,0
L,,159065,0.580,0.248,-0.037,-8.3,13.3,5.2,258,292,0
L,,159125,0.605,0.719,-0.165,-16.7,8.6,10.1,274,311,0
L,,159215,0.225,1.380,0.155,-18.7,11.4,12.6,260,303,0
L,,159275,0.000,1.458,0.062,-18.0,13.3,14.3,248,293,0
L,,159334,0.019,1.229,0.040,-10.2,16.5,14.8,257,303,0
L,,159426,0.063,1.108,-0.283,7.1,12.7,0.0,272,319,0
L,,159485,0.433,1.012,0.414,4.8,7.6,-6.4,307,369,0
L,,159545,0.031,1.102,0.397,6.0,-2.7,-9.3,353,446,0
L,,159605,-0.140,0.907,0.399,7.7,-1.3,-6.3,362,463,0
L,,159665,0.040,1.025,0.070,7.4,0.8,-6.1,387,503,0
L,,159724,-0.056,0.965,0.219,4.7,1.8,-4.8,413,543,0
L,,159785,0.090,1.010,0.239,1.5,-0.5,-0.8,412,554,0
L,,159845,-0.037,1.065,0.287,1.0,1.9,0.9,338,514,0
L,,159905,-0.014,0.944,0.243,2.3,4.4,0.8,327,502,0
L,,159965,-0.022,1.011,0.290,3.4,2.6,-1.7,293,512,0
L,,160025,-0.266,0.951,0.309,3.3,0.3,-5.0,261,547,0
L,,160084,-0.059,1.081,0.114,4.2,-0.4,-4.0,318,569,0
L,,160147,-0.030,1.140,0.247,3.3,1.5,-2.4,346,578,0
L,,160205,0.019,1.135,0.166,6.2,0.6,-3.2,333,579,0
L,,160265,0.095,1.297,0.269,9.5,2.0,-6.7,317,590,0
L,,160325,0.704,1.727,0.374,16.1,11.3,-8.8,226,506,0
L,,160385,-0.331,1.321,0.196,17.7,5.7,-15.6,173,317,0
L,,160445,0.452,0.193,0.614,1.2,9.7,-0.3,239,264,0
L,,160505,0.361,-0.059,0.258,-10.7,14.1,7.6,253,293,0
L,,160565,0.382,0.479,0.317,-22.4,9.7,16.9,265,320,0
L,,160625,0.433,1.311,0.155,-29.2,11.8,20.2,241,319,0
L,,160715,0.007,1.954,0.128,-30.2,6.0,17.1,250,355,0
L,,160775,-0.704,1.773,-0.703,-12.9,15.2,11.1,281,368,0
L,,160835,0.108,1.162,-0.893,9.5,6.2,-5.0,276,360,0
L,,160897,1.293,2.091,-0.117,15.6,-9.1,-9.8,337,426,0
L,,160955,-0.242,0.696,0.163,11.7,-7.2,-9.5,354,463,0
L,,161015,0.040,1.012,0.179,10.1,2.1,-5.2,375,497,0
L,,161074,0.029,0.986,0.146,5.1,-0.6,-4.4,409,539,0
L,,161135,-0.050,0.957,0.138,1.7,1.3,-1.5,423,562,0
L,,161195,-0.005,1.031,0.253,0.2,1.4,-0.5,415,558,0
L,,161255,-0.028,1.010,0.231,0.5,2.2,-1.3,346,530,0
L,,161315,-0.036,0.992,0.271,3.0,0.8,-2.8,364,560,0
L,,161375,0.016,1.178,0.200,7.3,0.0,-4.4,357,582,0
L,,161435,0.045,1.310,0.241,10.9,1.1,-5.5,363,581,0
L,,161495,0.253,1.579,0.482,14.4,4.7,-8.9,344,583,0
L,,161556,0.119,1.478,0.215,20.1,9.9,-13.6,218,472,0
L,,161615,-0.911,0.277,0.240,9.5,12.6,-10.2,226,310,0
L,,161675,0.395,-0.059,0.366,-5.5,7.3,3.4,232,329,0
L,,161735,0.263,0.211,0.303,-18.3,5.8,13.4,243,333,0
L,,161795,0.152,1.037,0.291,-29.8,9.1,17.2,248,355,0
L,,161855,0.227,1.787,-0.034,-34.2,8.6,20.4,269,366,0
L,,161915,-0.258,2.230,-0.683,-23.6,5.9,11.0,266,364,0
L,,161975,-0.453,1.611,-1.199,1.3,5.6,-0.4,273,366,0
L,,162035,0.408,1.888,-0.040,10.9,1.5,-8.9,350,448,0
L,,162095,-0.440,0.878,0.351,8.4,-4.4,-8.2,371,498,0
L,,162155,0.044,0.981,0.210,7.6,1.7,-4.1,391,515,0
L,,162215,0.018,0.965,0.235,3.2,0.3,-2.4,393,518,0
L,,162277,-0.085,0.943,0.233,1.0,1.4,-0.5,395,520,0
L,,162335,-0.032,0.973,0.247,0.4,2.4,-0.3,391,513,0
L,,162395,-0.053,1.004,0.236,0.8,2.9,-0.9,382,503,0
L,,162455,0.012,1.066,0.296,2.9,3.0,-1.9,339,464,0
L,,162515,-0.054,1.032,0.362,5.2,1.3,-4.5,338,496,0
L,,162575,0.006,1.173,0.059,7.5,1.1,-4.2,377,568,0
L,,162635,0.110,1.414,0.232,10.8,2.8,-6.4,364,586,0
L,,162695,0.579,1.688,0.636,15.1,8.4,-7.8,317,565,0
L,,162755,-0.599,1.006,0.031,15.6,5.6,-11.3,194,383,0
L,,162815,0.317,0.000,0.454,-0.5,15.5,-1.2,245,322,0
L,,162875,0.383,0.053,0.184,-11.1,12.7,6.0,264,341,0
L,,162935,0.338,0.588,0.401,-23.3,11.7,17.2,253,342,0
L,,162997,0.296,1.600,0.071,-29.8,10.0,17.6,251,364,0
L,,163055,-0.186,1.927,-0.101,-29.1,6.2,14.6,266,383,0
L,,163145,-0.291,1.471,-0.544,-4.3,10.3,4.5,273,365,0
L,,163206,0.692,1.297,2.023,-4.2,-7.9,-21.5,313,379,0
L,,163265,-0.137,0.924,0.441,7.1,-7.1,-10.2,376,482,0
L,,163325,0.065,0.973,0.239,10.3,0.0,-4.6,434,575,0
L,,163385,-0.038,1.006,0.252,5.2,-1.4,-3.0,450,603,0
L,,163445,0.010,1.002,0.231,1.6,0.5,-0.2,447,615,0
L,,163505,-0.033,0.995,0.263,0.7,2.1,0.4,412,611,0
L,,163565,-0.002,0.948,0.179,1.4,1.5,-0.4,393,614,0
L,,163625,-0.017,0.969,0.236,1.9,-0.9,-1.0,404,616,0
L,,163687,-0.005,1.019,0.159,1.5,0.2,-0.6,422,623,0
L,,163745,-0.036,1.001,0.217,1.6,-0.7,0.3,447,634,0
L,,163805,-0.044,1.011,0.158,0.0,-0.4,0.8,452,637,0
L,,163865,0.050,1.037,0.312,2.6,0.9,0.7,445,621,0
L,,163925,-0.070,0.964,-0.030,9.8,-3.2,-2.8,423,628,0
L,,163985,0.326,1.520,0.217,9.0,-1.3,-2.8,359,629,0
L,,164045,-0.508,0.367,-0.229,4.2,-1.0,-3.4,295,626,0
L,,164105,-0.177,1.257,0.059,-3.0,1.2,2.2,378,614,0
L,,164166,-0.112,1.638,0.315,0.8,3.9,7.0,355,610,0
L,,164225,-1.020,0.703,1.131,1.0,5.5,-2.3,289,534,0
L,,164285,1.047,-0.399,0.892,-3.8,-8.9,12.5,258,341,0
L,,164345,2.463,0.981,-0.911,21.2,-21.7,22.4,218,517,0
L,,164407,0.531,2.255,-0.386,5.4,-4.8,-4.5,442,599,0
L,,164465,-0.245,0.819,0.033,3.7,0.4,3.2,393,615,0
L,,164525,0.033,1.181,0.042,-0.7,-2.7,3.7,359,596,0
L,,164585,-0.431,0.909,0.180,-6.5,3.9,3.2,322,595,0
L,,164645,-0.017,0.893,0.290,-1.2,0.2,0.6,326,605,0
L,,164706,0.023,1.040,0.190,1.9,-0.4,1.5,340,608,0
L,,164765,0.024,1.170,0.224,2.8,-0.5,1.6,345,610,0
L,,164825,0.006,1.109,0.125,3.3,0.9,3.5,341,608,0
L,,164885,0.029,1.005,0.074,2.8,0.8,4.9,316,599,0
L,,164945,0.059,0.938,0.038,3.7,0.0,4.6,308,594,0
L,,165005,0.003,0.977,0.115,3.2,-1.7,2.8,285,576,0
L,,165067,-0.387,1.289,0.387,8.0,4.8,1.0,253,451,0
L,,165125,-0.251,1.235,0.069,8.1,9.4,1.9,219,304,0
L,,165185,-0.022,0.866,0.153,0.7,6.2,-3.2,240,307,0
L,,165246,0.370,0.722,-0.183,-0.4,7.9,-2.5,254,316,0
L,,165305,0.490,0.680,-0.327,-0.7,7.6,-0.7,253,310,0
L,,165365,0.419,0.906,-0.347,-2.3,1.0,-0.7,270,328,0
L,,165425,0.139,1.068,-0.130,-1.5,2.8,-0.2,278,332,0
L,,165485,0.172,1.149,-0.164,0.2,5.4,-1.0,280,332,0
L,,165545,0.275,0.980,-0.265,3.0,7.0,-1.7,276,323,0
L,,165605,0.444,1.003,-0.228,4.6,5.8,-1.5,262,310,0
L,,165666,0.290,0.961,0.009,2.8,6.6,0.0,272,307,0
L,,165725,0.133,0.957,0.318,-2.6,10.0,1.0,274,310,0
L,,165817,-0.513,0.829,0.449,-14.7,6.9,1.7,236,254,0
L,,165875,-0.365,-0.034,0.044,-8.9,14.2,27.5,193,294,0
L,,165935,2.403,0.308,0.875,1.1,6.6,-10.9,217,374,0
L,,165996,-0.763,0.438,0.049,1.9,-5.1,-6.7,327,504,0
L,,166055,0.061,1.063,-0.270,4.6,-2.6,-6.3,437,577,0
L,,166115,-0.050,1.003,0.094,-0.8,-0.5,1.7,449,601,0
L,,166206,-0.010,1.023,0.272,-2.3,0.0,1.4,440,578,0
L,,166295,0.066,1.029,0.206,0.0,-0.6,0.1,423,550,0
L,,166355,0.060,1.053,0.184,1.0,0.0,0.1,426,554,0
L,,166416,0.032,0.982,0.164,0.5,-0.1,0.4,438,570,0
L,,166475,0.071,1.037,0.203,1.5,0.0,0.0,436,567,0
L,,166536,0.051,0.962,0.075,3.9,-0.5,-0.7,438,567,0
L,,166597,-0.026,0.986,0.016,5.4,-0.4,-2.4,425,583,0
L,,166655,0.123,1.030,0.264,8.6,-0.3,-2.9,374,580,0
L,,166715,-0.085,0.891,-0.053,4.7,-0.5,-1.6,383,575,0
L,,166775,-0.040,1.015,-0.084,1.7,0.5,-0.1,393,589,0
L,,166835,0.004,1.220,-0.080,-1.4,3.2,3.3,351,599,0
L,,166895,0.486,1.494,-0.042,0.5,2.0,5.1,315,592,0
L,,166956,-0.363,0.495,0.111,11.9,7.7,12.0,213,466,0
L,,167015,-0.402,1.420,-0.253,21.0,7.8,-3.6,232,322,0
L,,167076,-0.105,0.855,0.103,12.5,-4.8,-9.7,245,321,0
L,,167135,-0.097,0.713,0.224,5.4,4.0,-6.7,263,324,0
L,,167195,0.170,0.560,-0.025,-4.4,9.3,-0.7,273,328,0
L,,167256,0.180,0.772,-0.293,-8.4,8.8,0.7,271,345,0
L,,167315,0.253,0.990,-0.428,-5.9,8.2,1.8,270,339,0
L,,167375,0.191,0.911,-0.376,-3.7,3.6,1.5,278,350,0
L,,167435,0.075,1.039,-0.284,-2.0,3.7,2.0,281,350,0
L,,167496,0.270,1.066,-0.210,-2.4,1.5,1.2,282,349,0
L,,167555,0.087,1.097,-0.264,-2.5,2.3,1.0,288,359,0
L,,167616,0.159,1.050,-0.272,-0.3,4.3,0.8,280,351,0
L,,167675,0.198,0.937,-0.195,0.7,3.7,0.2,280,345,0
L,,167735,0.188,0.833,-0.039,0.5,5.3,1.1,268,326,0
L,,167794,0.072,0.895,0.136,-1.0,9.5,2.2,260,326,0
L,,167855,0.067,1.030,0.044,-2.1,11.6,2.0,244,322,0
L,,167916,0.036,1.040,-0.017,-3.1,6.2,-1.6,256,341,0
L,,167977,0.484,0.736,-0.082,0.4,8.5,-1.6,254,386,0
L,,168036,0.174,0.992,-0.019,0.5,-2.5,-4.2,302,497,0
L,,168095,0.204,1.230,0.008,3.7,-0.1,-6.2,352,562,0
L,,168155,-0.085,0.926,-0.051,1.9,-2.1,-6.7,385,589,0
L,,168215,-0.035,1.192,-0.114,-1.0,-0.3,0.5,410,611,0
L,,168305,0.944,1.858,0.161,-6.3,5.4,10.7,308,605,0
L,,168366,-0.367,0.806,-0.567,-5.3,-7.9,8.0,186,317,0
L,,168425,-0.050,0.801,-0.053,16.4,-1.1,-0.9,219,320,0
L,,168485,0.326,0.541,0.232,12.2,-4.1,0.0,248,311,0
L,,168545,-0.074,1.416,0.088,8.2,2.7,-1.4,266,327,0
L,,168635,0.325,1.543,-0.123,-0.7,9.8,-1.1,275,332,0
L,,168695,0.254,0.948,-0.172,-5.2,7.9,3.4,279,342,0
L,,168756,-0.054,0.127,-0.281,-4.0,-1.3,3.7,278,334,0
L,,168815,-0.094,0.110,-0.217,-5.1,-6.7,0.8,284,343,0
L,,168875,-0.092,0.389,-0.351,-1.8,-3.1,-0.2,289,347,0
L,,168935,0.496,1.334,-0.219,1.6,-4.6,-0.8,286,348,0
L,,168996,0.244,1.723,0.031,-0.7,-1.8,-2.4,279,336,0
L,,169055,0.284,1.247,-0.178,-1.8,4.2,-0.1,287,347,0
L,,169116,0.444,1.024,-0.267,-2.1,2.3,1.1,291,345,0
L,,169175,0.257,0.887,-0.217,-0.6,0.1,0.4,292,353,0
L,,169235,0.136,0.763,-0.122,2.9,2.8,-0.5,288,343,0
L,,169295,0.210,0.834,-0.065,2.1,1.5,-0.3,280,333,0
L,,169355,0.101,1.002,0.013,0.1,0.2,0.0,270,330,0
L,,169447,0.092,1.107,0.044,0.0,5.9,-1.9,282,345,0
L,,169505,0.416,0.874,0.177,-1.2,6.4,-3.1,273,339,0
L,,169565,-0.011,0.987,0.050,-7.8,5.6,-7.7,252,355,0
L,,169625,0.063,0.950,0.002,0.3,2.7,-2.4,277,472,0
L,,169685,0.489,1.376,0.081,2.3,0.6,-5.3,320,538,0
L,,169746,0.135,1.235,0.067,2.8,-3.0,-7.0,358,574,0
L,,169805,-0.193,0.782,-0.300,-2.0,-3.3,-2.1,372,602,0
L,,169866,0.181,1.419,0.037,-4.9,0.8,4.1,396,619,0
L,,169956,0.628,1.034,0.243,-8.0,-1.4,5.4,196,431,0
L,,170015,-0.463,0.321,0.364,2.2,0.6,1.4,217,348,0
L,,170076,0.090,0.061,0.608,-9.7,-1.3,3.8,232,387,0
L,,170166,0.563,0.780,1.423,3.2,-26.5,-12.1,375,548,0
L,,170257,-0.209,1.108,-0.225,-1.0,3.0,4.4,411,602,0
L,,170315,0.377,2.133,0.306,-8.0,0.0,10.4,329,593,0
L,,170375,-0.139,0.654,0.052,-8.1,5.3,5.6,141,293,0
L,,170435,0.606,-0.025,0.056,10.8,-13.9,-6.4,213,379,0
L,,170496,-0.469,0.215,0.145,-5.1,3.8,-11.8,176,413,0
L,,170555,1.427,1.830,0.160,15.1,12.7,0.9,265,545,0
L,,170616,0.274,2.300,-0.354,3.3,-2.3,-3.2,359,572,0
L,,170675,0.123,1.217,0.086,0.7,0.6,2.0,393,600,0
L,,170736,0.034,0.983,-0.006,-5.7,0.5,7.5,341,601,0
L,,170795,-0.092,0.888,0.169,-4.9,3.0,5.9,259,518,0
L,,170855,-0.091,0.805,0.298,-1.1,0.8,4.0,258,494,0
L,,170915,0.109,0.953,0.126,0.1,-1.2,2.1,296,535,0
L,,170977,0.094,1.093,0.205,0.1,-1.3,3.2,311,558,0
