side,stage,device_ms,ax,ay,az,gx,gy,gz,toe,heel,phase,L_toe,L_heel,R_toe,R_heel
R,,4903817.0,0.235,0.823,0.038,0.6,-0.9,0.9,679,806,0,,,,
R,,4903827.0,0.345,0.893,0.107,0.3,-1.2,0.1,680,807,0,,,,
R,,4903837.0,0.039,0.833,0.08,1.5,-2.7,-0.1,679,805,0,,,,
R,,4903847.0,0.518,1.072,0.148,1.2,-4.9,0.8,681,807,0,,,,
R,,4903857.0,0.582,0.875,0.098,0.3,-1.9,0.0,660,807,0,,,,
R,,4903867.0,0.275,0.965,0.078,1.0,-1.5,0.5,668,807,0,,,,
R,,4903877.0,0.254,0.971,0.027,1.0,-1.0,-0.1,660,810,0,,,,
R,,4903887.0,0.319,0.961,0.055,0.5,-1.0,0.0,666,808,0,,,,
R,,4903897.0,0.387,0.948,0.063,0.1,0.0,0.0,667,807,0,,,,
R,,4903907.0,0.335,0.99,0.072,0.0,0.0,0.0,667,806,0,,,,
R,,4903917.0,0.367,0.95,0.088,0.0,0.9,-0.1,673,807,0,,,,
R,,4903927.0,0.24,0.939,0.08,0.1,0.7,0.0,674,805,0,,,,
R,,4903937.0,0.181,0.903,0.074,0.6,0.0,-0.4,667,806,0,,,,
R,,4903947.0,0.364,0.946,0.112,0.2,-0.5,-0.1,668,807,0,,,,
R,,4903957.0,0.323,0.938,0.074,0.4,-0.1,-0.4,668,804,0,,,,
R,,4903967.0,0.349,0.986,0.078,0.1,-0.6,-0.1,667,803,0,,,,
R,,4903977.0,0.333,0.955,0.067,0.2,-0.3,0.0,665,804,0,,,,
R,,4903987.0,0.353,0.97,0.082,0.1,-0.4,-0.2,666,806,0,,,,
R,,4903997.0,0.342,0.955,0.083,0.1,-0.5,-0.2,665,804,0,,,,
R,,4904007.0,0.311,0.943,0.077,0.1,-0.7,-0.2,669,804,0,,,,
R,,4904017.0,0.185,0.919,0.044,0.2,-1.8,0.2,670,805,0,,,,
R,,4904027.0,0.43,0.979,0.108,0.0,-2.3,0.0,670,806,0,,,,
R,,4904037.0,0.345,0.932,0.09,0.1,-1.7,-0.1,670,806,0,,,,
R,,4904047.0,0.336,0.97,0.089,0.2,-1.6,-0.2,677,804,0,,,,
R,,4904057.0,0.348,0.941,0.075,0.0,-1.5,0.0,670,805,0,,,,
R,,4904067.0,0.373,0.942,0.086,0.2,-0.9,-0.1,680,806,0,,,,
R,,4904077.0,0.382,0.944,0.106,0.2,-0.1,-0.4,681,806,0,,,,
R,,4904087.0,0.375,0.957,0.101,0.2,1.0,-0.7,682,807,0,,,,
R,,4904097.0,0.28,0.938,0.062,0.3,1.6,-0.8,666,808,0,,,,
R,,4904107.0,0.241,0.947,0.069,0.5,1.2,-0.7,636,808,0,,,,
R,,4904117.0,0.284,0.954,0.079,0.4,0.5,-0.8,672,807,0,,,,
R,,4904127.0,0.327,0.946,0.091,0.3,0.0,-0.6,674,806,0,,,,
R,,4904137.0,0.303,0.962,0.081,0.5,0.0,-0.4,621,810,0,,,,
R,,4904147.0,0.309,0.972,0.077,0.6,0.0,-0.4,554,816,0,,,,
R,,4904157.0,0.293,0.926,0.066,0.7,0.0,-0.5,675,806,0,,,,
R,,4904167.0,0.323,0.955,0.073,0.7,-0.1,-0.4,674,807,0,,,,
R,,4904177.0,0.292,0.952,0.069,0.6,-0.1,-0.5,674,806,0,,,,
R,,4904187.0,0.325,0.959,0.08,0.7,-0.2,-0.5,658,807,0,,,,
R,,4904197.0,0.305,0.975,0.066,0.4,-0.3,0.0,626,809,0,,,,
R,,4904207.0,0.304,0.972,0.067,0.3,-0.7,0.0,639,810,0,,,,
R,,4904217.0,0.326,0.962,0.069,0.4,-0.8,0.1,637,809,0,,,,
R,,4904227.0,0.348,0.972,0.071,0.5,-0.8,0.0,638,810,0,,,,
R,,4904237.0,0.335,0.977,0.073,0.5,-0.5,-0.2,637,809,0,,,,
R,,4904247.0,0.246,0.945,0.049,0.7,-0.6,0.1,546,818,0,,,,
R,,4904257.0,0.283,1.003,0.065,1.0,-0.7,-0.2,583,814,0,,,,
R,,4904267.0,0.324,0.939,0.06,0.7,-0.8,-0.4,592,815,0,,,,
R,,4904277.0,0.337,0.974,0.054,0.7,-0.9,-0.4,581,814,0,,,,
R,,4904287.0,0.312,0.955,0.059,0.2,-1.2,-0.2,544,817,0,,,,
R,,4904297.0,0.306,0.953,0.114,0.5,-1.3,-0.2,581,814,0,,,,
R,,4904307.0,0.4,0.966,0.093,-0.4,-1.9,0.4,656,809,0,,,,
R,,4904317.0,0.367,0.957,0.086,-0.2,-1.7,0.4,679,806,0,,,,
R,,4904327.0,0.337,0.982,0.053,-0.2,-0.9,0.4,681,807,0,,,,
R,,4904337.0,0.325,0.957,0.051,-0.7,-0.2,0.4,682,807,0,,,,
R,,4904347.0,0.358,0.959,0.071,-0.4,0.2,0.0,683,806,0,,,,
R,,4904357.0,0.367,0.981,0.079,-0.2,0.0,0.1,683,808,0,,,,
R,,4904367.0,0.324,0.961,0.071,-0.3,-0.2,-0.1,684,807,0,,,,
R,,4904377.0,0.261,0.974,0.006,-0.1,0.0,-0.2,683,808,0,,,,
R,,4904387.0,0.301,0.949,0.051,-0.1,-0.5,0.2,683,807,0,,,,
R,,4904397.0,0.331,1.014,0.036,-0.4,-0.2,0.0,684,808,0,,,,
R,,4904407.0,0.231,1.001,0.009,-0.8,-0.3,0.0,679,809,0,,,,
R,,4904417.0,0.232,0.989,0.04,-0.3,-1.4,0.1,674,808,0,,,,
R,,4904427.0,0.249,0.972,0.056,-0.5,-2.1,0.3,677,809,0,,,,
R,,4904437.0,0.322,0.951,0.079,-0.6,-2.8,0.4,686,809,0,,,,
R,,4904447.0,0.401,0.955,0.122,-0.4,-2.7,0.2,685,808,0,,,,
R,,4904457.0,0.312,0.939,0.057,-0.3,-1.5,0.1,684,809,0,,,,
R,,4904467.0,0.266,0.96,0.018,-0.5,-1.4,0.1,682,806,0,,,,
R,,4904477.0,0.315,0.961,0.078,-0.9,-1.8,0.2,674,810,0,,,,
R,,4904487.0,0.374,0.94,0.102,-0.8,-1.3,0.1,684,808,0,,,,
R,,4904497.0,0.223,1.044,0.025,-2.1,-1.3,-0.1,684,807,0,,,,
R,,4904507.0,0.304,0.975,0.08,-0.4,-1.0,0.0,687,807,0,,,,
R,,4904517.0,0.24,0.958,0.092,-0.2,-0.5,0.1,686,809,0,,,,
R,,4904527.0,0.261,0.963,0.072,0.0,-1.4,0.4,687,806,0,,,,
R,,4904537.0,0.334,0.942,0.087,0.1,-2.0,0.4,687,807,0,,,,
R,,4904547.0,0.279,0.964,0.043,0.0,-1.7,0.3,686,808,0,,,,
R,,4904557.0,0.293,0.973,0.075,-0.1,-2.3,0.6,678,809,0,,,,
R,,4904567.0,0.446,0.982,0.085,-0.5,-1.7,0.1,614,813,0,,,,
R,,4904577.0,0.327,0.967,0.069,-0.7,-0.8,0.0,608,816,0,,,,
R,,4904587.0,0.423,0.917,0.119,-0.1,0.0,0.0,630,815,0,,,,
R,,4904597.0,0.321,0.929,0.05,-0.1,-0.3,0.0,634,814,0,,,,
R,,4904607.0,0.302,0.977,0.085,-0.6,-0.2,-0.1,639,811,0,,,,
R,,4904617.0,0.301,0.969,0.088,-0.4,0.0,-0.1,640,813,0,,,,
R,,4904627.0,0.355,0.94,0.102,0.0,-0.1,0.0,644,814,0,,,,
R,,4904637.0,0.346,0.948,0.11,0.6,-0.1,-0.2,645,813,0,,,,
R,,4904647.0,0.337,0.917,0.077,0.1,0.3,-0.2,647,814,0,,,,
R,,4904657.0,0.291,0.952,0.075,0.2,1.2,-0.3,647,814,0,,,,
R,,4904667.0,0.319,0.939,0.058,0.1,0.9,-0.2,649,813,0,,,,
R,,4904677.0,0.358,0.952,0.088,0.0,0.9,-0.3,673,811,0,,,,
R,,4904687.0,0.34,0.956,0.101,-0.1,0.6,-0.2,670,812,0,,,,
R,,4904697.0,0.344,0.914,0.103,-0.2,0.4,-0.5,671,811,0,,,,
R,,4904707.0,0.325,0.933,0.075,0.5,0.7,-0.1,674,812,0,,,,
R,,4904717.0,0.326,0.937,0.075,0.0,0.8,-0.4,678,811,0,,,,
R,,4904727.0,0.286,0.935,0.054,0.0,1.2,-0.4,674,814,0,,,,
R,,4904737.0,0.244,0.938,0.064,0.1,0.7,-0.2,680,810,0,,,,
R,,4904747.0,0.311,0.959,0.087,0.0,0.5,-0.3,678,812,0,,,,
R,,4904757.0,0.305,0.963,0.083,0.1,0.0,-0.1,627,816,0,,,,
R,,4904767.0,0.332,0.965,0.089,-0.1,-0.4,-0.1,640,816,0,,,,
R,,4904777.0,0.307,0.95,0.08,0.0,-0.5,0.0,643,814,0,,,,
R,,4904787.0,0.311,0.963,0.079,0.0,-0.6,0.0,648,814,0,,,,
R,,4904797.0,0.269,0.953,0.068,-0.1,-1.1,0.0,652,813,0,,,,
R,,4904807.0,0.366,0.973,0.08,-0.2,-0.8,0.0,662,815,0,,,,
R,,4904817.0,0.332,0.948,0.086,-0.2,-0.4,0.0,664,813,0,,,,
R,,4904827.0,0.311,0.976,0.096,0.0,-0.3,0.0,665,814,0,,,,
R,,4904837.0,0.305,0.978,0.08,0.0,0.4,-0.2,665,812,0,,,,
R,,4904847.0,0.303,0.945,0.064,0.0,0.5,-0.1,668,815,0,,,,
R,,4904857.0,0.335,0.965,0.095,0.0,0.6,-0.2,667,814,0,,,,
R,,4904867.0,0.309,0.954,0.108,-0.1,1.1,-0.4,672,815,0,,,,
R,,4904877.0,0.309,0.97,0.095,0.0,1.4,-0.3,681,809,0,,,,
R,,4904887.0,0.319,0.977,0.126,-0.1,1.6,-0.3,680,812,0,,,,
R,,4904897.0,0.349,0.987,0.155,-0.3,2.1,-0.3,675,811,0,,,,
R,,4904907.0,0.284,0.971,0.116,0.0,3.1,-0.5,662,811,0,,,,
R,,4904917.0,0.247,0.951,0.091,0.0,2.3,-0.3,670,809,0,,,,
R,,4904927.0,0.305,0.953,0.12,-0.2,1.5,-0.1,657,806,0,,,,
R,,4904937.0,0.347,0.956,0.119,-0.1,1.7,-0.1,627,804,0,,,,
R,,4904947.0,0.344,0.946,0.058,0.0,1.9,-0.2,601,803,0,,,,
R,,4904957.0,0.327,0.951,0.078,0.1,1.2,0.0,575,805,0,,,,
R,,4904967.0,0.334,0.939,0.093,0.0,0.9,0.0,592,803,0,,,,
R,,4904977.0,0.331,0.935,0.06,-0.2,0.0,0.0,647,796,0,,,,
R,,4904987.0,0.37,0.981,0.081,0.3,0.0,0.0,641,797,0,,,,
R,,4904997.0,0.284,1.015,0.024,-0.9,0.0,0.0,659,795,0,,,,
R,,4905007.0,0.347,0.896,0.094,-0.2,-1.2,0.0,618,802,0,,,,
R,,4905017.0,0.306,0.974,0.111,0.0,-1.3,0.0,629,802,0,,,,
R,,4905027.0,0.297,0.972,0.139,0.1,-0.9,0.0,654,801,0,,,,
R,,4905037.0,0.268,0.95,0.097,0.1,-0.6,0.0,655,803,0,,,,
R,,4905047.0,0.294,0.948,0.111,0.4,-0.5,0.0,654,799,0,,,,
R,,4905091.0,0.3,0.96,0.069,0.5,-0.6,0.0,646,799,0,,,,
R,,4905151.0,0.331,0.946,0.08,0.2,-0.3,-0.1,606,804,0,,,,
R,,4905211.0,0.352,0.923,0.108,0.0,-0.3,0.0,558,810,0,,,,
R,,4905271.0,0.333,0.946,0.081,0.1,0.0,-0.3,456,817,0,,,,
R,,4905333.0,0.286,0.927,0.067,0.2,0.4,-0.2,508,815,0,,,,
R,,4905391.0,0.28,0.946,0.04,0.4,-0.3,-0.2,579,806,0,,,,
R,,4905451.0,0.321,0.955,0.065,0.7,-0.5,-0.2,601,806,0,,,,
R,,4905511.0,0.301,0.957,0.11,0.6,-0.6,0.0,648,804,0,,,,
R,,4905571.0,0.354,0.926,0.078,0.5,-0.3,0.2,660,805,0,,,,
R,,4905631.0,0.295,1.053,0.06,-0.9,-1.5,0.5,652,807,0,,,,
R,,4905691.0,0.298,0.923,0.042,0.1,-0.9,0.4,640,807,0,,,,
R,,4905751.0,0.26,0.955,0.048,0.3,-0.8,0.3,659,808,0,,,,
R,,4905811.0,0.352,0.974,0.051,0.6,-1.0,0.6,684,806,0,,,,
R,,4905871.0,0.354,1.054,-0.068,-0.1,-1.3,-0.4,683,805,0,,,,
R,,4905930.0,0.343,0.922,0.094,-0.2,-0.2,-0.5,610,810,0,,,,
R,,4905991.0,0.293,0.929,0.085,0.0,-0.8,-0.2,692,805,0,,,,
R,,4906052.0,0.329,0.933,0.078,0.2,-0.7,0.3,683,806,0,,,,
R,,4906141.0,0.358,0.929,0.068,-0.4,1.8,3.2,680,806,0,,,,
R,,4906201.0,0.407,0.992,0.12,-0.4,0.3,1.7,668,804,0,,,,
R,,4906261.0,0.313,1.053,0.223,-2.7,-0.2,0.4,693,803,0,,,,
R,,4906321.0,0.341,0.966,0.051,0.1,-3.2,-0.5,681,804,0,,,,
R,,4906381.0,0.335,0.964,0.102,0.3,0.2,-1.5,684,806,0,,,,
R,,4906441.0,0.345,0.96,0.057,-0.3,-0.9,-0.2,672,810,0,,,,
R,,4906531.0,0.359,0.941,0.074,-0.2,-0.4,0.0,668,806,0,,,,
R,,4906591.0,0.352,0.944,0.085,-0.4,-0.7,0.0,671,807,0,,,,
R,,4906651.0,0.35,0.95,0.106,-0.3,-0.4,0.1,660,809,0,,,,
R,,4906711.0,0.349,0.947,0.11,-0.3,-0.3,0.3,679,810,0,,,,
R,,4906801.0,0.356,0.942,0.1,-0.5,0.0,0.6,680,810,0,,,,
R,,4906863.0,0.307,0.939,0.071,-0.6,0.3,0.8,584,815,0,,,,
R,,4906921.0,0.349,0.924,0.088,-0.7,0.2,0.8,688,804,0,,,,
R,,4906981.0,0.336,0.953,0.145,-1.0,0.5,1.1,678,804,0,,,,
R,,4907041.0,0.431,0.936,0.185,-1.3,0.6,1.2,652,803,0,,,,
R,,4907101.0,0.399,0.914,0.111,-1.7,1.1,1.3,665,795,0,,,,
R,,4907161.0,0.473,0.928,0.214,-1.9,1.9,0.9,603,796,0,,,,
R,,4907220.0,0.087,0.999,0.133,1.7,5.4,-1.7,593,752,0,,,,
R,,4907281.0,-0.349,1.21,0.168,6.3,-8.6,-8.3,437,636,0,,,,
R,,4907341.0,-0.208,1.026,0.31,3.6,-5.0,-15.9,466,645,0,,,,
R,,4907401.0,0.109,0.853,0.084,1.6,-0.2,-21.2,484,657,0,,,,
R,,4907461.0,0.301,0.624,0.113,0.7,-6.6,-19.9,488,660,0,,,,
R,,4907523.0,0.37,0.53,0.251,0.3,-1.0,-16.6,457,652,0,,,,
R,,4907581.0,0.148,0.689,0.33,-1.1,-1.5,-9.5,368,660,0,,,,
R,,4907641.0,-0.081,0.757,0.228,-2.3,-2.9,-2.4,388,661,0,,,,
R,,4907701.0,-0.06,0.9,0.292,-2.0,-3.8,4.0,455,645,0,,,,
R,,4907761.0,-0.112,1.234,0.28,-0.9,6.1,7.0,383,657,0,,,,
R,,4907821.0,-0.173,1.453,0.11,-0.6,10.8,8.7,383,640,0,,,,
R,,4907881.0,-0.106,1.455,-0.205,2.0,18.0,6.3,300,657,0,,,,
R,,4907941.0,-0.748,1.161,0.035,2.1,3.2,10.7,379,649,0,,,,
R,,4908001.0,0.243,1.442,-0.162,6.7,-9.8,7.0,353,665,0,,,,
R,,4908061.0,0.186,1.114,0.018,4.8,-0.2,0.4,507,725,0,,,,
R,,4908121.0,-0.024,1.024,-0.048,4.0,-1.3,-0.9,605,782,0,,,,
R,,4908181.0,-0.023,0.994,-0.173,3.6,-0.2,-0.8,554,816,0,,,,
R,,4908243.0,-0.007,0.979,-0.283,2.1,0.5,-1.5,649,826,0,,,,
R,,4908301.0,-0.046,1.005,-0.135,0.5,1.3,-1.5,612,836,0,,,,
R,,4908361.0,-0.096,0.982,-0.155,0.7,0.5,-0.7,616,840,0,,,,
R,,4908421.0,-0.073,0.973,-0.17,1.6,0.6,0.3,682,840,0,,,,
R,,4908481.0,-0.067,0.98,-0.236,2.2,0.2,0.8,713,837,0,,,,
R,,4908541.0,-0.042,0.978,-0.258,1.8,0.3,0.9,675,843,0,,,,
R,,4908601.0,-0.027,0.965,-0.254,1.3,0.5,0.4,682,844,0,,,,
R,,4908661.0,-0.024,0.969,-0.262,0.5,0.5,0.2,670,845,0,,,,
R,,4908721.0,-0.02,0.971,-0.275,-0.1,0.5,0.2,716,841,0,,,,
R,,4908781.0,-0.011,0.958,-0.25,-0.8,0.6,0.5,716,841,0,,,,
R,,4908841.0,-0.008,0.986,-0.259,-1.3,0.5,0.8,695,843,0,,,,
R,,4908901.0,0.002,0.981,-0.244,-1.8,0.4,1.1,697,843,0,,,,
R,,4908962.0,0.011,0.984,-0.232,-2.5,0.2,1.7,712,838,0,,,,
R,,4909021.0,0.015,0.989,-0.203,-3.1,-0.2,2.2,706,835,0,,,,
R,,4909082.0,0.062,0.989,-0.154,-3.0,0.0,2.0,676,816,0,,,,
R,,4909141.0,0.068,1.001,-0.115,-3.1,3.5,0.5,652,790,0,,,,
R,,4909201.0,0.093,1.027,-0.097,-3.1,3.9,-0.1,578,727,0,,,,
R,,4909261.0,0.386,0.921,-0.245,0.0,22.3,-3.8,457,573,0,,,,
R,,4909321.0,-0.227,0.955,-0.259,0.3,20.2,-4.2,430,569,0,,,,
R,,4909381.0,-0.128,0.849,-0.282,1.9,1.7,-0.6,449,595,0,,,,
R,,4909441.0,0.034,0.877,0.246,-1.5,0.3,-0.4,507,663,0,,,,
R,,4909501.0,-0.102,1.012,-0.15,0.6,-2.7,-0.3,543,712,0,,,,
R,,4909561.0,0.101,0.986,-0.016,0.7,-3.7,0.2,561,760,0,,,,
R,,4909623.0,0.012,0.982,-0.107,1.7,-0.2,-0.1,569,784,0,,,,
R,,4909681.0,0.064,1.02,-0.094,1.6,-1.1,-0.1,624,800,0,,,,
R,,4909741.0,0.016,0.983,-0.137,1.4,-0.4,-0.4,637,808,0,,,,
R,,4909801.0,0.047,0.994,-0.113,1.2,-0.7,-0.2,651,812,0,,,,
R,,4909861.0,0.01,0.988,-0.164,1.1,-0.7,-0.2,654,819,0,,,,
R,,4909921.0,0.035,0.979,-0.145,0.8,-0.5,-0.1,659,822,0,,,,
R,,4909981.0,0.02,0.989,-0.159,0.6,-0.2,-0.2,663,824,0,,,,
R,,4910041.0,0.025,0.986,-0.157,0.5,-0.2,-0.1,669,828,0,,,,
R,,4910101.0,0.027,0.996,-0.159,0.6,-0.4,0.0,677,830,0,,,,
R,,4910162.0,0.029,0.983,-0.165,0.6,-0.4,0.2,677,828,0,,,,
R,,4910221.0,0.039,0.984,-0.178,0.6,-0.3,0.2,683,829,0,,,,
R,,4910281.0,0.046,0.983,-0.182,0.2,-0.3,0.0,686,830,0,,,,
R,,4910342.0,0.034,0.983,-0.174,0.2,-0.3,-0.1,692,831,0,,,,
R,,4910401.0,0.039,0.988,-0.192,0.1,-0.2,-0.1,692,831,0,,,,
R,,4910461.0,0.039,0.986,-0.183,0.0,-0.3,0.0,697,833,0,,,,
R,,4910521.0,0.044,0.983,-0.175,0.0,-0.4,0.0,697,832,0,,,,
R,,4910582.0,0.042,0.984,-0.179,0.0,-0.3,0.0,700,836,0,,,,
R,,4910641.0,0.039,0.986,-0.181,0.0,-0.4,-0.1,705,839,0,,,,
R,,4910701.0,0.029,0.978,-0.174,0.0,-0.4,-0.1,704,835,0,,,,
R,,4910761.0,0.036,0.98,-0.175,0.0,-0.4,0.0,703,837,0,,,,
R,,4910821.0,0.037,0.983,-0.167,0.0,-0.4,0.2,703,836,0,,,,
R,,4910881.0,0.043,0.984,-0.177,0.2,-0.3,0.3,701,835,0,,,,
R,,4910941.0,0.054,0.988,-0.182,0.1,-0.4,0.0,703,835,0,,,,
R,,4911001.0,0.057,0.984,-0.181,0.0,-0.4,-0.1,705,836,0,,,,
R,,4911063.0,0.045,0.981,-0.18,0.0,-0.3,-0.3,706,837,0,,,,
R,,4911122.0,0.04,0.982,-0.174,0.0,-0.4,-0.3,707,838,0,,,,
R,,4911181.0,0.036,0.983,-0.179,0.1,-0.4,-0.1,710,839,0,,,,
R,,4911241.0,0.035,0.984,-0.177,0.2,-0.4,0.0,711,838,0,,,,
R,,4911301.0,0.042,0.984,-0.181,0.4,-0.3,0.1,709,838,0,,,,
R,,4911361.0,0.049,0.988,-0.189,0.4,-0.3,0.1,705,837,0,,,,
R,,4911421.0,0.051,0.986,-0.197,0.2,-0.3,0.0,708,835,0,,,,
R,,4911481.0,0.049,0.983,-0.192,0.0,-0.4,-0.1,710,838,0,,,,
R,,4911541.0,0.048,0.984,-0.192,0.0,-0.4,-0.2,710,836,0,,,,
R,,4911601.0,0.045,0.983,-0.189,0.0,-0.4,-0.2,716,840,0,,,,
R,,4911662.0,0.04,0.986,-0.185,-0.1,-0.4,-0.2,712,838,0,,,,
R,,4911723.0,0.039,0.983,-0.182,0.0,-0.4,-0.1,714,840,0,,,,
R,,4911781.0,0.04,0.983,-0.181,0.0,-0.4,-0.1,711,839,0,,,,
R,,4911841.0,0.037,0.985,-0.182,0.0,-0.4,0.0,715,839,0,,,,
R,,4911901.0,0.042,0.985,-0.181,0.0,-0.4,0.0,715,840,0,,,,
R,,4911961.0,0.04,0.983,-0.178,0.0,-0.4,0.0,716,839,0,,,,
R,,4912021.0,0.038,0.983,-0.187,0.1,-0.4,0.0,715,840,0,,,,
R,,4912082.0,0.041,0.985,-0.189,0.0,-0.4,0.0,715,839,0,,,,
R,,4912141.0,0.04,0.982,-0.18,0.0,-0.4,0.0,720,843,0,,,,
R,,4912202.0,0.061,0.982,-0.188,-0.5,-0.3,-0.5,710,834,0,,,,
R,,4912261.0,0.039,0.985,-0.183,-0.8,-0.5,-1.1,703,831,0,,,,
R,,4912321.0,0.04,0.987,-0.163,-0.7,-0.2,-1.7,708,831,0,,,,
R,,4912381.0,-0.004,0.975,-0.142,-0.1,0.0,-1.3,712,834,0,,,,
R,,4912443.0,0.002,0.982,-0.16,0.7,0.3,-1.2,713,838,0,,,,
R,,4912531.0,-0.004,0.985,-0.172,1.7,0.2,-0.5,714,837,0,,,,
R,,4912591.0,-0.001,0.978,-0.203,1.9,0.3,-0.7,712,836,0,,,,
R,,4912651.0,-0.016,0.975,-0.213,1.7,0.2,-0.8,698,839,0,,,,
R,,4912711.0,-0.026,0.972,-0.204,2.0,0.0,-0.5,709,837,0,,,,
R,,4912771.0,-0.015,0.975,-0.248,2.1,0.0,-0.3,714,839,0,,,,
R,,4912832.0,-0.02,0.97,-0.265,1.7,-0.1,-0.3,713,840,0,,,,
R,,4912891.0,-0.024,0.968,-0.298,1.1,-0.3,-0.5,717,842,0,,,,
R,,4912952.0,-0.039,0.96,-0.279,0.7,-0.5,-0.4,721,843,0,,,,
R,,4913011.0,-0.033,0.96,-0.282,0.5,-0.6,-0.1,724,842,0,,,,
R,,4913071.0,-0.031,0.956,-0.292,0.4,-0.7,0.0,726,845,0,,,,
R,,4913132.0,-0.024,0.961,-0.294,0.1,-0.6,0.0,727,845,0,,,,
R,,4913191.0,-0.029,0.955,-0.284,0.0,-0.7,0.0,727,845,0,,,,
R,,4913251.0,-0.026,0.956,-0.288,-0.1,-0.6,0.0,729,845,0,,,,
R,,4913311.0,-0.027,0.957,-0.29,-0.2,-0.6,0.0,730,846,0,,,,
R,,4913372.0,-0.026,0.959,-0.277,-0.3,-0.6,0.0,730,846,0,,,,
R,,4913431.0,-0.026,0.958,-0.277,-0.2,-0.5,0.0,734,852,0,,,,
R,,4913492.0,-0.026,0.961,-0.267,-0.2,-0.5,0.0,729,847,0,,,,
R,,4913551.0,-0.03,0.962,-0.272,-0.2,-0.4,0.0,731,849,0,,,,
R,,4913611.0,-0.021,0.96,-0.266,-0.2,-0.4,-0.1,731,849,0,,,,
R,,4913671.0,-0.029,0.968,-0.262,-0.2,-0.3,0.0,733,845,0,,,,
R,,4913731.0,-0.029,0.96,-0.252,-0.1,-0.3,0.0,735,849,0,,,,
R,,4913791.0,-0.001,0.965,-0.27,-1.0,4.2,-1.7,732,846,0,,,,
R,,4913853.0,-0.051,0.985,-0.221,-1.1,-0.4,-0.3,729,845,0,,,,
R,,4913912.0,-0.044,0.966,-0.239,0.0,0.0,0.0,731,848,0,,,,
R,,4913971.0,-0.044,0.971,-0.228,-0.2,0.2,0.2,732,846,0,,,,
R,,4914032.0,-0.008,0.978,-0.267,-0.7,-0.4,0.0,726,840,0,,,,
R,,4914091.0,-0.015,0.981,-0.246,-1.0,-0.2,-0.2,727,840,0,,,,
R,,4914151.0,-0.015,0.974,-0.225,-0.9,-0.4,-0.2,729,844,0,,,,
R,,4914211.0,-0.059,0.979,-0.218,-1.5,-1.4,0.0,731,844,0,,,,
R,,4914271.0,-0.021,0.982,-0.209,-1.7,-1.9,-0.2,729,846,0,,,,
R,,4914332.0,-0.015,0.991,-0.195,-2.5,-1.0,-0.4,736,846,0,,,,
R,,4914421.0,-0.015,1.023,-0.157,-4.4,-2.0,-0.6,726,844,0,,,,
R,,4914481.0,-0.033,1.057,-0.12,-6.5,-3.0,-0.5,686,840,0,,,,
R,,4914541.0,0.026,1.204,-0.188,-10.0,-2.1,-1.6,528,830,0,,,,
R,,4914603.0,0.19,1.559,-0.24,-15.3,-3.6,-4.8,506,813,0,,,,
R,,4914662.0,0.536,1.847,-0.58,-21.1,2.8,-9.7,513,705,0,,,,
R,,4914721.0,-0.424,1.181,-0.136,-16.6,11.2,-14.8,388,629,0,,,,
R,,4914782.0,0.325,0.329,-0.878,-4.3,39.1,-9.3,393,601,0,,,,
R,,4914841.0,-0.007,0.335,-0.599,3.1,18.7,6.7,427,607,0,,,,
R,,4914901.0,-0.091,0.589,-0.526,7.0,8.8,21.8,447,623,0,,,,
R,,4914961.0,-0.007,1.03,-0.419,15.3,6.7,28.3,460,641,0,,,,
R,,4915021.0,-0.057,1.668,-0.436,23.7,10.4,25.5,452,656,0,,,,
R,,4915082.0,-1.077,1.937,0.039,21.6,8.8,18.7,403,632,0,,,,
R,,4915141.0,-1.785,1.653,0.828,3.9,-8.7,-0.4,441,641,0,,,,
R,,4915202.0,2.247,0.392,-2.218,0.0,14.8,-11.2,528,685,0,,,,
R,,4915263.0,-0.28,1.087,-0.026,-5.7,6.0,-11.4,644,771,0,,,,
R,,4915322.0,-0.044,0.987,-0.227,-5.2,-5.0,-6.5,671,813,0,,,,
R,,4915381.0,0.05,0.966,-0.25,-0.3,-1.0,-4.7,694,830,0,,,,
R,,4915441.0,0.015,0.978,-0.292,-1.1,-1.9,-2.6,710,835,0,,,,
R,,4915501.0,-0.031,0.979,-0.295,-1.3,-1.6,-2.5,698,838,0,,,,
R,,4915561.0,-0.026,0.957,-0.259,-1.8,-2.9,-2.8,643,839,0,,,,
R,,4915622.0,-0.042,0.986,-0.255,-2.6,-4.7,-2.9,670,832,0,,,,
R,,4915711.0,-0.007,1.116,-0.255,-6.9,-2.4,-6.6,468,831,0,,,,
R,,4915771.0,-0.061,1.369,-0.261,-11.0,-3.5,-9.6,413,837,0,,,,
R,,4915832.0,0.262,1.92,-0.293,-17.0,-7.3,-14.6,398,779,0,,,,
R,,4915891.0,0.143,1.527,-0.475,-16.1,-2.7,-26.8,254,757,0,,,,
R,,4915952.0,0.187,-0.151,-0.575,-10.2,-0.1,-10.4,316,605,0,,,,
R,,4916013.0,0.264,0.027,-0.391,3.2,6.0,9.3,349,587,0,,,,
R,,4916072.0,0.213,0.333,-0.273,10.9,8.6,23.1,385,601,0,,,,
R,,4916131.0,0.1,0.923,-0.475,16.1,3.5,32.8,380,617,0,,,,
R,,4916221.0,-0.204,2.403,-0.298,26.4,9.2,32.8,376,659,0,,,,
R,,4916282.0,-2.397,2.074,0.5,15.6,-4.5,18.4,401,670,0,,,,
R,,4916341.0,-0.771,1.397,0.808,-9.2,-3.4,-15.1,401,663,0,,,,
R,,4916401.0,-0.231,1.356,-0.273,-5.1,7.9,-18.5,575,741,0,,,,
R,,4916461.0,0.159,0.999,-0.344,-6.5,-2.1,-9.0,568,804,0,,,,
R,,4916521.0,0.074,0.932,-0.185,-3.6,-1.4,-6.8,699,824,0,,,,
R,,4916582.0,-0.005,1.021,-0.331,-1.8,-3.3,-4.3,682,838,0,,,,
R,,4916641.0,-0.033,0.986,-0.271,-1.4,-2.7,-2.2,596,843,0,,,,
R,,4916702.0,-0.033,0.992,-0.269,-1.6,-4.0,-2.0,631,834,0,,,,
R,,4916763.0,0.003,0.957,-0.281,-2.9,-3.1,-3.7,509,814,0,,,,
R,,4916822.0,-0.095,1.006,-0.241,-5.2,-2.6,-5.0,476,835,0,,,,
R,,4916881.0,0.017,1.206,-0.115,-8.6,-1.1,-7.8,465,839,0,,,,
R,,4916941.0,-0.022,1.495,-0.302,-13.4,-3.4,-10.2,453,809,0,,,,
R,,4917001.0,0.377,2.058,-0.486,-19.1,-5.8,-14.9,436,765,0,,,,
R,,4917061.0,-0.167,1.563,0.008,-16.2,2.0,-26.4,226,730,0,,,,
R,,4917122.0,0.638,0.386,-0.581,-9.6,5.0,-3.9,300,620,0,,,,
R,,4917181.0,0.315,0.022,-0.465,5.1,6.4,10.4,315,600,0,,,,
R,,4917242.0,0.154,0.355,-0.339,13.2,6.7,25.3,376,617,0,,,,
R,,4917301.0,0.148,1.083,-0.307,19.9,3.0,33.9,363,637,0,,,,
R,,4917362.0,-0.118,1.994,-0.339,27.0,4.3,35.3,369,665,0,,,,
R,,4917423.0,-1.223,2.527,-0.088,25.8,4.4,25.9,376,671,0,,,,
R,,4917481.0,-1.558,2.078,1.226,-3.8,-14.9,-7.7,414,680,0,,,,
R,,4917541.0,-0.73,2.037,0.516,-2.7,14.5,-22.2,558,686,0,,,,
R,,4917601.0,-0.188,1.125,-0.19,-7.7,-1.1,-10.9,632,787,0,,,,
R,,4917662.0,0.127,0.97,-0.224,-5.8,-4.9,-8.3,671,826,0,,,,
R,,4917721.0,-0.072,0.988,-0.309,-2.1,-1.8,-5.2,697,839,0,,,,
R,,4917782.0,-0.029,0.985,-0.244,-1.8,-2.5,-2.7,679,842,0,,,,
R,,4917841.0,-0.05,0.986,-0.268,-1.6,-2.8,-2.1,631,842,0,,,,
R,,4917902.0,-0.019,0.959,-0.25,-2.2,-3.4,-2.5,542,837,0,,,,
R,,4917961.0,-0.095,0.992,-0.276,-3.9,-2.7,-3.8,503,837,0,,,,
R,,4918021.0,-0.012,1.149,-0.228,-6.8,-1.9,-6.1,461,841,0,,,,
R,,4918082.0,-0.109,1.257,-0.36,-11.0,-1.3,-8.9,445,832,0,,,,
R,,4918143.0,0.142,1.607,-0.257,-15.3,-4.3,-12.4,436,781,0,,,,
R,,4918202.0,0.685,1.963,-1.189,-18.9,-8.7,-18.7,339,778,0,,,,
R,,4918261.0,-0.222,0.892,-0.433,-14.9,1.1,-21.8,228,649,0,,,,
R,,4918322.0,0.464,0.126,-0.417,-4.1,7.5,3.0,316,592,0,,,,
R,,4918381.0,0.194,0.117,-0.306,5.8,8.1,14.9,353,611,0,,,,
R,,4918442.0,0.131,0.465,-0.441,12.5,8.5,27.1,381,631,0,,,,
R,,4918501.0,-0.062,1.328,-0.419,20.1,3.8,32.5,351,656,0,,,,
R,,4918561.0,-0.222,1.918,-0.286,26.1,7.1,32.5,359,625,0,,,,
R,,4918622.0,-1.168,2.342,-0.107,24.4,5.4,23.9,374,672,0,,,,
R,,4918681.0,-1.066,1.884,0.752,-4.1,-12.6,-8.3,341,687,0,,,,
R,,4918742.0,-0.134,2.143,0.569,-4.5,14.3,-21.4,520,715,0,,,,
R,,4918801.0,-0.23,1.099,-0.133,-6.4,-1.4,-10.9,647,781,0,,,,
R,,4918863.0,0.15,1.006,-0.281,-6.3,-4.3,-8.9,662,827,0,,,,
R,,4918921.0,-0.064,1.006,-0.233,-4.4,-1.9,-6.9,692,838,0,,,,
R,,4918982.0,-0.026,0.996,-0.216,-3.3,-1.9,-4.7,640,838,0,,,,
R,,4919041.0,-0.063,0.993,-0.203,-2.2,-2.7,-3.2,462,839,0,,,,
R,,4919101.0,-0.064,0.97,-0.231,-1.7,-2.5,-2.9,475,836,0,,,,
R,,4919162.0,-0.112,0.917,-0.223,-2.3,-2.0,-3.0,437,835,0,,,,
R,,4919221.0,-0.064,1.031,-0.169,-4.4,-2.0,-3.9,428,835,0,,,,
R,,4919282.0,-0.041,1.186,-0.14,-7.7,-1.4,-6.4,420,825,0,,,,
R,,4919341.0,-0.086,1.359,-0.264,-11.7,-2.3,-8.4,431,790,0,,,,
R,,4919402.0,0.163,1.633,-0.514,-16.2,-4.9,-11.8,360,771,0,,,,
R,,4919461.0,0.048,1.51,-0.314,-17.3,-2.9,-21.0,219,764,0,,,,
R,,4919523.0,0.023,0.164,-0.183,-13.2,0.0,-8.6,341,630,0,,,,
R,,4919582.0,0.297,0.071,-0.401,-2.0,17.8,5.8,344,654,0,,,,
R,,4919641.0,0.169,0.337,-0.453,5.0,17.7,20.3,363,662,0,,,,
R,,4919702.0,-0.125,0.855,-0.509,11.2,9.8,30.5,384,680,0,,,,
R,,4919761.0,-0.319,1.631,-0.526,18.4,5.1,31.8,381,682,0,,,,
R,,4919822.0,-0.38,1.844,-0.336,25.4,13.2,26.1,375,691,0,,,,
R,,4919881.0,-1.691,1.907,-0.043,18.2,4.7,19.8,409,671,0,,,,
R,,4919942.0,-0.657,1.632,0.863,-3.4,-5.2,-10.6,378,647,0,,,,
R,,4920001.0,0.321,1.347,0.106,4.7,12.5,-16.7,511,697,0,,,,
R,,4920061.0,-0.268,1.439,0.177,-4.9,0.2,-11.3,642,777,0,,,,
R,,4920122.0,0.164,0.927,-0.315,-4.6,-3.8,-9.0,679,815,0,,,,
R,,4920181.0,-0.079,0.947,-0.261,-4.1,-1.9,-6.8,695,836,0,,,,
R,,4920243.0,0.034,0.972,-0.177,-3.1,-1.2,-4.7,687,838,0,,,,
R,,4920301.0,-0.06,1.0,-0.227,-2.6,-2.9,-3.2,626,835,0,,,,
R,,4920362.0,-0.027,0.986,-0.214,-2.3,-2.2,-3.2,510,838,0,,,,
R,,4920421.0,-0.112,0.954,-0.198,-2.5,-2.0,-2.9,462,837,0,,,,
R,,4920482.0,-0.069,1.005,-0.227,-4.4,-1.2,-3.7,465,827,0,,,,
R,,4920541.0,-0.067,1.13,-0.179,-7.0,-1.9,-5.0,472,820,0,,,,
R,,4920601.0,-0.094,1.205,-0.241,-10.7,-1.5,-6.7,487,809,0,,,,
R,,4920662.0,0.147,1.536,-0.264,-15.1,-2.7,-8.6,369,776,0,,,,
R,,4920721.0,0.391,1.646,-0.818,-17.4,-6.2,-15.2,249,727,0,,,,
R,,4920782.0,-0.314,0.959,-0.171,-15.8,5.7,-18.7,302,688,0,,,,
R,,4920841.0,0.496,0.294,-0.425,-7.2,20.4,-1.5,358,630,0,,,,
R,,4920903.0,0.116,0.189,-0.501,1.1,16.2,13.3,413,661,0,,,,
R,,4920961.0,0.024,0.507,-0.452,6.4,9.4,26.4,383,670,0,,,,
R,,4921051.0,-0.286,1.566,-0.377,19.2,5.1,32.1,394,690,0,,,,
R,,4921112.0,-0.359,1.9,-0.243,26.7,13.1,25.6,418,718,0,,,,
R,,4921202.0,-2.127,1.931,0.82,8.9,-9.1,6.1,383,667,0,,,,
R,,4921291.0,-0.142,2.286,0.545,-2.0,10.0,-18.9,559,705,0,,,,
R,,4921351.0,-0.186,1.108,-0.136,-5.0,-0.7,-8.6,604,784,0,,,,
R,,4921412.0,0.17,0.92,-0.32,-2.9,-2.0,-7.6,669,812,0,,,,
R,,4921501.0,0.061,0.996,-0.301,-2.5,-3.6,-4.4,702,840,0,,,,
R,,4921562.0,0.039,0.993,-0.278,-3.4,-1.6,-4.3,690,838,0,,,,
R,,4921622.0,-0.017,1.004,-0.204,-3.8,-3.0,-3.9,616,830,0,,,,
R,,4921681.0,-0.025,0.958,-0.212,-3.5,-1.7,-3.8,502,837,0,,,,
R,,4921743.0,-0.097,0.976,-0.228,-4.4,-1.2,-3.7,465,836,0,,,,
R,,4921801.0,-0.047,1.096,-0.164,-6.4,-1.3,-4.5,480,835,0,,,,
R,,4921862.0,0.003,1.219,-0.102,-9.9,-0.4,-6.6,465,816,0,,,,
R,,4921921.0,0.081,1.511,-0.245,-14.9,-2.1,-8.5,487,785,0,,,,
R,,4921982.0,0.539,1.716,-0.895,-18.1,-5.2,-14.3,346,780,0,,,,
R,,4922041.0,-0.413,1.135,-0.356,-18.8,7.7,-20.6,257,720,0,,,,
R,,4922102.0,0.449,0.638,-0.579,-9.8,21.9,-1.8,370,656,0,,,,
R,,4922162.0,0.073,0.14,-0.63,-0.1,21.8,9.8,409,648,0,,,,
R,,4922221.0,0.036,0.475,-0.518,3.5,10.9,26.0,424,669,0,,,,
R,,4922282.0,-0.29,1.098,-0.629,12.3,3.9,33.8,404,699,0,,,,
R,,4922341.0,-0.466,1.683,-0.483,22.9,9.3,29.1,429,718,0,,,,
R,,4922402.0,-0.736,1.907,-0.264,25.4,12.6,23.3,439,718,0,,,,
R,,4922463.0,-2.166,1.855,0.441,12.4,-10.9,9.3,437,704,0,,,,
R,,4922522.0,-0.333,1.893,0.152,-4.8,10.1,-17.2,466,665,0,,,,
R,,4922582.0,-0.212,1.504,-0.175,-1.8,4.1,-13.1,593,754,0,,,,
R,,4922641.0,0.125,0.874,-0.293,-3.7,-0.7,-7.7,633,794,0,,,,
R,,4922702.0,0.102,0.975,-0.25,-2.8,-2.3,-6.0,673,821,0,,,,
R,,4922761.0,0.057,0.979,-0.341,-2.3,-3.3,-4.4,692,831,0,,,,
R,,4922822.0,0.06,0.955,-0.326,-2.8,-1.2,-4.2,656,840,0,,,,
R,,4922881.0,-0.013,0.974,-0.247,-3.6,-3.1,-3.7,593,843,0,,,,
R,,4922942.0,-0.028,0.961,-0.25,-3.0,-2.6,-3.5,633,837,0,,,,
R,,4923001.0,-0.066,1.016,-0.242,-3.6,-2.6,-3.5,560,834,0,,,,
R,,4923062.0,-0.032,1.05,-0.266,-5.6,-2.4,-5.0,480,836,0,,,,
R,,4923124.0,-0.042,1.162,-0.173,-9.1,-1.6,-7.5,483,835,0,,,,
R,,4923181.0,-0.022,1.429,-0.225,-13.8,-3.5,-9.0,477,810,0,,,,
R,,4923242.0,0.565,2.054,-0.634,-19.8,-7.5,-13.3,471,777,0,,,,
R,,4923301.0,-0.375,1.464,-0.088,-17.7,7.4,-24.2,268,731,0,,,,
R,,4923362.0,0.122,0.278,-0.243,-13.1,10.2,-4.4,322,648,0,,,,
R,,4923421.0,0.116,0.057,-0.463,0.5,12.2,9.5,372,645,0,,,,
R,,4923482.0,0.083,0.33,-0.426,7.4,9.6,24.9,415,653,0,,,,
R,,4923541.0,-0.164,1.006,-0.518,15.9,3.6,32.1,415,673,0,,,,
R,,4923602.0,-0.246,1.657,-0.415,25.0,4.6,32.5,422,696,0,,,,
R,,4923662.0,-0.637,2.224,-0.124,26.2,7.3,29.2,434,700,0,,,,
R,,4923721.0,-2.502,2.122,1.209,7.2,-16.5,5.2,445,704,0,,,,
R,,4923782.0,1.655,0.796,-1.572,4.8,15.2,-10.6,412,691,0,,,,
R,,4923843.0,-0.27,1.143,-0.369,-3.7,5.1,-13.1,564,782,0,,,,
R,,4923902.0,0.082,0.875,-0.368,-6.8,-6.5,-7.9,525,819,0,,,,
R,,4923961.0,0.04,0.969,-0.193,-4.2,-2.0,-6.7,703,837,0,,,,
R,,4924051.0,0.019,0.991,-0.273,-3.6,-1.2,-4.2,678,846,0,,,,
R,,4924112.0,-0.052,0.984,-0.21,-2.8,-2.5,-3.2,654,841,0,,,,
R,,4924202.0,-0.099,0.976,-0.187,-2.7,-2.4,-3.1,506,837,0,,,,
R,,4924261.0,-0.082,1.026,-0.213,-3.8,-2.5,-3.2,433,841,0,,,,
R,,4924322.0,-0.023,1.151,-0.167,-7.2,-2.3,-5.3,452,835,0,,,,
R,,4924381.0,-0.081,1.34,-0.285,-11.9,-2.4,-7.6,466,821,0,,,,
R,,4924442.0,0.176,1.66,-0.384,-16.6,-3.4,-11.2,431,776,0,,,,
R,,4924501.0,0.219,1.527,-0.667,-17.5,-5.0,-18.9,295,779,0,,,,
R,,4924562.0,-0.293,0.699,-0.033,-13.5,1.5,-15.0,327,670,0,,,,
R,,4924624.0,0.22,0.098,-0.434,-1.7,15.2,2.2,394,661,0,,,,
R,,4924682.0,0.127,0.173,-0.35,6.6,13.0,15.7,431,662,0,,,,
R,,4924742.0,0.066,0.611,-0.299,12.1,6.9,27.3,446,685,0,,,,
R,,4924801.0,-0.19,1.32,-0.428,18.7,3.8,31.3,416,712,0,,,,
R,,4924861.0,-0.435,1.845,-0.275,26.6,9.1,26.2,439,725,0,,,,
R,,4924921.0,-1.056,2.044,-0.068,22.6,9.7,18.5,308,594,0,,,,
R,,4925011.0,-0.448,1.657,0.646,-7.1,0.9,-13.7,437,673,0,,,,
R,,4925072.0,-0.26,1.311,-0.34,-3.2,7.1,-15.2,506,759,0,,,,
R,,4925131.0,0.004,0.886,-0.362,-5.6,-2.4,-8.0,612,796,0,,,,
R,,4925192.0,0.102,0.938,-0.229,-3.5,-2.5,-6.6,566,828,0,,,,
R,,4925251.0,-0.014,0.983,-0.349,-1.9,-3.2,-4.6,669,838,0,,,,
R,,4925313.0,0.019,0.996,-0.294,-2.8,-1.6,-3.3,705,841,0,,,,
R,,4925372.0,-0.03,0.993,-0.274,-2.8,-2.4,-3.0,694,847,0,,,,
R,,4925432.0,-0.041,0.963,-0.223,-2.7,-2.1,-3.5,644,838,0,,,,
R,,4925492.0,-0.083,0.955,-0.223,-2.9,-2.0,-3.1,564,839,0,,,,
R,,4925551.0,-0.099,1.018,-0.184,-3.2,-1.6,-3.2,483,840,0,,,,
R,,4925612.0,-0.073,1.086,-0.264,-5.9,-2.1,-4.6,428,844,0,,,,
R,,4925671.0,-0.121,1.215,-0.185,-9.5,-1.9,-6.7,449,840,0,,,,
R,,4925732.0,0.093,1.531,-0.192,-14.2,-3.4,-9.0,463,797,0,,,,
R,,4925791.0,0.609,1.811,-0.82,-18.2,-6.7,-14.7,398,775,0,,,,
R,,4925852.0,-0.488,1.286,-0.268,-16.7,8.8,-22.7,311,712,0,,,,
R,,4925912.0,0.439,0.486,-0.563,-8.9,11.4,-2.1,316,656,0,,,,
R,,4925972.0,0.174,0.128,-0.459,1.3,12.5,11.1,371,648,0,,,,
R,,4926034.0,0.074,0.395,-0.464,7.1,11.7,25.6,352,667,0,,,,
R,,4926091.0,-0.263,1.045,-0.675,14.4,5.7,33.3,389,672,0,,,,
R,,4926152.0,-0.328,1.692,-0.495,25.4,3.9,32.9,399,697,0,,,,
R,,4926211.0,-0.814,2.163,-0.329,27.8,13.3,22.3,421,693,0,,,,
R,,4926272.0,-2.048,1.945,1.087,5.7,-9.0,1.0,308,663,0,,,,
R,,4926332.0,1.642,0.397,-1.342,0.6,18.1,-11.1,460,660,0,,,,
R,,4926392.0,-0.136,0.972,-0.532,-3.7,3.9,-12.6,520,784,0,,,,
R,,4926452.0,0.083,0.852,-0.431,-6.1,-5.1,-7.2,682,807,0,,,,
R,,4926512.0,0.113,0.983,-0.216,-2.7,-0.3,-7.0,677,834,0,,,,
R,,4926572.0,0.071,0.977,-0.259,-3.2,-3.1,-4.7,698,843,0,,,,
R,,4926631.0,-0.059,0.997,-0.229,-3.1,-0.9,-3.6,712,844,0,,,,
R,,4926691.0,-0.015,0.998,-0.195,-2.5,-2.5,-3.0,674,843,0,,,,
R,,4926753.0,-0.072,0.968,-0.207,-2.5,-2.1,-3.3,595,842,0,,,,
R,,4926812.0,-0.085,0.957,-0.247,-3.1,-1.8,-3.4,431,843,0,,,,
R,,4926872.0,-0.068,1.101,-0.169,-5.2,-1.5,-4.0,456,840,0,,,,
R,,4926932.0,-0.063,1.203,-0.228,-9.3,-1.0,-6.4,470,840,0,,,,
R,,4926992.0,0.033,1.446,-0.159,-13.6,-3.3,-8.2,494,800,0,,,,
R,,4927051.0,0.476,1.89,-0.698,-18.0,-5.1,-12.5,497,766,0,,,,
R,,4927112.0,-0.365,1.455,-0.012,-17.6,6.8,-21.8,246,735,0,,,,
R,,4927171.0,0.136,0.51,-0.452,-14.1,15.0,-4.1,337,639,0,,,,
R,,4927232.0,0.014,0.089,-0.582,-0.9,18.6,7.9,395,651,0,,,,
R,,4927291.0,-0.009,0.342,-0.488,4.4,12.5,23.5,421,659,0,,,,
R,,4927352.0,-0.205,0.891,-0.577,11.9,6.8,31.4,399,689,0,,,,
R,,4927414.0,-0.379,1.606,-0.553,22.0,9.0,31.9,428,724,0,,,,
R,,4927472.0,-0.639,2.053,-0.388,27.4,14.1,27.6,440,730,0,,,,
R,,4927532.0,-2.557,1.981,0.484,13.5,-6.3,12.1,444,719,0,,,,
R,,4927591.0,-0.269,1.873,0.241,-7.0,12.6,-18.3,422,695,0,,,,
R,,4927652.0,-0.45,1.647,-0.307,-2.6,0.4,-13.1,598,760,0,,,,
R,,4927711.0,0.098,0.869,-0.322,-6.2,-4.2,-7.7,669,801,0,,,,
R,,4927772.0,0.159,0.964,-0.261,-3.9,0.2,-8.2,688,833,0,,,,
R,,4927832.0,0.02,1.057,-0.258,-3.2,-3.9,-5.2,706,842,0,,,,
R,,4927892.0,-0.036,1.0,-0.243,-2.8,-1.4,-3.9,687,839,0,,,,
R,,4927952.0,-0.029,0.993,-0.232,-2.2,-2.9,-2.8,625,835,0,,,,
R,,4928012.0,-0.046,0.963,-0.219,-1.9,-2.5,-2.4,478,841,0,,,,
R,,4928072.0,-0.104,0.953,-0.214,-2.3,-2.1,-2.2,463,843,0,,,,
R,,4928133.0,-0.051,0.985,-0.238,-4.2,-1.4,-3.2,453,843,0,,,,
R,,4928192.0,0.005,1.182,-0.082,-7.4,-0.9,-5.3,472,839,0,,,,
R,,4928251.0,-0.06,1.324,-0.227,-11.7,-1.9,-6.4,465,825,0,,,,
R,,4928312.0,0.161,1.645,-0.368,-16.2,-2.3,-9.8,418,783,0,,,,
R,,4928372.0,0.344,1.657,-0.793,-17.7,-1.9,-19.1,331,783,0,,,,
R,,4928432.0,-0.511,0.874,-0.122,-13.6,4.4,-17.3,344,659,0,,,,
R,,4928492.0,0.267,0.148,-0.497,-5.5,21.1,0.5,380,670,0,,,,
R,,4928552.0,-0.009,0.13,-0.477,0.7,19.2,14.3,417,664,0,,,,
R,,4928612.0,0.034,0.605,-0.561,4.9,10.7,28.1,420,691,0,,,,
R,,4928671.0,-0.242,1.237,-0.66,15.1,7.1,32.5,431,707,0,,,,
R,,4928732.0,-0.29,1.713,-0.438,25.6,16.5,28.8,451,709,0,,,,
R,,4928793.0,-1.433,2.124,-0.426,24.1,9.9,21.1,412,701,0,,,,
R,,4928852.0,-1.044,1.961,1.019,0.6,-12.4,-4.9,424,700,0,,,,
R,,4928912.0,0.432,1.487,-0.084,3.2,13.9,-17.4,541,677,0,,,,
R,,4928972.0,-0.212,1.274,-0.256,-3.8,2.0,-12.0,601,780,0,,,,
R,,4929062.0,0.101,1.023,-0.17,-3.9,-2.3,-7.0,697,828,0,,,,
R,,4929152.0,0.016,1.015,-0.264,-2.8,-2.9,-3.7,712,841,0,,,,
R,,4929211.0,-0.043,0.987,-0.219,-2.3,-1.8,-3.0,693,840,0,,,,
R,,4929271.0,-0.022,0.972,-0.195,-2.0,-2.6,-2.7,651,837,0,,,,
R,,4929332.0,-0.062,0.929,-0.22,-2.4,-2.5,-2.7,578,840,0,,,,
R,,4929392.0,-0.06,1.005,-0.247,-3.9,-1.6,-3.6,493,838,0,,,,
R,,4929452.0,-0.005,1.192,-0.122,-7.1,-1.7,-5.1,486,839,0,,,,
R,,4929512.0,-0.127,1.22,-0.258,-11.3,-1.6,-6.9,466,832,0,,,,
R,,4929574.0,0.111,1.485,-0.191,-15.1,-2.5,-9.0,480,784,0,,,,
R,,4929632.0,0.45,1.646,-0.819,-18.0,-3.7,-15.6,371,778,0,,,,
R,,4929692.0,-0.387,0.998,-0.214,-14.5,8.9,-20.7,324,715,0,,,,
R,,4929751.0,0.501,0.268,-0.473,-4.5,19.8,-1.6,360,681,0,,,,
R,,4929812.0,0.06,0.152,-0.514,1.5,16.8,11.1,429,680,0,,,,
R,,4929872.0,0.041,0.516,-0.49,7.5,8.2,25.5,446,686,0,,,,
R,,4929932.0,-0.2,1.1,-0.584,16.2,3.1,32.1,437,707,0,,,,
R,,4929992.0,-0.389,1.724,-0.456,25.8,5.2,29.7,425,719,0,,,,
R,,4930052.0,-0.729,2.103,-0.104,26.3,1.6,25.1,398,727,0,,,,
R,,4930112.0,-1.885,1.942,0.992,6.4,-13.7,4.5,445,723,0,,,,
R,,4930171.0,1.779,0.453,-1.591,-2.0,12.3,-9.0,521,678,0,,,,
R,,4930232.0,-0.068,1.163,-0.377,-6.9,3.6,-12.7,631,784,0,,,,
R,,4930293.0,0.001,0.917,-0.262,-7.2,-1.6,-8.4,623,815,0,,,,
R,,4930352.0,0.077,0.997,-0.19,-2.9,-2.4,-6.0,576,844,0,,,,
R,,4930412.0,-0.039,0.955,-0.284,-3.2,-2.7,-3.9,678,844,0,,,,
R,,4930472.0,-0.05,0.976,-0.235,-2.1,-1.6,-2.5,657,845,0,,,,
R,,4930532.0,-0.057,0.966,-0.235,-1.8,-2.3,-2.5,602,849,0,,,,
R,,4930592.0,-0.083,0.964,-0.219,-2.1,-2.1,-2.7,633,842,0,,,,
R,,4930652.0,-0.067,1.038,-0.28,-3.9,-2.3,-3.6,542,838,0,,,,
R,,4930711.0,-0.012,1.167,-0.189,-7.4,-2.4,-6.0,486,842,0,,,,
R,,4930772.0,-0.121,1.297,-0.323,-12.1,-3.5,-8.3,482,835,0,,,,
R,,4930832.0,0.158,1.707,-0.276,-17.2,-6.0,-12.2,491,786,0,,,,
R,,4930892.0,0.506,1.678,-0.848,-18.3,-7.0,-20.8,331,771,0,,,,
R,,4930954.0,-0.409,0.671,-0.079,-11.9,3.5,-17.0,356,673,0,,,,
R,,4931012.0,0.358,-0.062,-0.437,0.2,15.3,4.4,377,669,0,,,,
R,,4931072.0,0.194,0.2,-0.384,8.1,11.8,19.3,407,679,0,,,,
R,,4931132.0,0.066,0.725,-0.302,13.9,3.3,30.5,415,700,0,,,,
R,,4931192.0,-0.144,1.521,-0.328,21.2,-0.5,33.0,435,714,0,,,,
R,,4931251.0,-0.244,2.032,-0.019,26.0,12.6,27.4,453,721,0,,,,
R,,4931312.0,-1.807,1.935,0.044,16.6,8.8,16.6,444,726,0,,,,
R,,4931372.0,-0.909,1.679,0.68,-6.6,-6.9,-11.1,469,696,0,,,,
R,,4931432.0,0.398,1.522,0.125,-3.3,9.2,-17.6,617,738,0,,,,
R,,4931492.0,-0.086,0.899,-0.477,-5.1,-0.1,-10.2,654,790,0,,,,
R,,4931552.0,0.105,0.97,-0.197,-5.3,-5.1,-6.8,686,824,0,,,,
R,,4931612.0,0.024,0.953,-0.306,-1.6,-2.2,-5.6,713,838,0,,,,
R,,4931673.0,0.018,0.99,-0.244,-2.5,-2.2,-3.7,716,843,0,,,,
R,,4931732.0,-0.064,0.984,-0.25,-2.3,-2.0,-3.4,702,844,0,,,,
R,,4931791.0,-0.047,0.98,-0.204,-2.3,-2.1,-3.4,664,840,0,,,,
R,,4931852.0,-0.104,0.975,-0.206,-2.7,-2.3,-3.2,599,841,0,,,,
R,,4931912.0,-0.103,1.052,-0.229,-4.1,-2.3,-3.5,476,845,0,,,,
R,,4931972.0,-0.018,1.186,-0.174,-7.7,-2.0,-6.3,484,844,0,,,,
R,,4932032.0,-0.109,1.376,-0.295,-12.7,-3.0,-8.5,483,822,0,,,,
R,,4932092.0,0.207,1.811,-0.423,-17.6,-6.2,-11.7,488,776,0,,,,
R,,4932152.0,0.123,1.378,-0.395,-16.7,-2.5,-20.6,245,776,0,,,,
R,,4932212.0,0.085,0.327,0.137,-14.0,2.4,-9.4,390,680,0,,,,
R,,4932272.0,0.069,0.082,-0.494,-1.2,16.2,4.5,404,658,0,,,,
R,,4932332.0,0.062,0.279,-0.465,5.0,15.1,20.2,455,685,0,,,,
R,,4932393.0,-0.124,0.791,-0.584,11.2,8.8,30.6,449,700,0,,,,
R,,4932452.0,-0.38,1.495,-0.529,19.7,4.8,33.2,453,720,0,,,,
R,,4932512.0,-0.529,1.885,-0.359,27.5,16.2,26.5,454,730,0,,,,
R,,4932572.0,-2.242,2.031,0.264,17.5,3.6,15.6,444,713,0,,,,
R,,4932632.0,0.298,1.403,1.04,-10.2,9.8,-20.8,498,688,0,,,,
R,,4932692.0,-0.339,1.69,0.165,-4.5,4.7,-15.3,606,768,0,,,,
R,,4932752.0,-0.021,0.885,-0.331,-7.4,-3.8,-9.2,669,811,0,,,,
R,,4932812.0,0.126,1.022,-0.175,-3.6,-1.9,-7.6,682,842,0,,,,
R,,4932872.0,-0.027,0.985,-0.301,-3.0,-4.0,-5.2,683,847,0,,,,
R,,4932962.0,-0.059,0.989,-0.228,-2.0,-1.7,-2.7,677,845,0,,,,
R,,4933022.0,-0.052,0.986,-0.19,-1.6,-2.4,-2.4,615,840,0,,,,
R,,4933083.0,-0.085,0.947,-0.22,-1.8,-1.6,-2.4,498,843,0,,,,
R,,4933142.0,-0.058,1.039,-0.206,-3.7,-1.5,-3.5,466,843,0,,,,
R,,4933202.0,-0.076,1.097,-0.223,-6.9,-1.3,-5.2,488,840,0,,,,
R,,4933262.0,-0.106,1.198,-0.251,-10.5,-1.8,-6.9,484,830,0,,,,
R,,4933322.0,0.086,1.584,-0.251,-15.3,-3.7,-8.6,500,783,0,,,,
R,,4933382.0,0.532,1.718,-0.789,-18.9,-4.4,-16.1,355,785,0,,,,
R,,4933442.0,-0.209,1.08,-0.271,-17.1,9.5,-19.9,334,721,0,,,,
R,,4933502.0,0.472,0.311,-0.448,-8.1,19.6,-0.8,394,676,0,,,,
R,,4933562.0,0.047,0.177,-0.471,-1.2,19.5,11.1,424,676,0,,,,
R,,4933622.0,0.025,0.509,-0.575,2.7,13.0,26.0,441,683,0,,,,
R,,4933682.0,-0.275,1.165,-0.746,10.0,8.8,33.0,447,699,0,,,,
R,,4933741.0,-0.414,1.494,-0.507,19.6,15.5,29.6,458,707,0,,,,
R,,4933803.0,-0.689,1.921,-0.598,22.9,19.6,25.4,464,707,0,,,,
R,,4933862.0,-2.327,2.012,0.677,14.9,-13.6,12.0,439,707,0,,,,
R,,4933922.0,0.689,1.016,0.037,-7.4,6.8,-16.2,409,702,0,,,,
R,,4933982.0,-0.384,1.428,-0.265,-4.0,-0.2,-13.2,601,757,0,,,,
R,,4934042.0,0.104,0.929,-0.257,-5.1,-4.1,-8.4,628,798,0,,,,
R,,4934132.0,-0.037,1.036,-0.315,-2.6,-0.3,-5.9,688,833,0,,,,
R,,4934192.0,0.074,0.994,-0.249,-2.4,-1.4,-4.7,700,840,0,,,,
R,,4934252.0,-0.038,0.98,-0.238,-2.8,-2.6,-3.7,680,839,0,,,,
R,,4934312.0,-0.016,0.983,-0.19,-2.1,-3.5,-3.4,639,838,0,,,,
R,,4934402.0,-0.092,0.969,-0.21,-2.5,-1.6,-3.1,502,833,0,,,,
R,,4934462.0,-0.077,1.068,-0.213,-4.2,-1.0,-4.2,465,840,0,,,,
R,,4934522.0,-0.006,1.195,-0.111,-8.0,-1.0,-6.5,456,844,0,,,,
R,,4934583.0,-0.018,1.45,-0.268,-13.7,-3.5,-8.0,490,815,0,,,,
R,,4934642.0,0.628,1.917,-0.561,-18.8,-6.4,-12.3,450,780,0,,,,
R,,4934702.0,-0.338,1.441,-0.085,-18.4,8.6,-22.0,240,747,0,,,,
R,,4934762.0,0.02,0.422,-0.284,-14.6,15.4,-4.7,348,669,0,,,,
R,,4934822.0,0.059,0.163,-0.51,-2.7,16.8,6.5,393,662,0,,,,
R,,4934882.0,-0.008,0.314,-0.475,3.0,13.9,21.2,422,669,0,,,,
R,,4934942.0,-0.118,0.793,-0.646,9.0,8.6,31.2,435,689,0,,,,
R,,4935002.0,-0.385,1.48,-0.61,20.5,7.2,31.6,416,673,0,,,,
R,,4935062.0,-0.663,2.042,-0.426,26.7,15.0,27.1,430,691,0,,,,
R,,4935152.0,-1.489,1.789,1.017,1.4,-11.9,-4.3,424,713,0,,,,
R,,4935212.0,0.133,1.772,0.138,-2.6,16.3,-19.1,529,716,0,,,,
R,,4935274.0,-0.09,1.005,-0.378,-5.3,-1.6,-10.4,604,796,0,,,,
R,,4935362.0,0.093,0.991,-0.159,-3.0,-0.8,-6.6,701,828,0,,,,
R,,4935422.0,-0.026,0.974,-0.286,-2.0,-2.7,-4.8,701,842,0,,,,
R,,4935482.0,-0.005,0.984,-0.207,-1.8,-1.4,-3.1,706,844,0,,,,
R,,4935542.0,-0.017,1.01,-0.232,-1.9,-3.0,-2.9,664,840,0,,,,
R,,4935602.0,-0.058,0.949,-0.24,-2.1,-2.3,-3.5,544,839,0,,,,
R,,4935662.0,-0.113,0.956,-0.2,-2.9,-1.2,-4.0,473,840,0,,,,
R,,4935722.0,-0.086,1.084,-0.205,-4.8,-1.4,-4.6,471,842,0,,,,
R,,4935782.0,-0.047,1.216,-0.14,-8.4,-1.4,-7.2,462,843,0,,,,
R,,4935842.0,-0.001,1.495,-0.261,-14.2,-4.0,-9.4,499,800,0,,,,
R,,4935902.0,0.724,1.987,-0.76,-19.1,-9.1,-13.9,461,782,0,,,,
R,,4935962.0,-0.509,1.259,-0.2,-17.4,9.2,-24.2,233,723,0,,,,
R,,4936024.0,0.293,0.494,-0.496,-10.2,12.1,-2.2,338,665,0,,,,
R,,4936083.0,0.055,0.067,-0.418,-0.8,12.8,8.5,374,657,0,,,,
R,,4936142.0,0.082,0.295,-0.479,5.6,12.2,22.8,410,670,0,,,,
R,,4936202.0,-0.172,0.927,-0.612,13.0,8.5,30.6,412,691,0,,,,
R,,4936262.0,-0.44,1.604,-0.593,22.4,5.7,30.7,418,704,0,,,,
R,,4936322.0,-0.587,2.009,-0.233,28.2,5.2,27.8,412,708,0,,,,
R,,4936382.0,-2.272,2.0,0.636,14.1,-7.5,13.0,446,712,0,,,,
R,,4936442.0,1.665,0.621,-0.39,-10.2,8.7,-14.2,475,696,0,,,,
R,,4936502.0,-0.072,1.224,-0.291,-6.7,4.3,-13.9,613,782,0,,,,
R,,4936562.0,0.101,0.873,-0.42,-7.0,-6.2,-7.0,611,818,0,,,,
R,,4936623.0,0.055,0.984,-0.228,-2.9,-1.0,-6.1,589,843,0,,,,
R,,4936684.0,0.067,0.971,-0.323,-2.8,-4.0,-4.2,713,842,0,,,,
R,,4936742.0,-0.078,0.976,-0.299,-2.7,-1.7,-3.1,684,842,0,,,,
R,,4936802.0,-0.042,0.97,-0.258,-2.8,-2.8,-3.3,556,838,0,,,,
R,,4936862.0,-0.102,0.949,-0.236,-3.1,-2.0,-4.0,472,837,0,,,,
R,,4936922.0,-0.104,1.004,-0.215,-3.7,-1.6,-4.2,457,842,0,,,,
R,,4936982.0,-0.065,1.13,-0.232,-5.9,-2.0,-5.4,474,842,0,,,,
R,,4937042.0,-0.101,1.229,-0.279,-9.8,-1.8,-8.1,481,832,0,,,,
R,,4937102.0,0.038,1.652,-0.313,-15.2,-5.8,-10.8,487,793,0,,,,
R,,4937163.0,0.621,1.827,-0.846,-17.8,-6.8,-19.3,308,796,0,,,,
R,,4937222.0,-0.123,0.959,-0.7,-13.8,5.1,-21.6,243,670,0,,,,
R,,4937282.0,0.43,0.235,-0.499,-3.8,8.4,3.6,325,652,0,,,,
R,,4937341.0,0.189,0.106,-0.345,4.2,10.2,14.6,368,649,0,,,,
R,,4937404.0,0.08,0.504,-0.516,9.7,10.7,27.5,420,665,0,,,,
R,,4937462.0,-0.198,1.198,-0.569,17.0,5.2,32.5,393,678,0,,,,
R,,4937522.0,-0.36,1.791,-0.411,25.6,7.0,32.1,433,694,0,,,,
R,,4937583.0,-1.285,2.27,-0.035,24.3,2.5,23.7,422,693,0,,,,
R,,4937642.0,-1.376,2.016,1.215,-1.2,-10.9,-7.5,384,706,0,,,,
R,,4937702.0,0.396,1.87,0.421,-5.3,9.7,-18.3,529,733,0,,,,
R,,4937762.0,-0.28,1.068,-0.235,-6.5,0.6,-10.1,588,795,0,,,,
R,,4937822.0,0.169,0.902,-0.285,-6.1,-5.3,-8.0,664,824,0,,,,
R,,4937882.0,-0.026,1.017,-0.274,-4.0,-2.0,-6.2,700,841,0,,,,
R,,4937942.0,-0.04,0.981,-0.233,-3.6,-1.4,-4.6,677,850,0,,,,
R,,4938002.0,-0.068,0.98,-0.223,-2.9,-1.9,-3.2,658,844,0,,,,
R,,4938062.0,-0.058,0.984,-0.188,-2.4,-2.3,-3.1,589,842,0,,,,
R,,4938124.0,-0.116,0.94,-0.19,-2.4,-1.9,-3.1,471,846,0,,,,
R,,4938182.0,-0.099,1.037,-0.207,-3.6,-1.7,-3.5,485,845,0,,,,
R,,4938242.0,-0.05,1.177,-0.147,-6.8,-1.4,-5.7,463,843,0,,,,
R,,4938302.0,-0.069,1.328,-0.213,-11.5,-3.1,-8.0,474,822,0,,,,
R,,4938362.0,0.187,1.694,-0.378,-16.8,-4.4,-12.1,467,784,0,,,,
R,,4938422.0,0.186,1.604,-0.592,-17.3,-5.1,-20.5,244,778,0,,,,
R,,4938482.0,-0.479,0.677,-0.068,-13.2,4.8,-16.1,352,660,0,,,,
R,,4938542.0,0.208,0.159,-0.427,-4.7,15.4,3.9,381,641,0,,,,
R,,4938602.0,0.012,0.217,-0.405,3.0,15.7,16.9,418,659,0,,,,
R,,4938663.0,0.065,0.622,-0.579,8.6,10.1,29.7,443,679,0,,,,
R,,4938722.0,-0.276,1.343,-0.594,17.5,6.1,34.3,369,591,0,,,,
R,,4938784.0,-0.572,1.992,-0.283,26.1,10.7,30.4,400,667,0,,,,
R,,4938842.0,-1.373,2.059,-0.105,20.4,4.7,20.8,414,695,0,,,,
R,,4938902.0,-0.854,1.835,0.929,-1.3,-8.7,-7.5,381,693,0,,,,
R,,4938962.0,-0.324,1.688,0.282,-0.9,12.9,-17.3,561,701,0,,,,
R,,4939022.0,-0.111,1.24,-0.203,-4.3,0.4,-11.5,518,790,0,,,,
R,,4939083.0,0.077,0.867,-0.204,-5.5,-4.6,-7.7,624,819,0,,,,
R,,4939142.0,0.085,1.028,-0.268,-1.9,-2.0,-5.8,702,841,0,,,,
R,,4939203.0,0.036,0.998,-0.303,-2.5,-2.2,-4.4,707,845,0,,,,
R,,4939262.0,-0.05,0.96,-0.259,-2.8,-2.1,-2.8,702,845,0,,,,
R,,4939322.0,-0.015,0.972,-0.225,-1.6,-1.4,-3.0,664,842,0,,,,
R,,4939382.0,-0.063,0.961,-0.215,-2.2,-1.4,-3.0,590,841,0,,,,
R,,4939442.0,-0.063,1.014,-0.22,-3.3,-1.4,-3.3,476,845,0,,,,
R,,4939503.0,-0.051,1.084,-0.215,-5.9,-1.5,-4.6,468,845,0,,,,
R,,4939562.0,-0.025,1.138,-0.153,-8.8,-1.5,-6.3,450,843,0,,,,
R,,4939623.0,-0.02,1.407,-0.216,-13.3,-2.5,-7.8,505,803,0,,,,
R,,4939682.0,0.316,1.787,-0.577,-17.5,-5.6,-11.2,441,779,0,,,,
R,,4939743.0,-0.115,1.456,-0.093,-18.7,3.2,-20.5,236,762,0,,,,
R,,4939802.0,0.176,0.45,0.169,-15.6,10.5,-6.9,372,658,0,,,,
R,,4939862.0,0.062,0.174,-0.48,-2.3,16.1,5.2,411,661,0,,,,
R,,4939922.0,0.091,0.287,-0.386,4.7,13.8,20.1,437,670,0,,,,
R,,4939982.0,0.045,0.734,-0.481,9.8,8.9,31.6,439,692,0,,,,
R,,4940042.0,-0.247,1.521,-0.547,18.7,6.6,33.8,443,713,0,,,,
R,,4940102.0,-0.57,1.959,-0.349,26.5,9.3,27.9,442,724,0,,,,
R,,4940163.0,-1.459,1.897,0.042,19.2,3.5,18.8,416,710,0,,,,
R,,4940224.0,-0.759,1.519,0.8,-3.4,1.6,-12.6,412,709,0,,,,
R,,4940283.0,0.552,1.657,0.535,-3.8,9.5,-19.3,542,742,0,,,,
R,,4940342.0,-0.081,1.084,-0.162,-5.0,2.7,-11.0,649,786,0,,,,
R,,4940402.0,0.077,0.961,-0.135,-5.0,-6.7,-7.8,686,825,0,,,,
R,,4940461.0,-0.001,0.991,-0.335,-2.7,-2.1,-6.3,714,842,0,,,,
R,,4940522.0,0.027,0.999,-0.244,-3.0,-1.3,-5.0,716,844,0,,,,
R,,4940583.0,-0.043,0.973,-0.205,-2.5,-1.8,-3.8,689,841,0,,,,
R,,4940642.0,-0.061,0.987,-0.181,-2.0,-2.1,-3.2,637,839,0,,,,
R,,4940703.0,-0.078,0.971,-0.171,-1.9,-1.8,-3.0,516,839,0,,,,
R,,4940762.0,-0.11,1.038,-0.193,-2.8,-2.1,-3.0,488,837,0,,,,
R,,4940822.0,-0.026,1.132,-0.234,-6.1,-2.0,-5.2,467,840,0,,,,
R,,4940884.0,-0.102,1.292,-0.305,-11.2,-1.9,-7.4,464,822,0,,,,
R,,4940942.0,0.077,1.611,-0.302,-15.5,-3.9,-9.4,479,776,0,,,,
R,,4941002.0,0.381,1.58,-0.659,-17.6,-3.3,-17.3,330,770,0,,,,
R,,4941062.0,-0.066,1.012,-0.311,-14.0,6.4,-19.0,328,678,0,,,,
R,,4941123.0,0.447,0.256,-0.457,-5.5,16.1,0.8,383,659,0,,,,
R,,4941182.0,0.109,0.178,-0.435,2.4,15.6,13.3,418,665,0,,,,
R,,4941243.0,-0.013,0.504,-0.505,7.5,10.5,27.2,444,681,0,,,,
R,,4941302.0,-0.258,1.238,-0.657,15.7,5.0,33.0,436,700,0,,,,
R,,4941362.0,-0.475,1.788,-0.507,24.7,8.7,29.0,433,716,0,,,,
R,,4941422.0,-0.975,1.912,-0.241,23.8,11.2,22.5,418,719,0,,,,
R,,4941482.0,-1.703,1.924,0.99,5.1,-11.2,0.4,417,718,0,,,,
R,,4941573.0,0.599,1.544,0.116,-3.6,8.4,-16.7,601,741,0,,,,
R,,4941634.0,-0.068,0.856,-0.413,-5.7,-1.8,-8.7,563,798,0,,,,
R,,4941692.0,0.072,0.971,-0.218,-4.0,-3.0,-7.4,650,822,0,,,,
R,,4941751.0,0.004,1.006,-0.351,-1.5,-1.3,-5.4,690,838,0,,,,
R,,4941812.0,-0.01,0.969,-0.295,-1.9,-0.8,-3.2,715,842,0,,,,
R,,4941873.0,0.012,0.998,-0.211,-2.1,-2.8,-2.3,695,843,0,,,,
R,,4941932.0,0.0,0.96,-0.273,-2.6,-2.6,-2.7,662,841,0,,,,
R,,4941993.0,-0.05,0.966,-0.239,-3.3,-1.0,-3.5,627,840,0,,,,
R,,4942052.0,-0.034,1.064,-0.178,-4.9,-1.1,-3.9,523,842,0,,,,
R,,4942112.0,0.002,1.139,-0.145,-7.7,-1.5,-5.5,460,840,0,,,,
R,,4942172.0,-0.092,1.318,-0.236,-12.3,-2.1,-7.3,521,832,0,,,,
R,,4942232.0,0.134,1.695,-0.386,-17.0,-3.3,-9.8,524,775,0,,,,
R,,4942292.0,0.372,1.563,-0.663,-19.0,-0.2,-18.3,334,769,0,,,,
R,,4942354.0,-0.323,0.685,-0.061,-15.6,10.5,-16.3,363,686,0,,,,
R,,4942413.0,0.174,0.115,-0.546,-4.5,23.0,0.7,399,668,0,,,,
R,,4942472.0,0.016,0.206,-0.493,2.0,15.3,16.2,436,685,0,,,,
R,,4942533.0,0.014,0.612,-0.566,6.9,8.7,28.8,450,701,0,,,,
R,,4942592.0,-0.303,1.272,-0.636,17.2,6.2,31.8,455,720,0,,,,
R,,4942652.0,-0.285,1.729,-0.457,25.0,18.1,27.6,477,718,0,,,,
R,,4942712.0,-1.271,2.024,-0.426,22.8,5.1,22.5,452,710,0,,,,
R,,4942772.0,-0.889,1.992,1.118,-0.2,-13.8,-4.2,435,719,0,,,,
R,,4942833.0,0.943,1.044,-1.262,4.5,20.5,-11.8,540,685,0,,,,
R,,4942892.0,-0.277,1.269,-0.297,-3.5,5.1,-13.9,524,795,0,,,,
R,,4942953.0,0.077,0.924,-0.316,-6.5,-5.3,-8.6,647,822,0,,,,
R,,4943014.0,-0.041,1.007,-0.226,-3.7,-1.6,-6.2,684,845,0,,,,
R,,4943073.0,-0.025,0.974,-0.273,-3.0,-2.0,-4.8,702,845,0,,,,
R,,4943132.0,-0.058,0.988,-0.212,-2.8,-2.1,-3.4,687,845,0,,,,
R,,4943192.0,-0.071,0.984,-0.186,-2.1,-2.6,-2.8,628,840,0,,,,
R,,4943252.0,-0.107,0.967,-0.198,-1.7,-2.4,-2.6,451,847,0,,,,
R,,4943312.0,-0.108,1.001,-0.273,-3.5,-2.0,-3.4,474,842,0,,,,
R,,4943373.0,-0.003,1.184,-0.185,-7.4,-1.6,-6.2,473,841,0,,,,
R,,4943432.0,-0.141,1.301,-0.29,-11.8,-2.6,-8.4,489,822,0,,,,
R,,4943493.0,0.11,1.639,-0.346,-15.7,-4.3,-11.2,516,783,0,,,,
R,,4943552.0,0.307,1.672,-0.749,-17.5,-6.6,-19.5,250,768,0,,,,
R,,4943613.0,-0.302,0.696,-0.206,-12.8,2.1,-17.2,358,692,0,,,,
R,,4943672.0,0.285,0.045,-0.391,-0.7,16.5,2.1,394,659,0,,,,
R,,4943734.0,0.119,0.177,-0.358,7.4,12.8,17.6,444,682,0,,,,
R,,4943792.0,0.05,0.66,-0.369,12.7,6.0,29.3,463,691,0,,,,
R,,4943852.0,-0.154,1.4,-0.395,20.4,0.3,33.1,459,715,0,,,,
R,,4943913.0,-0.232,2.011,-0.202,27.7,7.6,30.3,460,712,0,,,,
R,,4943972.0,-1.585,2.102,0.207,19.6,3.4,18.8,458,719,0,,,,
R,,4944033.0,-0.939,1.566,0.989,-6.8,-5.9,-11.7,459,727,0,,,,
R,,4944092.0,0.545,1.535,0.158,-4.2,8.0,-16.6,570,750,0,,,,
R,,4944153.0,-0.132,1.007,-0.434,-6.0,-1.3,-10.3,600,804,0,,,,
R,,4944212.0,0.141,0.975,-0.239,-5.4,-4.5,-7.2,634,831,0,,,,
R,,4944272.0,-0.029,1.0,-0.36,-2.5,-3.0,-5.2,694,846,0,,,,
R,,4944333.0,-0.012,0.975,-0.273,-2.5,-2.6,-3.6,648,852,0,,,,
R,,4944394.0,-0.043,0.983,-0.242,-1.9,-2.8,-2.8,655,845,0,,,,
R,,4944453.0,-0.071,0.964,-0.222,-1.8,-2.9,-2.9,507,840,0,,,,
R,,4944542.0,-0.122,0.986,-0.241,-2.6,-2.5,-3.3,447,836,0,,,,
R,,4944602.0,-0.051,1.113,-0.211,-5.3,-1.9,-5.3,420,817,0,,,,
R,,4944663.0,-0.071,1.195,-0.171,-8.9,-1.7,-8.2,425,841,0,,,,
R,,4944722.0,-0.029,1.455,-0.313,-14.0,-4.6,-10.7,467,801,0,,,,
R,,4944783.0,0.67,2.044,-0.909,-18.5,-11.0,-15.0,371,793,0,,,,
R,,4944842.0,-0.438,1.262,-0.145,-15.8,7.1,-24.7,211,734,0,,,,
R,,4944903.0,0.456,0.427,-0.507,-8.4,6.5,0.1,342,659,0,,,,
R,,4944962.0,0.19,0.065,-0.32,1.6,11.5,11.4,374,656,0,,,,
R,,4945022.0,0.04,0.375,-0.445,7.2,13.6,25.4,415,663,0,,,,
R,,4945083.0,-0.247,1.044,-0.581,14.4,7.1,32.0,381,612,0,,,,
R,,4945144.0,-0.409,1.726,-0.539,22.0,6.8,32.3,390,692,0,,,,
R,,4945203.0,-0.845,2.039,-0.321,26.0,6.5,28.2,406,682,0,,,,
R,,4945262.0,-2.314,1.985,0.678,10.0,-17.7,9.6,324,707,0,,,,
R,,4945323.0,-0.525,1.464,0.416,-7.8,12.1,-18.1,351,696,0,,,,
R,,4945382.0,-0.236,1.231,-0.623,-2.2,6.0,-13.9,455,763,0,,,,
R,,4945443.0,0.103,0.96,-0.299,-6.0,-1.9,-9.8,644,791,0,,,,
R,,4945502.0,0.165,0.967,-0.168,-4.4,-2.4,-7.7,685,825,0,,,,
R,,4945562.0,0.036,0.998,-0.3,-3.4,-2.9,-5.4,694,840,0,,,,
R,,4945623.0,-0.062,0.95,-0.266,-2.6,-1.9,-4.0,690,843,0,,,,
R,,4945682.0,-0.05,0.99,-0.233,-1.9,-3.2,-2.6,671,843,0,,,,
R,,4945772.0,-0.082,0.975,-0.23,-1.8,-3.4,-2.2,563,840,0,,,,
R,,4945833.0,-0.062,0.994,-0.357,-3.9,-2.5,-3.2,470,838,0,,,,
R,,4945894.0,-0.016,1.136,-0.206,-7.5,-2.3,-6.0,458,838,0,,,,
R,,4945953.0,-0.087,1.305,-0.201,-11.5,-1.8,-8.6,453,833,0,,,,
R,,4946012.0,0.149,1.653,-0.258,-16.1,-4.2,-11.2,444,788,0,,,,
R,,4946073.0,0.368,1.748,-0.809,-18.0,-5.2,-19.2,279,787,0,,,,
R,,4946132.0,-0.465,1.024,-0.297,-13.6,4.4,-18.2,326,674,0,,,,
R,,4946193.0,0.36,0.207,-0.482,-5.3,16.0,1.1,377,667,0,,,,
R,,4946252.0,0.162,0.165,-0.379,3.0,13.6,15.1,387,670,0,,,,
R,,4946312.0,0.131,0.629,-0.51,8.2,12.5,28.5,426,680,0,,,,
R,,4946373.0,-0.132,1.339,-0.553,15.3,8.6,33.3,456,694,0,,,,
R,,4946432.0,-0.505,1.814,-0.429,22.1,11.4,30.2,434,701,0,,,,
R,,4946493.0,-1.119,1.85,-0.344,20.9,12.6,22.6,405,660,0,,,,
R,,4946554.0,-1.75,1.881,0.855,5.0,-10.7,1.0,397,703,0,,,,
R,,4946613.0,2.843,0.184,-1.595,-1.5,21.8,-10.7,285,712,0,,,,
R,,4946672.0,-0.167,1.168,-0.121,-2.7,-1.9,-12.0,625,778,0,,,,
R,,4946733.0,0.068,0.816,-0.411,-5.0,-2.4,-8.4,647,790,0,,,,
R,,4946792.0,0.066,0.986,-0.12,-2.3,0.0,-7.3,682,824,0,,,,
R,,4946852.0,0.084,0.975,-0.261,-2.6,-2.9,-5.2,702,837,0,,,,
R,,4946913.0,-0.008,0.991,-0.21,-2.7,-2.3,-3.9,698,842,0,,,,
R,,4946972.0,0.0,0.996,-0.181,-2.2,-3.0,-3.2,682,837,0,,,,
R,,4947033.0,-0.043,0.956,-0.232,-2.2,-2.7,-3.1,639,837,0,,,,
R,,4947092.0,-0.061,0.975,-0.264,-3.0,-2.2,-3.5,569,836,0,,,,
R,,4947153.0,-0.045,1.118,-0.195,-6.0,-2.5,-4.8,467,836,0,,,,
R,,4947212.0,0.001,1.262,-0.142,-10.4,-1.3,-7.7,479,837,0,,,,
R,,4947304.0,0.271,1.789,-0.546,-17.9,-3.8,-11.2,510,766,0,,,,
R,,4947363.0,0.088,1.443,-0.374,-18.0,3.1,-20.6,271,753,0,,,,
R,,4947422.0,0.185,0.476,0.348,-17.8,10.1,-9.7,351,701,0,,,,
R,,4947483.0,0.22,0.142,-0.581,-5.1,20.1,5.4,402,690,0,,,,
R,,4947542.0,0.216,0.294,-0.551,-0.6,18.7,21.1,438,694,0,,,,
R,,4947602.0,-0.081,0.931,-0.837,5.0,18.3,30.7,441,701,0,,,,
R,,4947663.0,-0.648,1.526,-1.142,15.3,21.5,32.0,450,711,0,,,,
R,,4947722.0,-0.821,1.784,-0.933,21.9,8.4,31.4,461,703,0,,,,
R,,4947783.0,-1.599,1.911,-0.194,24.5,-16.1,19.9,452,688,0,,,,
R,,4947842.0,-1.008,1.59,0.955,-1.3,9.1,-12.2,407,703,0,,,,
R,,4947932.0,-0.315,1.573,-0.066,-5.1,-2.8,-12.9,560,773,0,,,,
R,,4947993.0,0.062,0.83,-0.361,-5.8,-1.7,-8.6,669,803,0,,,,
R,,4948054.0,0.071,0.988,-0.18,-2.8,-1.1,-6.7,687,834,0,,,,
R,,4948113.0,0.086,0.994,-0.324,-2.4,-2.0,-5.6,701,845,0,,,,
R,,4948172.0,-0.049,0.983,-0.255,-3.0,-1.4,-3.8,679,843,0,,,,
R,,4948233.0,-0.029,1.019,-0.186,-2.2,-3.5,-2.9,572,841,0,,,,
R,,4948292.0,-0.046,0.96,-0.195,-1.9,-3.2,-2.6,450,843,0,,,,
R,,4948352.0,-0.075,0.972,-0.263,-3.2,-2.2,-3.1,443,839,0,,,,
R,,4948413.0,-0.028,1.085,-0.222,-5.6,-2.0,-4.2,430,837,0,,,,
R,,4948472.0,0.006,1.201,-0.136,-9.0,-0.2,-7.3,451,832,0,,,,
R,,4948533.0,0.005,1.427,-0.292,-14.4,-2.7,-8.9,507,787,0,,,,
R,,4948592.0,0.604,1.925,-0.857,-19.1,-6.3,-13.5,422,780,0,,,,
R,,4948653.0,-0.454,1.418,-0.269,-18.5,9.0,-24.1,237,725,0,,,,
R,,4948714.0,0.362,0.523,-0.566,-11.1,17.2,-1.8,366,660,0,,,,
R,,4948773.0,0.015,0.038,-0.512,-0.6,16.0,9.8,393,644,0,,,,
R,,4948833.0,0.018,0.361,-0.459,5.1,11.9,25.0,432,661,0,,,,
R,,4948892.0,-0.248,0.954,-0.677,13.5,6.7,31.9,384,689,0,,,,
R,,4948953.0,-0.355,1.598,-0.586,23.8,5.4,32.9,417,691,0,,,,
R,,4949012.0,-0.887,2.174,-0.37,26.6,5.6,28.5,403,653,0,,,,
R,,4949073.0,-2.256,2.08,1.218,7.3,-17.2,5.7,398,674,0,,,,
R,,4949132.0,2.428,0.282,-1.617,-4.2,22.1,-11.6,531,662,0,,,,
R,,4949193.0,-0.213,0.944,-0.571,-4.3,4.8,-15.4,590,779,0,,,,
R,,4949252.0,-0.049,0.872,-0.395,-6.4,-6.2,-8.1,634,823,0,,,,
R,,4949313.0,0.016,0.979,-0.244,-4.1,-0.9,-6.9,705,840,0,,,,
R,,4949373.0,0.047,0.989,-0.267,-3.2,-2.4,-5.2,722,843,0,,,,
R,,4949434.0,-0.096,0.983,-0.26,-2.4,-1.6,-3.5,680,844,0,,,,
R,,4949493.0,-0.057,0.997,-0.212,-2.0,-2.5,-3.1,596,840,0,,,,
R,,4949552.0,-0.072,0.979,-0.19,-2.2,-2.5,-3.3,434,841,0,,,,
R,,4949613.0,-0.109,1.002,-0.23,-3.8,-2.6,-4.1,437,842,0,,,,
R,,4949672.0,-0.052,1.152,-0.127,-6.4,-2.2,-5.9,432,789,0,,,,
R,,4949733.0,-0.112,1.265,-0.313,-10.6,-1.6,-8.6,457,817,0,,,,
R,,4949792.0,0.115,1.661,-0.385,-15.6,-5.0,-11.5,514,785,0,,,,
R,,4949853.0,0.321,1.667,-0.764,-17.1,-7.1,-19.7,224,736,0,,,,
R,,4949913.0,-0.393,0.734,-0.219,-12.3,1.1,-17.7,348,660,0,,,,
R,,4949972.0,0.297,0.067,-0.293,-1.8,10.7,2.3,399,656,0,,,,
R,,4950033.0,0.189,0.153,-0.265,6.8,10.8,15.0,429,668,0,,,,
R,,4950091.0,0.162,0.55,-0.379,13.1,7.1,27.5,449,676,0,,,,
R,,4950154.0,-0.021,1.322,-0.398,20.4,2.0,32.5,439,693,0,,,,
R,,4950212.0,-0.224,1.984,-0.195,25.9,6.1,31.8,423,717,0,,,,
R,,4950273.0,-1.259,2.118,0.041,21.4,8.4,21.4,427,719,0,,,,
R,,4950333.0,-1.337,1.761,0.914,-2.8,-10.5,-6.7,439,718,0,,,,
R,,4950393.0,0.502,1.776,0.452,-4.8,6.8,-18.9,616,733,0,,,,
R,,4950453.0,-0.061,1.002,-0.2,-6.1,0.6,-11.1,587,793,0,,,,
R,,4950512.0,0.067,0.978,-0.212,-5.7,-4.5,-7.2,667,823,0,,,,
R,,4950572.0,0.054,0.963,-0.281,-2.0,-2.7,-5.8,698,839,0,,,,
R,,4950632.0,-0.031,0.982,-0.261,-2.8,-2.7,-4.0,677,843,0,,,,
R,,4950693.0,-0.06,0.956,-0.203,-2.2,-1.4,-3.3,688,847,0,,,,
R,,4950752.0,-0.023,0.989,-0.218,-2.3,-2.4,-3.3,658,844,0,,,,
R,,4950814.0,-0.095,0.983,-0.198,-2.4,-2.1,-3.4,579,838,0,,,,
R,,4950873.0,-0.108,1.018,-0.2,-3.1,-1.8,-3.4,474,842,0,,,,
R,,4950932.0,-0.03,1.155,-0.195,-6.1,-1.8,-5.4,459,841,0,,,,
R,,4950993.0,-0.13,1.293,-0.313,-11.1,-2.1,-8.1,467,834,0,,,,
R,,4951052.0,0.116,1.648,-0.286,-16.5,-4.7,-10.9,483,781,0,,,,
R,,4951113.0,0.493,1.686,-0.802,-18.8,-4.9,-19.1,187,736,0,,,,
R,,4951203.0,0.246,0.495,-0.386,-12.8,10.5,-5.1,383,676,0,,,,
R,,4951262.0,0.069,0.081,-0.44,-0.4,14.8,8.2,406,666,0,,,,
R,,4951323.0,0.07,0.303,-0.498,5.7,13.6,26.3,440,672,0,,,,
R,,4951382.0,-0.122,0.9,-0.518,12.2,7.3,33.3,446,695,0,,,,
R,,4951443.0,-0.385,1.741,-0.641,20.9,8.2,34.2,423,712,0,,,,
R,,4951502.0,-0.876,1.994,-0.393,27.0,14.1,26.2,439,711,0,,,,
R,,4951564.0,-2.31,1.977,0.351,13.2,-10.0,11.5,407,716,0,,,,
R,,4951623.0,-0.179,1.865,0.367,-6.5,6.4,-16.5,337,720,0,,,,
R,,4951683.0,-0.299,1.346,-0.507,-2.2,4.7,-15.2,578,756,0,,,,
R,,4951743.0,-0.001,0.827,-0.458,-5.6,-2.4,-8.2,577,796,0,,,,
R,,4951802.0,0.136,1.01,-0.206,-3.5,-1.6,-7.1,673,822,0,,,,
R,,4951863.0,0.036,1.036,-0.29,-2.3,-3.5,-5.1,674,841,0,,,,
R,,4951922.0,-0.011,0.962,-0.265,-2.3,-0.8,-3.4,686,846,0,,,,
R,,4951983.0,-0.009,0.979,-0.218,-1.6,-1.8,-2.5,684,845,0,,,,
R,,4952042.0,-0.029,0.962,-0.245,-1.3,-1.6,-2.6,670,842,0,,,,
R,,4952103.0,-0.025,0.981,-0.297,-3.0,-1.6,-3.5,670,845,0,,,,
R,,4952163.0,-0.037,1.065,-0.243,-5.1,-2.3,-4.4,598,845,0,,,,
R,,4952224.0,-0.011,1.144,-0.181,-8.0,-1.8,-6.3,472,848,0,,,,
R,,4952283.0,-0.09,1.312,-0.196,-11.8,-2.5,-7.8,499,835,0,,,,
R,,4952342.0,0.107,1.662,-0.411,-16.8,-3.7,-10.2,521,777,0,,,,
R,,4952403.0,0.346,1.598,-0.667,-18.5,-3.9,-18.2,338,773,0,,,,
R,,4952462.0,-0.492,0.837,-0.15,-17.3,8.2,-17.5,293,686,0,,,,
R,,4952523.0,0.196,0.154,-0.473,-5.2,19.3,1.0,411,663,0,,,,
R,,4952583.0,0.096,0.203,-0.442,1.3,16.3,15.6,428,685,0,,,,
R,,4952643.0,0.035,0.622,-0.584,5.6,12.1,28.8,439,693,0,,,,
R,,4952703.0,-0.287,1.306,-0.648,14.8,5.9,33.3,457,722,0,,,,
R,,4952762.0,-0.323,1.762,-0.482,24.5,11.0,31.1,471,726,0,,,,
R,,4952823.0,-1.174,2.106,-0.354,22.9,7.6,22.7,459,718,0,,,,
R,,4952882.0,-1.158,1.922,1.175,2.7,-5.4,-3.7,364,729,0,,,,
R,,4952944.0,0.223,1.454,0.033,1.4,15.6,-18.9,505,716,0,,,,
R,,4953002.0,-0.031,1.062,-0.57,-2.6,1.6,-13.2,624,779,0,,,,
R,,4953063.0,0.159,0.935,-0.171,-6.0,-3.5,-8.8,634,816,0,,,,
R,,4953123.0,0.036,1.033,-0.191,-2.1,-1.1,-6.8,686,840,0,,,,
R,,4953183.0,0.046,0.985,-0.241,-2.6,-1.7,-4.5,700,847,0,,,,
R,,4953243.0,-0.049,0.979,-0.215,-2.2,-2.3,-3.3,689,845,0,,,,
R,,4953302.0,-0.02,0.983,-0.204,-1.9,-2.4,-2.8,658,843,0,,,,
R,,4953363.0,-0.049,0.964,-0.211,-2.2,-1.6,-3.4,601,841,0,,,,
R,,4953422.0,-0.104,1.017,-0.198,-3.5,-1.6,-3.2,485,842,0,,,,
R,,4953483.0,0.012,1.156,-0.167,-6.6,-1.8,-5.1,480,842,0,,,,
R,,4953542.0,-0.057,1.309,-0.237,-11.4,-2.3,-7.5,501,834,0,,,,
R,,4953603.0,0.11,1.566,-0.27,-16.0,-3.0,-9.9,511,776,0,,,,
R,,4953665.0,0.417,1.601,-0.725,-18.6,-3.6,-17.4,340,780,0,,,,
R,,4953723.0,-0.302,1.077,-0.261,-15.1,9.5,-19.6,338,694,0,,,,
R,,4953783.0,0.389,0.209,-0.492,-6.8,21.1,-0.8,399,675,0,,,,
R,,4953842.0,0.124,0.176,-0.497,0.2,17.1,13.9,429,687,0,,,,
R,,4953903.0,0.057,0.578,-0.547,6.0,10.1,28.2,440,695,0,,,,
R,,4953962.0,-0.178,1.225,-0.634,14.9,6.1,33.9,452,713,0,,,,
R,,4954023.0,-0.309,1.839,-0.407,24.1,12.8,29.8,448,718,0,,,,
R,,4954083.0,-1.251,2.074,-0.158,21.6,11.2,21.5,415,693,0,,,,
R,,4954172.0,-0.706,1.891,0.476,-3.5,6.1,-12.9,363,649,0,,,,
R,,4954233.0,0.094,1.381,0.161,-4.1,8.3,-15.2,594,744,0,,,,
R,,4954292.0,0.045,0.912,-0.386,-5.1,-2.4,-9.5,612,797,0,,,,
R,,4954354.0,0.089,0.997,-0.189,-2.7,-2.3,-7.5,672,830,0,,,,
R,,4954413.0,0.018,1.014,-0.298,-2.0,-1.7,-5.1,699,842,0,,,,
R,,4954473.0,0.001,0.985,-0.242,-1.9,-1.3,-3.8,697,845,0,,,,
R,,4954533.0,0.0,0.99,-0.204,-2.0,-2.6,-2.8,672,844,0,,,,
R,,4954592.0,-0.047,0.976,-0.183,-1.5,-1.6,-2.9,643,839,0,,,,
R,,4954653.0,-0.033,0.99,-0.235,-2.8,-0.8,-3.3,571,838,0,,,,
R,,4954712.0,-0.032,1.091,-0.235,-5.5,-1.7,-4.2,463,841,0,,,,
R,,4954773.0,-0.007,1.212,-0.088,-9.0,-0.5,-6.8,466,843,0,,,,
R,,4954833.0,-0.016,1.392,-0.182,-13.2,-2.2,-8.1,520,806,0,,,,
R,,4954893.0,0.245,1.723,-0.536,-17.6,-4.6,-10.8,503,764,0,,,,
R,,4954953.0,0.066,1.439,-0.219,-18.5,4.1,-20.9,222,759,0,,,,
R,,4955013.0,0.195,0.466,0.046,-16.9,11.8,-7.8,373,699,0,,,,
R,,4955075.0,0.039,0.12,-0.542,-2.5,18.6,4.7,404,670,0,,,,
R,,4955132.0,0.036,0.251,-0.456,4.0,13.9,20.4,442,683,0,,,,
R,,4955193.0,-0.151,0.808,-0.533,10.5,6.9,30.3,442,705,0,,,,
R,,4955252.0,-0.339,1.552,-0.427,19.1,3.7,30.5,432,734,0,,,,
R,,4955313.0,-0.304,1.676,-0.271,25.6,12.3,25.7,453,739,0,,,,
R,,4955373.0,-1.299,1.975,-0.271,19.1,0.9,20.3,446,726,0,,,,
R,,4955433.0,-0.607,1.774,1.126,-3.0,-5.8,-8.2,447,726,0,,,,
R,,4955493.0,0.056,1.995,0.478,-3.7,15.1,-19.3,551,728,0,,,,
R,,4955553.0,-0.1,1.104,-0.091,-6.0,3.0,-13.1,534,799,0,,,,
R,,4955613.0,-0.044,0.921,-0.23,-6.7,-6.3,-7.9,600,833,0,,,,
R,,4955672.0,0.032,0.999,-0.27,-2.4,-2.4,-5.9,602,849,0,,,,
R,,4955733.0,-0.016,0.983,-0.28,-2.8,-1.5,-4.5,684,846,0,,,,
R,,4955794.0,-0.065,0.983,-0.237,-2.4,-2.2,-3.5,659,848,0,,,,
R,,4955853.0,-0.065,0.969,-0.193,-1.9,-2.5,-3.2,657,843,0,,,,
R,,4955913.0,-0.115,1.003,-0.229,-2.4,-2.4,-3.2,541,837,0,,,,
R,,4955973.0,-0.083,1.081,-0.251,-4.2,-2.7,-4.1,481,842,0,,,,
R,,4956033.0,-0.048,1.21,-0.193,-8.0,-2.5,-6.8,483,842,0,,,,
R,,4956093.0,-0.058,1.41,-0.252,-12.5,-3.6,-10.0,467,808,0,,,,
R,,4956153.0,0.309,1.928,-0.405,-17.8,-7.8,-14.1,323,789,0,,,,
R,,4956212.0,-0.035,1.436,-0.043,-16.0,-3.7,-21.9,199,775,0,,,,
R,,4956273.0,0.064,0.355,-0.092,-11.4,2.8,-6.3,374,683,0,,,,
R,,4956333.0,0.086,0.064,-0.33,1.1,12.7,5.6,412,661,0,,,,
R,,4956393.0,0.088,0.2,-0.286,8.5,10.8,19.6,455,684,0,,,,
R,,4956455.0,0.0,0.772,-0.247,15.5,4.3,29.4,466,696,0,,,,
R,,4956513.0,-0.145,1.536,-0.323,21.2,2.1,32.5,442,708,0,,,,
R,,4956573.0,-0.369,2.07,-0.175,26.6,7.6,28.3,440,718,0,,,,
R,,4956633.0,-1.795,1.922,0.272,16.2,0.9,17.8,398,684,0,,,,
R,,4956693.0,-0.786,1.986,0.66,-6.4,-5.7,-11.0,421,705,0,,,,
R,,4956752.0,0.239,1.417,-0.353,-2.1,9.0,-16.7,421,770,0,,,,
R,,4956813.0,-0.124,0.916,-0.371,-6.1,-2.3,-9.4,607,805,0,,,,
R,,4956903.0,0.026,0.959,-0.189,-3.2,-2.2,-6.0,590,841,0,,,,
R,,4956962.0,0.01,0.976,-0.288,-3.3,-3.7,-4.8,606,848,0,,,,
R,,4957023.0,-0.091,0.955,-0.257,-2.6,-1.7,-3.5,631,845,0,,,,
R,,4957083.0,-0.07,0.969,-0.26,-1.6,-2.5,-2.5,612,841,0,,,,
R,,4957172.0,-0.113,0.941,-0.238,-1.5,-2.1,-2.7,474,831,0,,,,
R,,4957235.0,-0.093,1.043,-0.251,-3.2,-2.3,-3.5,429,799,0,,,,
R,,4957292.0,-0.056,1.158,-0.23,-6.4,-1.8,-6.1,440,845,0,,,,
R,,4957383.0,-0.097,1.346,-0.252,-12.2,-3.7,-9.4,435,808,0,,,,
R,,4957443.0,0.207,1.818,-0.537,-16.9,-7.8,-12.3,428,789,0,,,,
R,,4957502.0,0.03,1.413,-0.137,-16.5,-2.1,-22.1,219,726,0,,,,
R,,4957563.0,0.086,0.147,0.02,-12.6,-0.9,-8.3,354,666,0,,,,
R,,4957623.0,0.29,0.105,-0.367,-1.1,10.1,6.9,373,656,0,,,,
R,,4957683.0,0.206,0.299,-0.348,6.4,13.8,21.7,412,671,0,,,,
R,,4957743.0,0.062,0.848,-0.552,10.6,10.0,32.9,407,675,0,,,,
R,,4957803.0,-0.097,1.685,-0.449,19.0,4.4,34.9,396,696,0,,,,
R,,4957863.0,-0.535,2.052,-0.261,25.0,14.2,28.3,402,665,0,,,,
R,,4957923.0,-2.234,1.8,-0.014,14.1,6.9,15.8,330,701,0,,,,
R,,4957985.0,-0.013,1.181,1.061,-7.1,5.2,-16.9,426,661,0,,,,
R,,4958042.0,-0.275,1.302,-0.334,-2.6,2.8,-15.3,550,772,0,,,,
R,,4958103.0,-0.003,0.844,-0.448,-5.8,-0.7,-10.0,608,795,0,,,,
R,,4958163.0,0.077,1.056,-0.09,-3.3,-1.4,-7.9,671,824,0,,,,
R,,4958223.0,0.0,0.971,-0.328,-2.1,-2.6,-5.8,685,839,0,,,,
R,,4958283.0,0.026,1.001,-0.236,-2.3,-1.9,-4.3,676,837,0,,,,
R,,4958343.0,-0.015,1.012,-0.212,-2.1,-3.1,-3.1,638,839,0,,,,
R,,4958403.0,-0.068,0.951,-0.173,-1.4,-1.8,-2.9,561,838,0,,,,
R,,4958462.0,-0.051,0.986,-0.163,-2.0,-1.8,-3.0,460,841,0,,,,
R,,4958523.0,-0.056,1.049,-0.208,-4.3,-1.7,-4.3,449,842,0,,,,
R,,4958583.0,0.005,1.205,-0.102,-8.6,-0.4,-7.6,419,839,0,,,,
R,,4958644.0,-0.009,1.452,-0.3,-14.0,-2.9,-9.7,499,802,0,,,,
R,,4958703.0,0.642,2.089,-0.736,-19.9,-7.5,-13.3,483,778,0,,,,
R,,4958763.0,-0.285,1.444,0.078,-18.8,10.4,-23.6,272,707,0,,,,
R,,4958823.0,0.101,0.45,-0.343,-14.4,16.2,-2.7,349,653,0,,,,
R,,4958883.0,0.041,0.071,-0.531,-2.9,18.1,9.9,366,639,0,,,,
R,,4958943.0,-0.065,0.327,-0.531,2.9,13.3,24.6,367,655,0,,,,
R,,4959002.0,-0.195,0.888,-0.603,10.3,6.8,32.3,431,672,0,,,,
R,,4959063.0,-0.184,1.593,-0.377,18.3,11.3,32.1,417,659,0,,,,
R,,4959123.0,-0.641,2.014,-0.483,20.4,28.9,24.8,452,696,0,,,,
R,,4959183.0,-2.478,1.694,-0.236,12.8,8.1,8.3,408,674,0,,,,
R,,4959243.0,-0.802,1.331,0.752,-4.1,6.5,-16.2,343,638,0,,,,
R,,4959303.0,-0.584,1.61,-0.155,-4.1,0.8,-13.6,594,757,0,,,,
R,,4959365.0,0.103,0.871,-0.096,-4.3,-1.8,-8.6,658,801,0,,,,
R,,4959423.0,0.107,1.02,-0.107,-0.5,-1.2,-6.6,686,829,0,,,,
R,,4959483.0,0.033,1.014,-0.272,-0.6,-2.2,-5.7,687,841,0,,,,
R,,4959542.0,-0.002,1.032,-0.106,-1.7,-0.5,-4.6,673,842,0,,,,
R,,4959603.0,-0.056,0.989,-0.136,-1.6,-1.5,-3.5,623,837,0,,,,
R,,4959663.0,-0.087,0.962,-0.137,-1.2,-1.6,-2.9,536,845,0,,,,
R,,4959723.0,-0.091,0.984,-0.161,-1.2,-1.5,-2.3,508,843,0,,,,
R,,4959783.0,-0.043,1.08,-0.153,-2.9,-1.3,-2.8,499,843,0,,,,
R,,4959843.0,-0.025,1.193,-0.154,-6.8,-1.0,-5.6,541,836,0,,,,
R,,4959944.0,0.067,1.728,-0.393,-15.9,-3.2,-9.1,537,776,0,,,,
R,,4959963.0,0.289,1.809,-0.544,-18.0,-5.9,-10.6,529,772,0,,,,
R,,4960025.0,-0.02,1.442,-0.15,-18.7,5.3,-20.7,286,768,0,,,,
R,,4960083.0,0.3,0.572,0.529,-17.5,12.7,-9.0,383,695,0,,,,
R,,4960143.0,0.074,0.177,-0.504,-4.1,24.6,4.2,400,646,0,,,,
R,,4960203.0,-0.004,0.288,-0.528,1.1,16.2,20.3,446,671,0,,,,
R,,4960263.0,-0.175,0.798,-0.679,7.4,7.8,30.1,447,684,0,,,,
R,,4960323.0,-0.385,1.432,-0.61,17.3,6.8,30.5,475,721,0,,,,
R,,4960383.0,-0.437,1.712,-0.371,23.8,13.5,25.7,495,721,0,,,,
R,,4960484.0,-1.736,1.711,0.661,9.8,-8.8,4.0,489,714,0,,,,
R,,4960503.0,-1.148,1.635,0.886,2.1,-7.5,-5.1,459,713,0,,,,
R,,4960563.0,0.081,1.716,0.554,-2.7,11.2,-19.0,602,734,0,,,,
R,,4960623.0,-0.088,0.988,-0.406,-4.6,-1.6,-11.2,598,797,0,,,,
R,,4960683.0,0.217,0.938,-0.164,-5.6,-6.1,-6.8,667,821,0,,,,
R,,4960745.0,0.006,0.994,-0.296,-1.6,-1.4,-6.2,698,837,0,,,,
R,,4960803.0,0.001,0.999,-0.224,-2.0,-2.4,-4.2,684,844,0,,,,
R,,4960863.0,-0.06,0.991,-0.211,-1.4,-2.0,-2.7,671,843,0,,,,
R,,4960923.0,-0.053,1.001,-0.215,-1.0,-2.8,-2.5,599,841,0,,,,
R,,4960983.0,-0.077,0.943,-0.245,-1.6,-2.1,-2.9,468,843,0,,,,
R,,4961042.0,-0.104,0.995,-0.237,-3.0,-1.8,-3.9,454,839,0,,,,
R,,4961133.0,-0.065,1.208,-0.128,-8.4,-0.9,-7.7,494,841,0,,,,
R,,4961193.0,-0.052,1.439,-0.262,-13.5,-3.5,-10.0,464,808,0,,,,
R,,4961253.0,0.536,2.1,-0.678,-18.9,-8.0,-14.1,355,788,0,,,,
R,,4961313.0,-0.616,1.219,-0.032,-17.4,6.3,-22.8,273,724,0,,,,
R,,4961373.0,0.435,0.284,-0.309,-9.8,6.7,-2.1,371,667,0,,,,
R,,4961433.0,0.13,0.094,-0.217,-0.7,7.8,9.2,385,658,0,,,,
R,,4961495.0,0.125,0.44,-0.411,6.9,8.3,22.9,394,677,0,,,,
R,,4961553.0,-0.055,1.069,-0.303,13.4,7.2,27.8,427,693,0,,,,
R,,4961613.0,-0.262,1.619,-0.427,18.7,9.2,28.6,439,703,0,,,,
R,,4961673.0,-0.188,1.736,-0.358,21.0,8.3,26.1,447,709,0,,,,
R,,4961763.0,-1.408,1.676,0.484,10.7,-15.6,14.7,421,694,0,,,,
R,,4961823.0,-0.537,1.19,0.355,-5.5,-0.7,-8.6,376,704,0,,,,
R,,4961883.0,2.188,0.232,-1.751,-1.1,12.5,-8.1,428,686,0,,,,
R,,4961943.0,-0.214,1.031,-0.581,-2.4,-1.0,-13.0,549,776,0,,,,
R,,4962003.0,-0.013,0.833,-0.427,-5.0,-5.2,-7.0,585,819,0,,,,
R,,4962093.0,0.01,0.974,-0.246,-0.3,-1.5,-3.7,649,841,0,,,,
R,,4962153.0,0.008,0.944,-0.27,1.2,-1.4,-1.6,670,847,0,,,,
R,,4962214.0,0.056,0.955,-0.365,0.6,0.0,-1.6,676,846,0,,,,
R,,4962273.0,0.046,0.924,-0.382,-1.5,-1.6,-2.7,682,850,0,,,,
R,,4962333.0,-0.02,0.961,-0.295,-3.0,-1.2,-3.8,706,846,0,,,,
R,,4962393.0,-0.02,0.987,-0.276,-2.8,-0.8,-3.4,702,847,0,,,,
R,,4962453.0,-0.099,1.004,-0.317,-3.5,-1.6,-3.3,685,847,0,,,,
R,,4962513.0,-0.073,1.048,-0.252,-5.0,-2.0,-4.4,613,844,0,,,,
R,,4962573.0,-0.102,1.101,-0.258,-7.9,-3.0,-5.5,486,840,0,,,,
R,,4962633.0,-0.047,1.363,-0.253,-11.4,-3.8,-7.4,502,834,0,,,,
R,,4962693.0,0.143,1.638,-0.228,-15.3,-5.9,-10.9,465,784,0,,,,
R,,4962753.0,0.199,1.366,-0.443,-15.6,-3.0,-18.3,311,759,0,,,,
R,,4962843.0,0.168,0.429,-0.393,-7.4,2.8,-3.9,365,679,0,,,,
R,,4962903.0,0.008,0.151,-0.228,2.8,6.1,7.5,360,675,0,,,,
R,,4962964.0,0.165,0.347,-0.269,10.0,7.5,21.6,389,683,0,,,,
R,,4963023.0,-0.061,1.051,-0.292,16.1,4.0,28.4,417,697,0,,,,
R,,4963083.0,-0.352,1.704,-0.351,22.0,3.7,28.4,425,716,0,,,,
R,,4963143.0,-0.527,1.886,-0.138,23.4,3.0,24.7,436,717,0,,,,
R,,4963203.0,-1.755,1.779,0.574,12.3,-9.6,10.9,421,717,0,,,,
R,,4963262.0,0.849,0.391,-0.739,-6.7,12.8,-13.6,425,674,0,,,,
R,,4963323.0,-0.264,1.395,-0.096,-3.9,1.5,-11.5,515,767,0,,,,
R,,4963383.0,0.004,0.932,-0.279,-5.0,-1.5,-7.3,434,809,0,,,,
R,,4963443.0,0.086,0.949,-0.207,-2.6,-2.2,-5.1,629,814,0,,,,
R,,4963503.0,0.018,0.966,-0.396,-1.5,-3.4,-4.9,624,830,0,,,,
R,,4963563.0,-0.005,0.969,-0.277,-3.1,-1.2,-4.3,574,847,0,,,,
R,,4963653.0,-0.063,0.951,-0.208,-0.8,-1.1,-2.0,668,847,0,,,,
R,,4963745.0,-0.047,0.963,-0.253,0.9,-0.9,-0.7,655,847,0,,,,
R,,4963803.0,-0.071,0.977,-0.292,0.4,-1.1,-0.6,655,853,0,,,,
R,,4963863.0,-0.044,0.996,-0.318,-2.9,-1.4,-3.3,683,849,0,,,,
R,,4963923.0,-0.039,1.026,-0.256,-4.9,-1.8,-4.7,665,846,0,,,,
R,,4963983.0,-0.152,1.093,-0.236,-7.3,-2.3,-5.3,447,847,0,,,,
R,,4964043.0,-0.077,1.276,-0.229,-10.0,-3.4,-6.6,491,840,0,,,,
R,,4964103.0,0.041,1.505,-0.195,-13.5,-6.4,-9.4,502,797,0,,,,
R,,4964163.0,0.454,1.643,-0.507,-16.0,-3.9,-17.0,385,770,0,,,,
R,,4964223.0,-0.574,0.948,-0.297,-13.0,4.1,-19.2,283,714,0,,,,
R,,4964283.0,0.514,0.333,-0.3,-4.2,4.2,0.6,359,662,0,,,,
R,,4964343.0,0.233,0.172,-0.227,3.2,8.8,11.1,375,650,0,,,,
R,,4964405.0,0.109,0.524,-0.384,8.9,6.9,24.5,412,668,0,,,,
R,,4964463.0,-0.076,1.211,-0.325,14.6,2.2,29.5,418,695,0,,,,
R,,4964523.0,-0.255,1.65,-0.345,21.6,5.8,26.7,431,707,0,,,,
R,,4964583.0,-0.451,1.888,-0.035,21.6,9.7,20.0,398,712,0,,,,
R,,4964643.0,-1.841,1.628,0.413,9.0,-6.6,7.0,361,713,0,,,,
R,,4964703.0,0.761,0.366,-0.872,-3.2,11.9,-12.0,489,669,0,,,,
R,,4964763.0,-0.067,1.395,-0.034,-2.6,-1.5,-10.1,591,763,0,,,,
R,,4964823.0,0.057,0.889,-0.333,-2.5,-1.0,-5.7,592,804,0,,,,
R,,4964883.0,0.184,0.933,-0.26,-1.5,-2.7,-4.9,662,823,0,,,,
R,,4964943.0,0.052,0.976,-0.332,-1.1,-1.8,-4.6,679,837,0,,,,
R,,4965003.0,0.03,0.961,-0.308,-1.1,0.2,-4.2,700,845,0,,,,
R,,4965063.0,-0.014,0.976,-0.271,-2.1,-0.1,-3.2,712,846,0,,,,
R,,4965125.0,0.029,0.937,-0.296,-1.5,-0.7,-2.6,697,847,0,,,,
R,,4965183.0,-0.021,0.974,-0.228,-1.6,-0.7,-2.1,696,847,0,,,,
R,,4965243.0,-0.055,0.972,-0.248,-1.1,-0.8,-1.5,692,848,0,,,,
R,,4965303.0,-0.074,0.969,-0.249,-0.6,-1.3,-0.5,669,848,0,,,,
R,,4965363.0,-0.05,0.984,-0.216,-1.0,-2.1,0.5,637,847,0,,,,
R,,4965423.0,-0.043,0.978,-0.222,-1.3,-2.8,1.1,583,843,0,,,,
R,,4965483.0,-0.023,0.895,-0.135,-2.0,-0.3,0.0,540,846,0,,,,
R,,4965543.0,0.02,1.225,-0.325,-6.3,8.3,-3.2,586,833,0,,,,
R,,4965603.0,0.042,1.106,-0.126,-6.9,1.3,-5.6,487,787,0,,,,
R,,4965664.0,-0.096,0.944,-0.05,-3.4,3.9,-3.9,426,679,0,,,,
R,,4965723.0,-0.08,0.831,-0.012,-2.3,0.6,-0.4,447,692,0,,,,
R,,4965783.0,-0.048,0.865,-0.015,0.1,2.1,1.0,463,693,0,,,,
R,,4965844.0,-0.011,0.92,0.029,0.8,0.9,2.1,453,693,0,,,,
R,,4965903.0,0.064,1.005,0.044,0.3,1.4,3.3,447,691,0,,,,
R,,4965963.0,0.066,1.075,0.043,-0.2,6.6,2.2,452,691,0,,,,
R,,4966053.0,-0.074,0.995,-0.082,-0.5,9.6,1.1,455,687,0,,,,
R,,4966143.0,-0.213,0.791,-0.324,1.9,4.5,1.0,467,687,0,,,,
R,,4966203.0,0.094,1.1,-0.172,3.0,-2.9,0.0,559,746,0,,,,
R,,4966293.0,-0.09,0.969,-0.204,2.4,-1.2,-1.6,667,821,0,,,,
R,,4966353.0,0.005,1.012,-0.17,1.6,0.5,-2.2,691,836,0,,,,
R,,4966414.0,-0.1,1.0,-0.166,0.8,0.8,-2.1,669,845,0,,,,
R,,4966473.0,-0.1,0.991,-0.131,0.5,0.5,-1.7,707,844,0,,,,
R,,4966533.0,-0.094,0.981,-0.158,1.0,0.0,-0.7,705,848,0,,,,
R,,4966594.0,-0.085,0.982,-0.176,1.2,-0.1,0.0,696,850,0,,,,
R,,4966653.0,-0.078,0.976,-0.196,1.2,-0.3,0.3,697,852,0,,,,
R,,4966713.0,-0.073,0.977,-0.195,1.3,-0.3,0.3,699,852,0,,,,
R,,4966773.0,-0.058,0.981,-0.221,0.9,-0.4,0.0,703,851,0,,,,
R,,4966833.0,-0.069,0.979,-0.216,0.2,-0.4,-0.1,713,853,0,,,,
R,,4966893.0,-0.06,0.984,-0.214,-0.1,-0.5,0.0,717,854,0,,,,
R,,4966954.0,-0.063,0.981,-0.209,-0.2,-0.5,0.3,716,854,0,,,,
R,,4967013.0,-0.058,0.988,-0.198,-0.2,-0.5,0.6,720,852,0,,,,
R,,4967073.0,-0.057,0.988,-0.205,-0.3,-0.6,0.8,716,854,0,,,,
R,,4967133.0,-0.06,0.988,-0.194,-0.5,-0.7,1.1,701,856,0,,,,
R,,4967193.0,-0.036,0.99,-0.195,-0.7,-0.8,1.6,709,853,0,,,,
R,,4967253.0,-0.022,0.99,-0.193,-1.2,-1.0,2.0,687,851,0,,,,
R,,4967315.0,0.064,1.003,-0.224,-3.0,-1.1,0.6,649,851,0,,,,
R,,4967374.0,0.046,1.082,-0.178,-5.8,0.9,-2.2,678,836,0,,,,
R,,4967433.0,0.015,1.12,-0.168,-8.2,1.5,-5.1,589,800,0,,,,
R,,4967494.0,-0.067,1.035,-0.092,-5.8,-0.3,-4.5,518,713,0,,,,
R,,4967553.0,-0.03,0.894,-0.078,-2.1,2.0,-3.1,475,657,0,,,,
R,,4967613.0,0.03,0.854,-0.115,1.5,2.9,0.5,460,657,0,,,,
R,,4967672.0,0.222,0.823,-0.007,3.5,1.9,4.1,464,662,0,,,,
R,,4967763.0,0.24,0.97,-0.045,5.1,6.5,8.6,469,679,0,,,,
R,,4967823.0,0.009,1.049,-0.171,5.8,6.4,9.0,469,679,0,,,,
R,,4967883.0,-0.056,1.106,-0.142,5.1,2.8,8.6,460,697,0,,,,
R,,4967943.0,-0.052,1.073,-0.11,4.2,3.0,5.6,396,711,0,,,,
R,,4968004.0,-0.107,1.039,-0.096,2.3,4.1,1.0,490,708,0,,,,
R,,4968063.0,-0.086,1.214,0.075,0.8,1.8,-3.2,508,714,0,,,,
R,,4968124.0,0.252,1.025,-0.128,0.7,1.1,-3.3,548,721,0,,,,
R,,4968183.0,0.203,0.942,-0.224,0.2,-1.5,-3.7,567,735,0,,,,
R,,4968244.0,0.198,0.973,-0.193,0.5,-0.3,-4.3,580,731,0,,,,
R,,4968303.0,0.153,0.969,-0.215,0.2,-0.8,-5.2,615,751,0,,,,
R,,4968363.0,-0.004,1.051,-0.212,0.0,-0.5,-5.1,642,771,0,,,,
R,,4968423.0,0.044,0.972,-0.27,-0.2,0.8,-5.2,661,791,0,,,,
R,,4968482.0,-0.059,1.017,-0.157,-0.7,0.3,-4.1,667,812,0,,,,
R,,4968543.0,-0.057,0.928,-0.228,-0.2,-2.4,-2.3,684,826,0,,,,
R,,4968603.0,-0.066,0.973,-0.141,1.5,-3.1,-0.1,701,838,0,,,,
R,,4968664.0,-0.019,0.967,-0.204,3.0,-3.1,1.3,697,844,0,,,,
R,,4968725.0,-0.003,0.961,-0.227,3.3,-1.2,1.1,704,846,0,,,,
R,,4968784.0,0.01,0.971,-0.289,2.5,-0.3,0.4,714,847,0,,,,
R,,4968843.0,0.051,0.998,-0.365,-1.0,-0.2,-2.2,716,845,0,,,,
R,,4968903.0,-0.026,0.977,-0.25,-2.6,-1.0,-2.4,713,847,0,,,,
R,,4968962.0,-0.039,0.972,-0.251,-3.0,-0.6,-2.3,705,849,0,,,,
R,,4969023.0,-0.092,0.973,-0.187,-3.4,-1.0,-2.1,698,848,0,,,,
R,,4969083.0,-0.081,1.031,-0.253,-4.9,-1.1,-2.3,666,849,0,,,,
R,,4969143.0,-0.065,1.126,-0.183,-7.9,-2.0,-2.7,643,838,0,,,,
R,,4969204.0,-0.009,1.299,-0.163,-10.2,-2.2,-5.0,552,830,0,,,,
R,,4969263.0,0.275,1.644,-0.113,-14.3,-3.0,-9.6,501,771,0,,,,
R,,4969323.0,0.092,1.161,-0.396,-15.2,2.8,-15.4,408,732,0,,,,
R,,4969383.0,0.372,0.515,0.148,-10.7,13.0,-6.9,398,697,0,,,,
R,,4969445.0,0.057,0.336,-0.512,-2.1,20.7,2.2,403,694,0,,,,
R,,4969534.0,-0.079,0.716,-0.463,4.1,7.3,19.9,446,701,0,,,,
R,,4969593.0,-0.164,1.074,-0.397,11.6,2.5,23.8,454,706,0,,,,
R,,4969653.0,-0.114,1.36,-0.286,17.5,9.8,20.4,457,717,0,,,,
R,,4969713.0,-0.359,1.484,-0.19,16.2,13.6,16.6,442,707,0,,,,
R,,4969773.0,-1.363,1.409,0.033,8.7,1.2,7.3,434,709,0,,,,
R,,4969833.0,-0.686,1.651,1.028,-6.1,0.4,-12.2,496,679,0,,,,
R,,4969893.0,-0.203,1.201,-0.378,-2.3,0.3,-12.2,605,751,0,,,,
R,,4969954.0,-0.114,0.891,-0.273,-3.7,-1.1,-7.7,656,793,0,,,,
R,,4970013.0,0.054,0.961,-0.085,-1.4,-2.8,-4.8,687,825,0,,,,
R,,4970074.0,-0.012,1.007,-0.218,-0.9,-0.9,-4.4,689,837,0,,,,
R,,4970135.0,-0.018,0.986,-0.168,-1.5,-1.2,-2.5,709,844,0,,,,
R,,4970193.0,-0.069,0.99,-0.239,-0.3,-1.0,-1.5,709,845,0,,,,
R,,4970253.0,-0.042,0.985,-0.229,-0.2,-2.1,-1.0,703,847,0,,,,
R,,4970313.0,-0.018,0.993,-0.177,-0.9,-2.0,-1.4,682,848,0,,,,
R,,4970374.0,-0.039,1.033,-0.21,-2.7,-1.8,-2.9,636,843,0,,,,
R,,4970433.0,-0.059,1.087,-0.21,-5.6,-2.0,-4.8,538,844,0,,,,
R,,4970494.0,-0.072,1.24,-0.206,-9.4,-2.3,-6.8,487,841,0,,,,
R,,4970553.0,0.073,1.565,-0.284,-14.8,-3.4,-9.6,479,801,0,,,,
R,,4970614.0,0.584,1.695,-0.658,-18.2,-5.1,-15.8,407,769,0,,,,
R,,4970673.0,-0.367,0.965,-0.336,-16.3,8.2,-19.6,298,691,0,,,,
R,,4970733.0,0.362,0.411,-0.416,-7.5,12.6,-1.4,345,657,0,,,,
R,,4970793.0,-0.002,0.129,-0.396,1.3,13.2,8.9,366,641,0,,,,
R,,4970855.0,-0.06,0.443,-0.401,7.0,8.3,23.5,405,654,0,,,,
R,,4970914.0,-0.205,1.059,-0.487,13.8,3.9,29.1,381,683,0,,,,
R,,4970973.0,-0.323,1.623,-0.376,22.3,10.9,26.5,393,700,0,,,,
R,,4971034.0,-1.049,1.768,-0.381,23.2,4.3,18.3,410,707,0,,,,
R,,4971093.0,-1.331,1.486,0.455,11.8,-11.6,10.0,351,686,0,,,,
R,,4971153.0,0.401,1.347,1.181,-8.6,0.0,-10.8,444,624,0,,,,
R,,4971213.0,-0.227,1.739,0.447,-8.1,6.4,-10.9,519,784,0,,,,
R,,4971273.0,-0.123,0.744,-0.439,-5.5,-2.9,-6.9,606,820,0,,,,
R,,4971333.0,0.051,1.001,-0.272,-4.0,-0.8,-5.9,567,846,0,,,,
R,,4971393.0,-0.027,0.954,-0.264,-3.0,-2.2,-4.9,679,842,0,,,,
R,,4971454.0,-0.1,0.932,-0.226,-2.7,-0.1,-2.8,646,844,0,,,,
R,,4971513.0,-0.079,0.947,-0.207,-1.2,-2.0,-0.8,642,843,0,,,,
R,,4971575.0,-0.059,0.946,-0.211,-0.3,-1.7,0.4,556,848,0,,,,
R,,4971633.0,-0.054,0.978,-0.217,-1.0,-2.1,0.6,637,844,0,,,,
R,,4971693.0,-0.016,0.993,-0.253,-2.3,-1.8,0.2,631,844,0,,,,
R,,4971784.0,-0.058,0.991,-0.162,-4.2,-2.6,0.1,587,842,0,,,,
R,,4971843.0,0.034,1.208,-0.347,-7.6,-1.1,-3.3,472,837,0,,,,
R,,4971904.0,-0.016,1.234,-0.291,-8.5,-0.3,-8.5,385,768,0,,,,
R,,4971963.0,-0.199,0.589,-0.387,-1.6,-14.1,-2.9,381,680,0,,,,
R,,4972023.0,-0.047,0.609,-0.156,4.1,-14.0,4.1,375,663,0,,,,
R,,4972083.0,0.021,0.979,0.164,7.0,-12.9,6.8,403,671,0,,,,
R,,4972143.0,-0.101,1.069,0.244,5.6,-6.3,5.5,317,681,0,,,,
R,,4972204.0,-0.25,1.098,0.228,1.9,-2.0,0.8,422,680,0,,,,
R,,4972265.0,-0.199,1.109,0.082,-1.1,-2.6,-2.8,424,682,0,,,,
R,,4972324.0,-0.018,1.134,-0.018,-2.3,-7.2,-3.2,419,687,0,,,,
R,,4972383.0,0.101,1.169,0.011,-1.1,-7.8,-2.0,420,691,0,,,,
R,,4972443.0,0.205,0.906,0.203,-0.9,-5.2,-0.4,411,687,0,,,,
R,,4972503.0,0.192,0.811,0.258,-1.5,0.5,0.7,418,695,0,,,,
R,,4972563.0,0.117,0.914,0.124,-2.7,2.4,2.3,419,699,0,,,,
R,,4972624.0,0.054,1.004,-0.095,-1.9,-0.3,4.2,447,695,0,,,,
R,,4972683.0,-0.013,1.145,-0.197,0.9,0.6,5.7,444,698,0,,,,
R,,4972744.0,-0.156,1.036,-0.167,3.9,2.9,4.2,437,695,0,,,,
R,,4972803.0,-0.207,0.804,-0.038,3.1,0.6,1.7,453,693,0,,,,
R,,4972864.0,0.019,0.496,-0.279,4.3,4.1,-1.1,341,694,0,,,,
R,,4972923.0,0.15,1.569,0.039,2.9,-1.7,-5.0,541,829,0,,,,
R,,4973015.0,-0.06,1.002,-0.145,2.1,-2.1,-1.8,648,843,0,,,,
R,,4973074.0,-0.056,0.979,-0.133,3.0,0.4,0.1,694,846,0,,,,
R,,4973133.0,-0.023,1.007,-0.195,2.8,-1.3,0.9,702,847,0,,,,
R,,4973194.0,-0.004,0.972,-0.209,2.1,0.0,-0.5,698,843,0,,,,
R,,4973253.0,-0.007,0.979,-0.22,0.4,-0.4,-1.7,697,844,0,,,,
R,,4973313.0,-0.125,0.971,-0.133,0.2,1.1,-1.2,667,849,0,,,,
R,,4973373.0,-0.076,0.981,-0.177,1.1,1.0,-0.2,717,847,0,,,,
R,,4973433.0,-0.07,0.963,-0.215,1.6,-1.1,1.1,715,844,0,,,,
R,,4973494.0,0.05,0.886,-0.399,1.1,-0.4,0.2,704,843,0,,,,
R,,4973553.0,-0.04,1.166,-0.06,-1.7,0.8,-2.0,708,847,0,,,,
R,,4973614.0,-0.193,1.046,-0.25,-4.0,0.9,-4.7,710,849,0,,,,
R,,4973673.0,-0.316,0.914,-0.017,-3.4,0.4,-3.3,712,850,0,,,,
R,,4973765.0,-0.209,0.925,-0.137,-1.2,-0.6,-1.1,678,851,0,,,,
R,,4973824.0,-0.159,0.979,-0.134,0.2,-0.8,1.1,677,852,0,,,,
R,,4973883.0,-0.139,0.98,-0.178,-0.1,-0.9,1.5,678,854,0,,,,
R,,4973944.0,-0.1,0.985,-0.165,-0.6,-0.6,0.4,676,849,0,,,,
R,,4974003.0,-0.147,0.995,-0.149,-1.1,-0.7,0.0,686,849,0,,,,
R,,4974063.0,-0.152,0.994,-0.134,-0.9,-0.9,0.7,699,851,0,,,,
R,,4974124.0,-0.121,1.004,-0.11,-0.2,-1.8,2.2,646,854,0,,,,
R,,4974183.0,-0.08,1.023,-0.146,-0.6,-1.8,2.2,663,839,0,,,,
R,,4974244.0,-0.026,1.042,-0.123,-1.3,-2.2,1.5,485,829,0,,,,
R,,4974303.0,-0.025,1.063,-0.096,-2.5,-2.2,-0.3,532,821,0,,,,
R,,4974364.0,0.01,1.099,-0.04,-3.8,-0.2,-2.2,496,789,0,,,,
R,,4974425.0,-0.105,0.878,-0.055,-3.1,1.0,-3.1,428,716,0,,,,
R,,4974484.0,-0.242,0.864,0.051,-2.2,0.1,-0.9,407,676,0,,,,
R,,4974543.0,-0.29,0.955,-0.06,-1.1,2.1,-0.2,405,673,0,,,,
R,,4974603.0,-0.29,1.047,-0.031,-1.3,-1.0,-1.6,409,675,0,,,,
R,,4974664.0,-0.265,1.227,0.121,-2.4,-5.1,-4.6,411,681,0,,,,
R,,4974723.0,-0.088,0.95,0.085,-3.5,-4.2,-5.8,408,684,0,,,,
R,,4974784.0,0.039,0.655,0.014,-1.5,-2.6,-3.1,374,691,0,,,,
R,,4974843.0,0.052,0.717,0.072,1.0,0.3,1.5,379,689,0,,,,
R,,4974904.0,-0.19,1.08,0.164,0.3,4.5,1.9,447,687,0,,,,
R,,4974963.0,-0.392,1.166,0.079,-2.2,2.9,-1.7,356,704,0,,,,
R,,4975024.0,-0.275,1.168,0.139,-4.3,2.4,-4.3,357,706,0,,,,
R,,4975083.0,-0.363,1.229,-0.04,-3.4,-0.5,-4.9,425,701,0,,,,
R,,4975145.0,-0.218,0.956,-0.013,0.4,-3.3,-1.3,411,707,0,,,,
R,,4975234.0,0.197,0.272,-0.215,11.9,1.3,12.3,431,711,0,,,,
R,,4975293.0,0.146,0.463,0.09,13.1,-0.9,8.1,412,722,0,,,,
R,calibration,4975353.0,-5.521,4.277,4.81,-0.4,-7.4,-2.5,270,743,9,,,,
R,calibration,4975414.0,-0.112,1.223,-0.203,1.9,8.1,-3.3,427,824,0,,,,
R,calibration,4975473.0,1.015,2.373,-0.299,-0.6,3.2,-0.8,612,834,0,,,,
R,calibration,4975534.0,-0.274,0.935,-0.092,0.7,2.0,-2.2,662,845,0,,,,
R,calibration,4975593.0,-0.17,1.004,-0.183,2.3,-0.7,3.5,669,840,0,,,,
R,calibration,4975654.0,-0.152,0.955,-0.234,3.5,0.1,3.8,642,835,0,,,,
R,calibration,4975713.0,-0.045,0.95,-0.245,2.5,-0.4,2.3,644,832,0,,,,
R,calibration,4975774.0,-0.07,0.979,-0.222,1.1,0.4,1.1,670,825,0,,,,
R,calibration,4975835.0,-0.016,1.011,-0.275,-0.1,-0.6,0.2,677,819,0,,,,
R,calibration,4975893.0,-0.085,0.956,-0.233,0.2,0.1,0.5,674,823,0,,,,
R,calibration,4975954.0,-0.053,0.988,-0.241,0.6,-0.3,0.9,676,821,0,,,,
R,calibration,4976013.0,-0.022,0.909,-0.339,0.4,-0.2,-0.2,687,823,0,,,,
R,calibration,4976074.0,0.047,0.997,-0.243,-1.8,0.4,-1.9,683,825,0,,,,
R,calibration,4976133.0,-0.139,1.108,-0.102,-3.3,0.2,-3.2,675,825,0,,,,
R,calibration,4976194.0,-0.14,0.747,-0.137,-4.5,-2.3,-5.6,643,826,0,,,,
R,calibration,4976253.0,-0.269,0.89,-0.154,-1.7,-1.8,-4.3,674,833,0,,,,
R,calibration,4976314.0,-0.164,0.974,-0.19,-1.1,-4.0,-2.3,663,835,0,,,,
R,calibration,4976374.0,-0.268,1.068,-0.117,0.4,-5.7,2.8,624,833,0,,,,
R,calibration,4976433.0,-0.028,1.44,0.019,1.4,-9.8,6.1,435,831,0,,,,
R,calibration,4976493.0,0.383,1.133,0.572,-2.4,-4.2,2.4,152,737,0,,,,
R,calibration,4976555.0,-1.011,0.595,-0.414,-7.2,15.4,-6.3,269,679,0,,,,
R,calibration,4976614.0,-0.183,1.016,-0.125,-12.5,-12.0,-1.5,346,674,0,,,,
R,calibration,4976673.0,-0.325,0.845,-0.21,-7.5,4.5,-4.4,344,648,0,,,,
R,calibration,4976734.0,-0.207,1.006,-0.113,-3.7,2.7,-1.2,264,700,0,,,,
R,calibration,4976793.0,-0.311,1.041,-0.118,0.4,-0.2,0.4,401,700,0,,,,
R,calibration,4976853.0,-0.121,1.016,0.179,1.9,-4.3,0.2,397,700,0,,,,
R,calibration,4976914.0,-0.077,0.941,0.199,1.1,-3.4,0.6,373,706,0,,,,
R,calibration,4976973.0,-0.16,0.902,0.126,0.1,-2.8,0.5,368,705,0,,,,
R,calibration,4977034.0,-0.111,1.002,0.142,0.1,-0.2,-0.3,372,704,0,,,,
R,calibration,4977093.0,-0.145,0.991,0.072,-0.6,-0.2,-0.5,373,702,0,,,,
R,calibration,4977154.0,-0.162,0.995,0.043,0.2,-1.0,-0.2,415,700,0,,,,
R,calibration,4977213.0,-0.169,0.988,0.077,1.2,-1.5,-0.2,431,701,0,,,,
R,calibration,4977275.0,-0.107,0.969,0.12,0.5,-1.7,0.2,433,702,0,,,,
R,calibration,4977333.0,-0.077,0.909,0.095,0.2,0.8,-0.3,437,693,0,,,,
R,calibration,4977393.0,-0.033,0.928,-0.035,0.4,0.9,0.8,450,675,0,,,,
R,calibration,4977454.0,0.116,0.937,-0.09,2.7,-0.9,3.3,345,680,0,,,,
R,calibration,4977513.0,0.084,1.036,-0.015,6.4,1.5,6.6,335,676,0,,,,
R,calibration,4977574.0,-0.087,1.119,-0.028,7.5,9.4,7.5,323,678,0,,,,
R,calibration,4977633.0,-0.349,0.985,0.062,7.0,10.3,4.2,302,683,0,,,,
R,calibration,4977694.0,-0.62,1.034,-0.027,5.4,-3.3,-0.6,391,713,0,,,,
R,calibration,4977753.0,0.209,1.171,-0.254,1.6,-1.7,-5.1,521,826,0,,,,
R,calibration,4977814.0,-0.163,1.007,-0.116,-0.7,-1.2,-3.7,641,833,0,,,,
R,calibration,4977874.0,-0.081,1.015,-0.123,1.5,1.2,-0.3,680,839,0,,,,
R,calibration,4977935.0,-0.096,0.969,-0.17,2.0,-0.1,1.8,670,841,0,,,,
R,calibration,4977994.0,-0.004,0.983,-0.185,2.0,0.2,1.1,675,839,0,,,,
R,calibration,4978053.0,-0.039,0.981,-0.183,0.8,-0.2,-0.2,660,841,0,,,,
R,calibration,4978114.0,-0.043,0.995,-0.212,0.0,-0.3,-0.8,676,840,0,,,,
R,calibration,4978173.0,-0.047,0.97,-0.16,-0.9,0.4,-1.0,653,839,0,,,,
R,calibration,4978234.0,-0.063,0.996,-0.199,0.6,1.1,0.3,667,839,0,,,,
R,calibration,4978293.0,-0.045,0.955,-0.229,-0.1,1.2,0.1,658,842,0,,,,
R,calibration,4978354.0,-0.013,0.986,-0.199,-0.6,-1.3,0.3,668,841,0,,,,
R,calibration,4978414.0,-0.05,1.019,-0.189,-1.1,-0.7,0.3,669,840,0,,,,
R,calibration,4978473.0,-0.009,1.069,-0.242,-2.8,-1.8,0.1,681,844,0,,,,
R,calibration,4978534.0,0.02,1.138,-0.114,-5.2,-3.2,-0.7,629,839,0,,,,
R,calibration,4978593.0,-0.013,1.076,-0.131,-6.8,-2.1,-0.9,555,825,0,,,,
R,calibration,4978655.0,-0.04,1.03,-0.203,-9.4,0.6,-2.0,328,817,0,,,,
R,calibration,4978713.0,0.198,1.601,-0.638,-18.8,0.0,-7.4,381,772,0,,,,
R,calibration,4978774.0,-0.181,1.191,-0.241,-18.6,12.7,-11.4,355,674,0,,,,
R,calibration,4978833.0,0.02,0.749,-0.956,-6.7,42.1,-12.1,393,637,0,,,,
R,calibration,4978894.0,-0.101,0.532,-0.629,0.0,19.4,2.5,409,661,0,,,,
R,calibration,4978954.0,0.001,0.537,-0.392,5.5,4.8,16.0,423,666,0,,,,
R,calibration,4979013.0,0.169,0.77,-0.208,12.7,12.5,20.9,425,662,0,,,,
R,calibration,4979074.0,-0.472,1.37,-0.311,17.6,14.0,20.4,394,661,0,,,,
R,calibration,4979133.0,-1.251,1.533,-0.016,11.2,10.4,12.6,408,666,0,,,,
R,calibration,4979194.0,-1.279,1.8,0.474,6.4,4.0,-2.6,444,652,0,,,,
R,calibration,4979253.0,-0.048,1.249,-0.571,-5.8,1.8,-19.1,598,773,0,,,,
R,calibration,4979314.0,-0.361,0.814,-0.232,-7.9,-3.5,-12.3,631,839,0,,,,
R,calibration,4979375.0,-0.13,1.091,-0.091,-3.6,-0.2,-7.2,669,844,0,,,,
R,calibration,4979434.0,-0.243,1.024,-0.071,-1.9,-1.9,-1.4,644,843,0,,,,
R,calibration,4979494.0,-0.06,1.301,-0.158,-1.2,-8.0,0.0,495,837,0,,,,
R,calibration,4979583.0,0.18,1.229,-0.232,-7.2,-4.0,-7.1,402,772,0,,,,
R,calibration,4979644.0,0.312,1.499,-0.471,-14.2,-0.3,-17.7,291,763,0,,,,
R,calibration,4979704.0,-0.538,1.326,-0.486,-15.9,6.9,-22.5,249,689,0,,,,
R,calibration,4979763.0,0.747,0.269,-0.694,-4.4,6.5,-2.3,280,656,0,,,,
R,calibration,4979824.0,0.366,0.077,-0.414,7.1,2.7,19.3,341,630,0,,,,
R,calibration,4979883.0,0.292,0.739,-0.184,16.8,4.3,33.9,360,642,0,,,,
R,calibration,4979944.0,-0.886,2.029,-0.06,23.9,18.2,29.3,376,646,0,,,,
R,calibration,4980003.0,-2.767,1.618,0.528,7.9,10.2,3.6,393,658,0,,,,
R,calibration,4980065.0,2.042,1.974,-0.837,-3.2,5.6,-6.3,540,744,0,,,,
R,calibration,4980124.0,-0.701,0.966,0.044,-5.4,3.5,-15.3,651,820,0,,,,
R,calibration,4980184.0,-0.119,1.019,-0.084,-3.0,-1.9,-7.7,673,841,0,,,,
R,calibration,4980244.0,-0.232,1.093,-0.145,-0.9,-4.7,-1.5,654,844,0,,,,
R,calibration,4980303.0,0.021,1.296,-0.111,-1.0,-8.4,-0.1,421,808,0,,,,
R,calibration,4980364.0,0.055,1.067,-0.13,-3.7,-4.8,-3.1,312,703,0,,,,
R,calibration,4980423.0,0.202,1.254,-0.227,-10.9,-1.6,-12.8,285,786,0,,,,
R,calibration,4980484.0,0.58,2.238,-0.383,-16.6,5.9,-23.9,220,787,0,,,,
R,calibration,4980543.0,-0.255,0.867,-0.628,-13.1,9.8,-22.2,303,710,0,,,,
R,calibration,4980604.0,0.503,0.161,-0.67,-4.1,9.6,6.3,259,687,0,,,,
R,calibration,4980664.0,0.223,0.253,-0.406,4.0,3.6,27.3,298,641,0,,,,
R,calibration,4980724.0,0.105,0.793,-0.437,13.9,5.9,34.4,332,645,0,,,,
R,calibration,4980786.0,-0.957,2.041,-0.133,21.7,19.6,28.4,353,635,0,,,,
R,calibration,4980843.0,-2.926,1.31,-0.146,8.1,19.4,3.5,391,658,0,,,,
R,calibration,4980904.0,-0.154,2.198,-0.162,-7.8,0.0,-16.8,589,749,0,,,,
R,calibration,4980963.0,-0.518,0.926,0.169,-4.9,2.8,-14.3,660,823,0,,,,
R,calibration,4981024.0,-0.165,1.122,-0.107,-1.4,-1.6,-7.4,695,842,0,,,,
R,calibration,4981083.0,-0.211,1.057,-0.118,-0.6,-2.8,-2.2,652,842,0,,,,
R,calibration,4981144.0,-0.014,1.274,-0.09,0.0,-7.7,0.3,448,772,0,,,,
R,calibration,4981204.0,0.053,1.025,-0.025,-1.8,-5.6,-2.1,421,791,0,,,,
R,calibration,4981263.0,-0.018,1.045,-0.126,-6.4,-0.5,-7.7,377,771,0,,,,
R,calibration,4981324.0,0.22,1.531,-0.412,-12.7,-3.0,-14.6,370,791,0,,,,
R,calibration,4981383.0,0.462,1.911,-0.448,-17.8,0.0,-26.1,208,622,0,,,,
R,calibration,4981444.0,-0.595,0.681,-0.359,-9.4,6.6,-18.8,245,608,0,,,,
R,calibration,4981505.0,0.265,-0.132,-0.478,-0.7,5.5,13.1,327,609,0,,,,
R,calibration,4981564.0,0.292,0.232,-0.304,9.6,5.5,30.2,343,601,0,,,,
R,calibration,4981624.0,0.046,1.077,-0.676,19.1,6.7,38.1,355,603,0,,,,
R,calibration,4981684.0,-1.143,2.562,-0.321,25.8,19.9,28.8,259,473,0,,,,
R,calibration,4981744.0,-3.046,2.143,-0.102,11.7,7.3,0.7,389,612,0,,,,
R,calibration,4981803.0,-0.771,1.217,0.225,-13.2,5.3,-19.9,593,774,0,,,,
R,calibration,4981864.0,-0.651,0.872,-0.007,-6.4,0.0,-12.8,611,831,0,,,,
R,calibration,4981923.0,-0.035,1.11,-0.115,-3.2,-0.1,-7.5,660,833,0,,,,
R,calibration,4981984.0,-0.205,1.02,-0.127,-2.1,-0.9,-4.4,445,656,0,,,,
R,calibration,4982043.0,-0.117,1.051,-0.07,-1.1,-2.5,-1.4,408,742,0,,,,
R,calibration,4982104.0,-0.135,0.975,-0.129,-0.7,-3.3,-0.8,434,829,0,,,,
R,calibration,4982166.0,-0.096,0.944,-0.061,-1.8,-1.3,-2.4,399,746,0,,,,
R,calibration,4982224.0,-0.042,1.121,-0.092,-4.9,-1.1,-5.2,355,722,0,,,,
R,calibration,4982314.0,0.277,2.013,-0.264,-16.0,-4.8,-14.9,397,776,0,,,,
R,calibration,4982374.0,0.557,1.956,-0.28,-19.1,2.4,-27.0,106,520,0,,,,
R,calibration,4982434.0,-0.265,-0.208,-0.308,-15.9,8.6,-14.7,268,618,0,,,,
R,calibration,4982494.0,-0.041,0.065,-0.27,-10.8,11.8,9.0,293,542,0,,,,
R,calibration,4982554.0,-0.281,0.128,-0.491,0.0,12.9,23.8,282,577,0,,,,
R,calibration,4982614.0,-0.774,0.632,-0.523,9.6,5.6,29.8,345,641,0,,,,
R,calibration,4982673.0,-0.267,1.083,-0.321,14.9,28.0,25.1,400,663,0,,,,
R,calibration,4982733.0,-0.583,1.519,-0.557,11.3,32.1,19.2,410,659,0,,,,
R,calibration,4982793.0,-1.413,1.241,-0.596,7.9,30.5,3.6,406,647,0,,,,
R,calibration,4982854.0,-1.195,1.274,-0.279,4.8,11.8,-7.0,389,629,0,,,,
R,calibration,4982916.0,0.467,1.53,0.124,2.4,-0.8,-11.9,653,808,0,,,,
R,calibration,4982974.0,-0.14,1.094,-0.073,-1.4,2.0,-7.0,619,839,0,,,,
R,calibration,4983034.0,-0.077,1.012,-0.107,1.1,2.3,-1.4,664,849,0,,,,
R,calibration,4983093.0,-0.019,0.95,-0.153,2.5,-1.3,1.3,691,842,0,,,,
R,calibration,4983154.0,-0.021,0.955,-0.219,2.5,-2.6,0.4,686,839,0,,,,
R,calibration,4983213.0,0.0,0.976,-0.279,0.7,0.5,-2.5,696,844,0,,,,
R,calibration,4983274.0,-0.085,1.127,-0.099,-2.0,0.6,-4.3,684,847,0,,,,
R,calibration,4983333.0,-0.078,0.996,-0.16,-1.7,-0.7,-3.1,680,851,0,,,,
R,calibration,4983394.0,-0.127,1.028,-0.245,-0.1,-1.5,-0.1,709,851,0,,,,
R,calibration,4983454.0,-0.099,1.041,-0.19,0.6,-2.6,0.9,668,845,0,,,,
R,calibration,4983514.0,-0.047,0.963,-0.267,-1.2,-2.3,-0.5,544,841,0,,,,
R,calibration,4983576.0,0.025,0.963,-0.191,-5.9,-1.1,-3.9,497,843,0,,,,
R,calibration,4983664.0,0.541,2.507,-0.465,-16.5,-3.1,-14.8,464,805,0,,,,
R,calibration,4983724.0,-0.669,0.757,0.047,-12.6,7.5,-18.1,318,708,0,,,,
R,calibration,4983784.0,-0.035,0.151,-0.176,-2.8,8.1,1.5,395,688,0,,,,
R,calibration,4983844.0,-0.101,0.151,-0.119,3.0,11.1,10.4,383,685,0,,,,
R,calibration,4983904.0,-0.246,0.687,0.004,6.7,10.5,14.9,403,683,0,,,,
R,calibration,4983963.0,-0.371,1.163,-0.09,7.0,15.2,13.7,383,684,0,,,,
R,calibration,4984023.0,-0.574,1.42,-0.137,4.3,8.4,8.3,393,679,0,,,,
R,calibration,4984083.0,-0.287,1.285,-0.078,0.1,-2.0,1.4,371,678,0,,,,
R,calibration,4984144.0,0.183,1.115,-0.006,-1.6,-5.2,-0.8,353,674,0,,,,
R,calibration,4984204.0,0.39,0.804,-0.135,1.4,0.2,1.6,374,665,0,,,,
R,calibration,4984264.0,0.274,0.755,-0.066,5.4,1.2,8.3,378,667,0,,,,
R,calibration,4984326.0,-0.212,1.006,-0.084,5.4,0.2,9.3,377,667,0,,,,
R,calibration,4984383.0,-0.593,1.104,0.003,1.6,-4.9,5.1,384,665,0,,,,
R,calibration,4984444.0,0.587,1.232,-0.37,-2.7,-4.0,-6.8,525,697,0,,,,
R,calibration,4984503.0,0.223,0.763,-0.205,-2.8,-1.8,-10.5,632,766,0,,,,
R,calibration,4984564.0,0.129,1.011,-0.148,-2.8,-2.8,-8.6,667,813,0,,,,
R,calibration,4984624.0,-0.168,1.026,-0.115,-1.5,0.5,-6.6,633,842,0,,,,
R,calibration,4984684.0,-0.179,0.985,-0.108,0.3,-1.0,-3.1,684,847,0,,,,
R,calibration,4984744.0,-0.186,0.981,-0.131,2.5,-1.4,0.6,668,850,0,,,,
R,calibration,4984804.0,-0.058,1.003,-0.242,2.6,-2.6,0.7,646,846,0,,,,
R,calibration,4984864.0,-0.075,0.972,-0.181,1.1,-3.0,-2.0,597,841,0,,,,
R,calibration,4984923.0,-0.081,1.017,-0.237,-1.0,-2.4,-4.1,588,845,0,,,,
R,calibration,4984984.0,-0.148,1.135,-0.184,-2.2,-3.1,-5.8,592,843,0,,,,
R,calibration,4985086.0,-0.164,1.164,-0.166,-4.0,-5.1,-6.5,536,806,0,,,,
R,calibration,4985104.0,-0.097,1.221,-0.164,-4.8,-5.5,-7.1,513,800,0,,,,
R,calibration,4985164.0,0.242,1.482,-0.107,-9.3,-11.1,-13.2,433,797,0,,,,
R,calibration,4985224.0,0.287,1.929,-0.225,-10.8,3.2,-26.5,231,797,0,,,,
R,calibration,4985284.0,-0.339,0.887,-0.405,-7.3,-5.6,-19.5,211,536,0,,,,
R,calibration,4985344.0,0.728,0.141,-0.51,1.3,-8.7,12.2,304,600,0,,,,
R,calibration,4985404.0,0.394,0.482,-0.298,11.3,2.2,31.8,243,597,0,,,,
R,calibration,4985463.0,0.127,1.192,-0.704,21.0,4.1,40.3,275,618,0,,,,
R,calibration,4985524.0,-0.917,2.436,-0.149,26.1,15.3,31.6,341,602,0,,,,
R,calibration,4985583.0,-3.012,1.388,0.944,13.1,11.6,5.9,355,661,0,,,,
R,calibration,4985644.0,0.556,5.845,3.785,-21.3,-11.6,-33.4,539,806,9,,,,
R,calibration,4985706.0,-0.833,0.738,0.309,-7.1,-5.8,-15.5,614,796,0,,,,
R,calibration,4985764.0,-0.208,0.99,-0.092,-3.1,-0.1,-6.2,550,793,0,,,,
R,calibration,4985824.0,-0.147,1.164,-0.132,-1.2,-2.0,-2.8,402,693,0,,,,
R,calibration,4985884.0,-0.088,1.0,-0.141,-1.1,-3.8,-1.5,406,770,0,,,,
R,calibration,4985944.0,-0.109,0.941,-0.108,-2.4,-2.3,-3.4,381,729,0,,,,
R,calibration,4986003.0,-0.157,1.014,-0.167,-4.8,-1.0,-7.4,380,754,0,,,,
R,calibration,4986064.0,0.014,1.504,-0.155,-9.4,-1.7,-12.2,425,790,0,,,,
R,calibration,4986124.0,1.241,3.087,-0.948,-19.8,-8.1,-23.8,176,804,0,,,,
R,calibration,4986184.0,-0.355,0.65,-0.212,-12.6,4.8,-20.1,274,648,0,,,,
R,calibration,4986244.0,0.252,-0.129,0.137,-5.7,-5.8,7.5,296,615,0,,,,
R,calibration,4986333.0,0.076,0.289,-0.208,9.5,6.1,28.2,358,628,0,,,,
R,calibration,4986394.0,-0.597,1.207,0.136,12.9,23.7,25.6,352,665,0,,,,
R,calibration,4986456.0,-0.833,1.585,-0.002,5.5,21.0,20.4,381,677,0,,,,
R,calibration,4986514.0,-0.661,1.332,0.068,0.6,17.6,8.4,384,672,0,,,,
R,calibration,4986574.0,-0.336,1.242,-0.132,-2.7,10.4,-0.2,380,671,0,,,,
R,calibration,4986634.0,-0.027,1.127,-0.058,-4.7,2.1,-1.8,380,660,0,,,,
R,calibration,4986694.0,0.198,0.806,-0.036,-2.7,0.3,0.0,373,658,0,,,,
R,calibration,4986753.0,0.099,0.893,0.008,1.2,3.6,5.1,389,656,0,,,,
R,calibration,4986814.0,-0.396,0.951,0.006,2.5,9.8,1.0,400,642,0,,,,
R,calibration,4986874.0,-0.543,0.685,-0.309,3.2,7.2,-5.9,386,644,0,,,,
R,calibration,4986934.0,0.268,1.435,-0.157,2.8,-1.5,-9.8,572,805,0,,,,
R,calibration,4987024.0,0.04,1.029,-0.005,5.1,-1.1,-2.2,560,843,0,,,,
R,calibration,4987083.0,-0.03,1.01,-0.091,4.8,0.2,0.2,643,846,0,,,,
R,calibration,4987143.0,0.024,0.994,-0.114,4.5,-1.6,1.1,636,850,0,,,,
R,calibration,4987206.0,0.012,0.975,-0.174,3.2,-0.5,-0.6,590,851,0,,,,
R,calibration,4987264.0,0.071,1.016,-0.222,1.2,0.0,-2.2,615,850,0,,,,
R,calibration,4987324.0,-0.062,0.974,-0.134,0.4,0.0,-1.8,698,848,0,,,,
R,calibration,4987384.0,-0.053,0.986,-0.142,1.6,0.2,-0.2,689,849,0,,,,
R,calibration,4987444.0,-0.078,0.973,-0.188,2.1,-0.7,0.6,707,851,0,,,,
R,calibration,4987503.0,-0.026,0.958,-0.241,1.4,-0.5,0.0,703,850,0,,,,
R,calibration,4987564.0,0.0,0.978,-0.245,0.3,0.0,-1.2,707,851,0,,,,
R,calibration,4987654.0,-0.069,0.986,-0.201,-0.4,0.0,-0.5,703,856,0,,,,
R,calibration,4987714.0,-0.082,0.964,-0.197,0.0,0.0,0.3,692,854,0,,,,
R,calibration,4987774.0,-0.027,0.972,-0.198,0.6,0.0,1.3,694,854,0,,,,
R,calibration,4987833.0,-0.026,0.975,-0.232,0.7,0.2,1.5,689,853,0,,,,
R,calibration,4987895.0,0.036,0.984,-0.23,-1.0,0.0,1.0,692,854,0,,,,
R,calibration,4987954.0,-0.002,0.982,-0.242,-2.9,-0.4,0.7,692,856,0,,,,
R,calibration,4988014.0,-0.009,0.996,-0.203,-4.4,-0.5,0.9,702,851,0,,,,
R,calibration,4988074.0,0.021,1.048,-0.222,-6.5,-1.1,1.6,703,851,0,,,,
R,calibration,4988134.0,0.111,1.097,-0.145,-8.8,-2.3,0.1,657,835,0,,,,
R,calibration,4988194.0,0.18,1.314,-0.072,-11.7,0.2,-3.1,543,782,0,,,,
R,calibration,4988254.0,-0.171,1.093,-0.268,-7.4,1.3,-6.2,392,683,0,,,,
R,calibration,4988314.0,0.097,0.702,-0.272,-1.4,12.7,-6.0,432,638,0,,,,
R,calibration,4988374.0,-0.193,0.578,-0.324,4.2,12.1,-3.1,406,647,0,,,,
R,calibration,4988433.0,-0.255,0.625,-0.169,8.0,2.5,1.7,435,655,0,,,,
R,calibration,4988494.0,-0.104,0.947,0.101,11.3,3.0,3.8,445,671,0,,,,
R,calibration,4988554.0,-0.392,1.54,0.763,4.5,-4.3,4.4,355,701,0,,,,
R,calibration,4988616.0,0.038,1.299,0.499,0.3,1.2,-2.2,437,723,0,,,,
R,calibration,4988674.0,0.087,1.132,0.2,-3.1,5.9,-4.3,455,691,0,,,,
R,calibration,4988734.0,0.016,1.024,-0.033,-4.0,2.0,-3.4,448,691,0,,,,
R,calibration,4988793.0,0.087,0.947,0.016,-4.2,-3.4,0.0,453,689,0,,,,
R,calibration,4988854.0,0.134,0.874,-0.015,-1.9,-1.8,2.0,455,691,0,,,,
R,calibration,4988914.0,0.102,0.894,-0.009,0.8,0.0,4.4,455,693,0,,,,
R,calibration,4988974.0,0.016,1.019,-0.031,1.9,-2.1,7.2,461,694,0,,,,
R,calibration,4989034.0,0.02,1.054,-0.032,0.9,-4.5,7.6,463,695,0,,,,
R,calibration,4989094.0,0.069,0.999,-0.028,0.9,-2.4,5.5,469,695,0,,,,
R,calibration,4989154.0,-0.001,0.997,-0.064,0.7,0.1,4.2,459,696,0,,,,
R,calibration,4989214.0,-0.02,0.913,-0.137,1.0,2.9,2.0,465,693,0,,,,
R,calibration,4989274.0,-0.118,0.907,-0.245,1.5,8.2,-0.3,424,693,0,,,,
R,calibration,4989335.0,-0.8,1.277,-0.673,3.2,4.1,-7.0,454,695,0,,,,
R,calibration,4989394.0,0.142,1.037,0.108,2.3,-1.4,-6.2,590,805,0,,,,
R,calibration,4989484.0,0.009,1.018,-0.135,2.8,-1.5,-3.0,669,834,0,,,,
R,calibration,4989544.0,-0.014,0.987,-0.161,3.2,0.2,-2.2,609,845,0,,,,
R,calibration,4989604.0,-0.024,1.006,-0.266,2.2,-1.1,-1.4,641,843,0,,,,
R,calibration,4989664.0,-0.008,0.968,-0.212,1.4,-0.5,-1.7,683,846,0,,,,
R,calibration,4989724.0,-0.056,0.966,-0.183,2.1,-1.0,-0.7,672,843,0,,,,
R,calibration,4989784.0,-0.064,0.988,-0.247,2.2,-0.9,-0.1,661,843,0,,,,
R,calibration,4989844.0,-0.003,0.963,-0.254,2.3,-0.4,-0.3,686,844,0,,,,
R,calibration,4989904.0,-0.029,0.997,-0.287,1.5,-0.4,-0.7,689,847,0,,,,
R,calibration,4989964.0,-0.027,0.963,-0.209,0.3,0.0,-1.4,687,848,0,,,,
R,calibration,4990026.0,-0.085,0.966,-0.292,-0.5,0.4,-1.9,684,848,0,,,,
R,calibration,4990084.0,-0.023,0.985,-0.147,-1.8,-0.1,-2.1,640,852,0,,,,
R,calibration,4990144.0,-0.096,0.926,-0.243,-1.9,-0.4,-2.7,680,849,0,,,,
R,calibration,4990204.0,-0.132,0.987,-0.355,0.0,0.6,-2.6,710,847,0,,,,
R,calibration,4990264.0,-0.146,0.895,-0.149,0.0,0.5,-0.4,712,848,0,,,,
R,calibration,4990324.0,-0.157,0.967,-0.246,1.3,0.0,0.7,626,855,0,,,,
R,calibration,4990384.0,-0.115,0.982,-0.266,0.9,-0.2,0.6,618,858,0,,,,
R,calibration,4990444.0,-0.109,0.959,-0.262,0.3,0.0,0.7,694,852,0,,,,
R,calibration,4990504.0,-0.093,0.955,-0.242,-0.1,-0.5,0.0,701,854,0,,,,
R,calibration,4990564.0,-0.099,0.953,-0.263,0.1,-0.7,-0.9,699,854,0,,,,
R,calibration,4990624.0,-0.141,0.929,-0.205,-0.7,-0.5,0.0,703,854,0,,,,
R,calibration,4990684.0,-0.132,0.969,-0.228,1.3,-0.7,1.6,714,854,0,,,,
R,calibration,4990746.0,-0.049,0.964,-0.257,0.7,-0.8,1.2,682,853,0,,,,
R,calibration,4990804.0,-0.083,0.958,-0.265,0.3,-0.3,1.1,688,854,0,,,,
R,calibration,4990864.0,-0.063,0.965,-0.276,0.2,-0.2,0.8,689,856,0,,,,
R,calibration,4990924.0,-0.058,0.955,-0.266,-0.4,-0.5,0.5,689,857,0,,,,
R,calibration,4990984.0,-0.067,0.971,-0.274,-0.9,-0.4,0.7,671,857,0,,,,
R,calibration,4991044.0,-0.053,0.97,-0.258,-1.2,-0.3,1.0,710,854,0,,,,
R,calibration,4991104.0,-0.045,0.985,-0.255,-1.1,0.2,1.2,718,854,0,,,,
R,calibration,4991164.0,-0.038,0.996,-0.251,-2.2,0.3,1.9,710,849,0,,,,
R,calibration,4991224.0,-0.016,0.958,-0.166,-2.2,-0.6,1.5,680,838,0,,,,
R,calibration,4991284.0,0.02,0.968,-0.184,-1.7,-1.1,1.3,691,825,0,,,,
R,calibration,4991344.0,0.0,0.979,-0.178,-1.5,-0.9,0.9,690,827,0,,,,
R,calibration,4991406.0,0.077,1.026,-0.129,-1.7,-1.1,0.0,671,828,0,,,,
R,calibration,4991464.0,0.076,1.094,-0.234,-3.5,-1.5,-1.9,624,817,0,,,,
R,calibration,4991524.0,0.184,1.31,-0.118,-6.1,1.0,-4.9,535,790,0,,,,
R,calibration,4991584.0,0.013,1.156,-0.167,-5.8,-0.3,-5.9,482,689,0,,,,
R,calibration,4991644.0,0.482,0.758,-0.39,-1.4,5.5,-1.4,460,655,0,,,,
R,calibration,4991704.0,0.313,0.57,-0.244,4.3,1.1,8.2,421,666,0,,,,
R,calibration,4991764.0,0.111,0.626,-0.145,8.9,2.1,15.2,418,693,0,,,,
R,calibration,4991824.0,-0.311,0.956,0.121,9.9,5.6,14.4,499,688,0,,,,
R,calibration,4991884.0,-0.613,2.169,0.905,-0.4,8.9,-4.5,532,662,0,,,,
R,calibration,4991944.0,0.216,1.31,-0.162,-2.5,-3.2,-4.0,570,733,0,,,,
R,calibration,4992004.0,0.15,1.668,-0.185,-7.3,-5.1,-5.9,505,687,0,,,,
R,calibration,4992064.0,0.295,0.709,-0.079,-2.2,-1.4,-7.8,532,688,0,,,,
R,calibration,4992125.0,1.14,-0.549,-0.218,4.0,12.8,5.9,535,698,0,,,,
R,calibration,4992184.0,-1.973,1.668,1.176,6.8,6.4,11.0,525,662,0,,,,
R,calibration,4992244.0,0.241,0.967,-0.105,0.7,-2.6,0.0,615,747,0,,,,
R,calibration,4992304.0,0.209,1.004,-0.196,0.2,-5.3,2.4,624,758,0,,,,
R,calibration,4992364.0,0.197,0.956,-0.179,0.2,-3.6,2.0,612,749,0,,,,
R,calibration,4992424.0,0.288,1.035,-0.162,-1.2,-6.5,0.3,572,728,0,,,,
R,calibration,4992484.0,-0.414,1.426,0.275,-7.9,-3.6,-10.8,552,725,0,,,,
R,calibration,4992544.0,-0.056,1.084,-0.042,-9.7,0.9,-16.5,558,715,0,,,,
R,calibration,4992604.0,0.155,0.928,-0.168,-8.1,-1.5,-14.0,564,721,0,,,,
R,calibration,4992665.0,0.462,0.764,-0.136,-4.9,-0.9,-8.7,570,719,0,,,,
R,calibration,4992724.0,0.349,0.986,-0.235,-1.1,0.3,-2.8,572,723,0,,,,
R,calibration,4992784.0,-0.015,1.307,-0.092,0.2,-2.0,-1.0,579,724,0,,,,
R,calibration,4992845.0,0.131,1.005,0.012,-2.1,-3.2,-3.7,580,727,0,,,,
R,calibration,4992904.0,1.241,-0.11,-0.361,8.8,9.4,11.3,581,726,0,,,,
R,calibration,4992964.0,-0.098,2.054,-0.857,12.9,3.7,26.3,554,703,0,,,,
R,calibration,4993024.0,-0.372,1.285,-0.105,0.3,-3.7,-3.9,585,757,0,,,,
R,calibration,4993084.0,-0.426,1.501,0.065,-4.3,-0.7,-8.1,527,722,0,,,,
R,calibration,4993144.0,0.115,1.121,0.142,-6.6,-2.4,-11.5,558,735,0,,,,
R,calibration,4993204.0,2.286,-1.252,-0.104,3.7,14.6,9.7,573,736,0,,,,
R,calibration,4993264.0,-14.451,7.948,-0.797,12.3,11.3,6.0,491,753,9,,,,
R,calibration,4993324.0,0.373,0.777,-0.2,3.9,0.1,0.1,615,786,0,,,,
R,calibration,4993384.0,-0.183,1.06,-0.063,4.3,1.1,-2.5,618,794,0,,,,
R,calibration,4993444.0,0.061,1.008,-0.231,2.2,-2.3,-1.4,574,810,0,,,,
R,calibration,4993505.0,-0.045,0.926,-0.266,1.8,0.4,-2.4,616,822,0,,,,
R,calibration,4993564.0,-0.029,0.982,-0.188,1.5,0.1,-1.1,617,831,0,,,,
R,calibration,4993625.0,-0.046,0.971,-0.167,1.9,-0.7,0.0,656,837,0,,,,
R,calibration,4993684.0,-0.048,0.969,-0.236,2.2,-0.6,0.3,615,843,0,,,,
R,calibration,4993744.0,-0.026,0.973,-0.254,1.6,-1.1,0.1,642,840,0,,,,
R,calibration,4993804.0,-0.058,0.961,-0.264,1.0,-0.6,-0.3,645,839,0,,,,
R,calibration,4993864.0,-0.039,0.981,-0.263,0.6,-1.1,-0.3,595,842,0,,,,
R,calibration,4993924.0,-0.043,0.964,-0.264,0.0,-0.6,-0.3,640,841,0,,,,
R,calibration,4993984.0,-0.026,0.969,-0.277,0.4,-0.5,0.0,642,843,0,,,,
R,calibration,4994044.0,-0.055,0.952,-0.295,0.3,-0.9,0.0,644,840,0,,,,
R,calibration,4994104.0,-0.052,0.993,-0.235,0.4,-2.2,0.0,605,846,0,,,,
R,calibration,4994165.0,-0.066,1.014,-0.182,0.6,-0.5,-0.6,502,855,0,,,,
R,calibration,4994226.0,-0.09,0.982,-0.262,-1.0,-0.2,-1.1,546,856,0,,,,
R,calibration,4994284.0,-0.058,0.981,-0.335,-2.8,0.0,-1.4,612,854,0,,,,
R,calibration,4994344.0,-0.133,0.947,-0.188,-1.9,0.4,-1.8,627,852,0,,,,
R,calibration,4994404.0,-0.106,1.038,-0.277,-0.7,0.5,-1.8,640,853,0,,,,
R,calibration,4994464.0,-0.101,0.936,-0.108,-0.4,0.7,0.0,651,851,0,,,,
R,calibration,4994524.0,-0.133,0.969,-0.212,1.4,0.1,0.8,628,852,0,,,,
R,calibration,4994584.0,-0.087,0.985,-0.262,0.0,-0.4,0.2,633,851,0,,,,
R,calibration,4994644.0,-0.106,0.97,-0.222,-1.0,-0.7,-0.2,641,856,0,,,,
R,calibration,4994705.0,-0.093,0.943,-0.177,-0.5,-0.6,-0.2,638,851,0,,,,
R,calibration,4994764.0,-0.102,1.086,-0.319,-1.3,-0.4,-0.4,638,852,0,,,,
R,calibration,4994824.0,-0.072,0.97,-0.15,0.0,0.6,0.3,637,852,0,,,,
R,calibration,4994884.0,-0.066,0.97,-0.208,0.2,-0.9,0.6,641,851,0,,,,
R,calibration,4994946.0,-0.087,0.958,-0.199,0.9,-1.2,0.3,644,852,0,,,,
R,calibration,4995004.0,-0.077,0.998,-0.214,0.1,-0.7,0.3,662,852,0,,,,
R,calibration,4995064.0,-0.111,0.975,-0.169,0.7,-1.3,-0.2,656,852,0,,,,
R,calibration,4995125.0,-0.09,0.974,-0.203,0.1,-0.7,0.0,658,853,0,,,,
R,calibration,4995184.0,-0.085,0.976,-0.23,0.8,-0.2,-0.2,665,858,0,,,,
R,calibration,4995245.0,-0.085,0.98,-0.226,0.4,-0.5,0.3,659,853,0,,,,
R,calibration,4995304.0,-0.081,0.973,-0.221,0.4,-0.7,0.2,661,854,0,,,,
R,calibration,4995364.0,-0.064,0.973,-0.236,0.3,-0.2,0.0,668,854,0,,,,
R,calibration,4995424.0,-0.072,0.97,-0.213,0.0,-0.4,0.0,666,858,0,,,,
R,calibration,4995484.0,-0.092,0.961,-0.177,0.2,-0.1,0.0,669,857,0,,,,
R,calibration,4995544.0,-0.09,0.969,-0.225,0.9,-0.3,0.2,669,858,0,,,,
R,calibration,4995606.0,-0.079,0.955,-0.238,0.5,-0.4,0.1,670,858,0,,,,
R,calibration,4995665.0,-0.065,0.966,-0.251,0.4,-0.4,0.0,671,858,0,,,,
R,calibration,4995724.0,-0.067,0.971,-0.245,0.3,-0.4,0.0,674,860,0,,,,
R,calibration,4995785.0,-0.076,0.973,-0.234,-0.1,-0.4,-0.1,672,857,0,,,,
R,calibration,4995844.0,-0.062,0.967,-0.241,0.0,-0.3,-0.2,685,854,0,,,,
R,calibration,4995904.0,-0.07,0.964,-0.222,-0.1,-0.3,-0.2,684,860,0,,,,
R,calibration,4995963.0,-0.068,0.981,-0.264,-0.1,-0.3,-0.4,662,858,0,,,,
R,calibration,4996024.0,-0.081,0.97,-0.2,0.0,-0.2,-0.2,666,857,0,,,,
R,calibration,4996084.0,-0.092,0.966,-0.255,0.3,-0.2,0.4,671,857,0,,,,
R,calibration,4996144.0,-0.06,0.969,-0.262,-0.2,-0.4,0.1,666,859,0,,,,
R,calibration,4996205.0,-0.073,0.984,-0.265,-0.8,-0.6,0.1,694,858,0,,,,
R,calibration,4996264.0,-0.072,0.955,-0.21,-0.6,-0.8,0.0,698,858,0,,,,
R,calibration,4996326.0,-0.042,0.967,-0.205,-0.4,0.9,-0.7,704,862,0,,,,
R,calibration,4996384.0,-0.079,0.96,-0.223,-0.9,0.1,0.2,684,857,0,,,,
R,calibration,4996444.0,-0.074,0.969,-0.193,0.1,0.7,0.8,687,854,0,,,,
R,calibration,4996504.0,-0.023,0.963,-0.253,0.2,-0.4,0.5,702,849,0,,,,
R,calibration,4996564.0,-0.037,0.979,-0.241,-0.9,-0.7,-0.2,683,852,0,,,,
R,calibration,4996625.0,-0.056,0.98,-0.187,-0.7,-0.8,-0.2,682,852,0,,,,
R,calibration,4996684.0,-0.06,0.975,-0.2,0.1,-0.7,0.0,704,853,0,,,,
R,calibration,4996745.0,-0.048,0.982,-0.201,0.2,-0.5,0.0,720,851,0,,,,
R,calibration,4996804.0,-0.059,0.968,-0.205,0.0,0.0,-0.1,723,854,0,,,,
R,calibration,4996864.0,-0.059,0.98,-0.201,0.3,-0.3,0.0,720,852,0,,,,
R,calibration,4996924.0,-0.048,0.973,-0.204,0.5,-0.3,-0.1,723,854,0,,,,
R,calibration,4996984.0,-0.068,0.971,-0.215,0.7,-0.3,-0.1,722,852,0,,,,
R,calibration,4997045.0,-0.092,0.978,-0.214,1.2,-1.4,0.0,725,853,0,,,,
R,calibration,4997104.0,-0.057,0.973,-0.209,1.4,-1.2,0.3,728,854,0,,,,
R,calibration,4997165.0,-0.042,0.955,-0.219,0.7,-0.6,0.0,729,855,0,,,,
R,calibration,4997224.0,-0.063,0.972,-0.291,0.1,0.2,-0.6,729,853,0,,,,
R,calibration,4997285.0,-0.062,0.988,-0.266,0.1,-0.7,-0.2,728,855,0,,,,
R,calibration,4997344.0,-0.072,0.98,-0.289,0.0,-1.1,0.1,733,856,0,,,,
R,calibration,4997404.0,-0.018,0.996,-0.24,0.5,0.0,-0.3,732,856,0,,,,
R,calibration,4997464.0,-0.061,0.973,-0.255,-0.5,-0.7,0.3,735,855,0,,,,
R,calibration,4997524.0,-0.073,0.96,-0.224,0.0,-0.9,0.2,734,855,0,,,,
R,calibration,4997584.0,-0.02,0.982,-0.249,0.0,-1.2,0.0,734,856,0,,,,
R,calibration,4997644.0,-0.065,0.949,-0.24,-0.3,-0.5,-0.3,735,856,0,,,,
R,calibration,4997706.0,-0.06,0.97,-0.242,0.4,-0.4,0.0,738,856,0,,,,
R,calibration,4997764.0,-0.062,0.964,-0.252,0.1,-0.3,0.0,738,861,0,,,,
R,calibration,4997825.0,-0.057,0.97,-0.243,0.0,-0.3,-0.1,736,857,0,,,,
R,calibration,4997884.0,-0.053,0.968,-0.264,0.1,0.0,-0.2,739,857,0,,,,
R,calibration,4997944.0,-0.055,0.974,-0.235,0.0,-0.3,-0.2,738,856,0,,,,
R,calibration,4998004.0,-0.062,0.967,-0.238,0.1,-0.3,-0.2,738,858,0,,,,
R,calibration,4998064.0,-0.067,0.962,-0.259,0.2,-0.2,-0.1,740,858,0,,,,
R,calibration,4998125.0,-0.055,0.961,-0.247,0.2,-0.4,-0.1,738,857,0,,,,
R,calibration,4998184.0,-0.078,0.96,-0.258,0.2,-0.4,0.0,739,858,0,,,,
R,calibration,4998245.0,-0.063,0.968,-0.235,0.3,-0.3,-0.4,732,860,0,,,,
R,calibration,4998304.0,-0.053,0.978,-0.274,0.3,-0.2,-0.2,684,861,0,,,,
R,calibration,4998365.0,-0.09,1.002,-0.306,-0.3,-0.8,-0.3,715,858,0,,,,
R,calibration,4998426.0,-0.061,0.937,-0.238,-0.7,-0.8,-0.7,721,858,0,,,,
R,calibration,4998484.0,-0.039,1.056,-0.138,-0.6,-0.1,-0.7,723,858,0,,,,
R,calibration,4998544.0,-0.079,0.974,-0.195,-0.3,-0.1,0.1,720,859,0,,,,
R,calibration,4998604.0,-0.064,0.957,-0.244,0.5,-0.5,0.2,719,857,0,,,,
R,calibration,4998665.0,-0.079,0.958,-0.257,0.0,-0.3,-0.3,718,859,0,,,,
R,calibration,4998724.0,-0.08,0.979,-0.237,0.3,-0.2,-0.1,717,859,0,,,,
R,calibration,4998785.0,-0.076,0.975,-0.269,0.3,-0.6,-0.1,720,856,0,,,,
R,calibration,4998844.0,-0.082,0.958,-0.234,0.0,-0.4,-0.1,724,861,0,,,,
R,calibration,4998905.0,-0.083,0.964,-0.256,0.5,-0.2,0.0,723,858,0,,,,
R,calibration,4998964.0,-0.07,0.967,-0.261,0.3,-0.3,0.0,725,856,0,,,,
R,calibration,4999024.0,-0.067,0.972,-0.252,0.0,-0.5,-0.1,726,859,0,,,,
R,calibration,4999085.0,-0.09,0.957,-0.25,0.0,-0.4,-0.1,725,860,0,,,,
R,calibration,4999144.0,-0.085,0.963,-0.272,0.0,-0.4,-0.3,725,858,0,,,,
R,calibration,4999205.0,-0.081,0.96,-0.279,0.0,-0.4,-0.3,726,857,0,,,,
R,calibration,4999264.0,-0.087,0.978,-0.243,0.1,-0.2,-0.6,727,858,0,,,,
R,calibration,4999325.0,-0.089,0.97,-0.247,-0.2,-0.5,-0.2,729,858,0,,,,
R,calibration,4999384.0,-0.101,1.0,-0.273,-0.4,-0.6,0.0,734,862,0,,,,
R,calibration,4999444.0,-0.062,0.95,-0.191,-0.7,-1.2,-0.3,732,859,0,,,,
R,calibration,4999504.0,-0.089,0.859,-0.218,-1.1,-1.6,0.0,720,854,0,,,,
R,calibration,4999564.0,-0.103,0.935,-0.147,0.2,-0.6,0.4,710,855,0,,,,
R,calibration,4999625.0,-0.081,0.983,-0.261,0.6,-0.8,0.5,719,854,0,,,,
R,calibration,4999684.0,-0.089,0.969,-0.257,0.1,0.0,0.0,724,856,0,,,,
R,calibration,4999745.0,-0.079,0.979,-0.219,0.3,-0.2,0.0,726,856,0,,,,
R,calibration,4999806.0,-0.091,0.963,-0.245,0.5,-0.2,0.2,728,856,0,,,,
R,calibration,4999865.0,-0.068,0.974,-0.241,0.6,-0.2,0.2,729,857,0,,,,
R,calibration,4999924.0,-0.08,0.969,-0.248,0.8,-0.2,0.1,731,857,0,,,,
R,calibration,4999984.0,-0.084,0.965,-0.247,0.9,-0.3,0.1,732,859,0,,,,
R,calibration,5000044.0,-0.073,0.955,-0.259,1.1,-0.3,0.3,731,858,0,,,,
R,calibration,5000104.0,-0.065,0.951,-0.284,1.2,-0.3,0.3,735,857,0,,,,
R,calibration,5000165.0,-0.059,0.965,-0.29,0.9,-0.1,0.1,735,857,0,,,,
R,calibration,5000224.0,-0.059,0.958,-0.285,0.4,-0.2,0.0,738,859,0,,,,
R,calibration,5000285.0,-0.062,0.965,-0.283,0.0,-0.6,0.0,739,861,0,,,,
R,calibration,5000344.0,-0.056,0.96,-0.303,-0.5,-0.6,0.0,740,860,0,,,,
R,calibration,5000405.0,-0.069,0.946,-0.285,-1.0,-0.8,-0.2,743,859,0,,,,
R,calibration,5000464.0,-0.038,0.965,-0.258,-0.4,-0.7,-0.9,742,859,0,,,,
R,calibration,5000526.0,-0.08,0.901,-0.268,-1.4,-0.3,-0.9,741,859,0,,,,
R,calibration,5000584.0,-0.117,0.955,-0.224,-0.7,-0.4,-0.5,740,859,0,,,,
R,calibration,5000644.0,-0.084,0.993,-0.267,-0.4,-0.9,0.1,738,860,0,,,,
R,calibration,5000705.0,-0.097,0.958,-0.249,-1.8,-1.2,-0.1,736,857,0,,,,
R,calibration,5000764.0,-0.066,0.992,-0.24,-2.2,-1.0,-0.2,691,859,0,,,,
R,calibration,5000825.0,-0.055,0.995,-0.236,-3.4,-2.0,-0.8,687,856,0,,,,
R,calibration,5000884.0,-0.085,1.022,-0.153,-4.4,-2.1,-2.1,667,849,0,,,,
R,calibration,5000945.0,-0.063,1.167,-0.253,-6.4,-2.4,-2.8,570,844,0,,,,
R,calibration,5001004.0,0.108,1.451,-0.149,-9.7,-3.5,-6.6,515,826,0,,,,
R,calibration,5001064.0,0.384,1.548,-0.321,-12.5,2.5,-13.4,444,749,0,,,,
R,calibration,5001125.0,-0.459,0.396,-0.085,-5.6,3.2,-11.9,322,675,0,,,,
R,calibration,5001186.0,0.026,0.493,-0.303,1.2,4.1,3.9,386,647,0,,,,
R,calibration,5001245.0,0.027,0.305,-0.137,7.3,0.1,12.2,399,663,0,,,,
R,calibration,5001304.0,0.025,0.334,0.04,12.8,-0.1,21.5,454,668,0,,,,
R,calibration,5001365.0,-0.106,1.21,0.18,15.5,7.8,22.3,491,683,0,,,,
R,calibration,5001424.0,0.156,1.959,0.117,-2.4,5.8,-10.1,539,712,0,,,,
R,calibration,5001485.0,-0.118,1.282,-0.153,-0.3,0.5,-3.2,626,750,0,,,,
R,calibration,5001544.0,0.101,0.982,-0.201,-0.8,-0.9,-0.2,634,766,0,,,,
R,calibration,5001604.0,0.116,1.022,-0.137,0.4,-0.9,0.3,645,779,0,,,,
R,calibration,5001665.0,0.129,0.982,-0.244,0.1,-0.2,0.0,659,791,0,,,,
R,calibration,5001724.0,0.175,0.962,-0.22,-0.4,0.5,-0.1,654,786,0,,,,
R,calibration,5001785.0,0.101,1.009,-0.205,-1.4,-0.4,-0.2,648,774,0,,,,
R,calibration,5001844.0,0.097,1.001,-0.153,-1.4,-0.8,-0.4,633,761,0,,,,
R,calibration,5001906.0,0.186,0.966,-0.183,-1.8,-2.3,-1.5,584,723,0,,,,
R,calibration,5001964.0,-0.203,1.188,0.008,-4.2,-2.9,-5.1,512,702,0,,,,
R,calibration,5002024.0,-0.091,1.009,-0.029,-4.7,-5.0,-6.5,498,692,0,,,,
R,calibration,5002084.0,-0.037,0.957,-0.069,-4.6,-7.2,-4.3,504,687,0,,,,
R,calibration,5002144.0,-0.031,0.867,-0.146,-2.9,-8.2,-2.7,517,684,0,,,,
R,calibration,5002205.0,0.069,0.641,-0.252,0.6,-6.6,-0.8,522,686,0,,,,
R,calibration,5002264.0,0.262,0.595,-0.346,6.8,-4.3,6.5,477,702,0,,,,
R,calibration,5002325.0,-0.853,3.368,2.427,0.4,-6.0,1.2,572,707,9,,,,
R,calibration,5002384.0,-0.078,0.82,-0.088,3.3,3.0,-1.3,635,759,0,,,,
R,calibration,5002445.0,-0.153,0.999,-0.055,1.8,-1.2,0.3,614,772,0,,,,
R,calibration,5002504.0,0.059,0.985,-0.256,2.6,0.6,-0.7,647,781,0,,,,
R,calibration,5002564.0,0.037,0.986,-0.129,1.2,-0.8,-1.3,625,795,0,,,,
R,calibration,5002626.0,-0.029,1.018,-0.19,1.8,0.4,-1.3,630,819,0,,,,
R,calibration,5002684.0,-0.047,1.002,-0.219,1.1,-0.8,-0.5,686,830,0,,,,
R,calibration,5002745.0,-0.063,0.988,-0.198,1.4,-0.3,0.9,654,838,0,,,,
R,calibration,5002804.0,0.009,0.974,-0.248,1.4,-1.5,1.7,685,839,0,,,,
R,calibration,5002865.0,0.024,0.946,-0.242,0.6,-2.2,0.3,679,841,0,,,,
R,calibration,5002924.0,0.008,1.0,-0.28,0.0,-1.1,-0.9,693,839,0,,,,
R,calibration,5002985.0,-0.026,0.96,-0.231,-2.7,-1.2,-1.2,690,840,0,,,,
R,calibration,5003044.0,-0.068,0.955,-0.158,-0.3,-0.9,-0.2,676,839,0,,,,
R,calibration,5003104.0,0.005,0.98,-0.232,-0.2,-1.3,0.1,689,841,0,,,,
R,calibration,5003165.0,-0.042,0.954,-0.228,-0.6,-1.0,-0.1,682,841,0,,,,
R,calibration,5003224.0,-0.006,0.995,-0.192,-0.3,-0.8,0.3,700,842,0,,,,
R,calibration,5003286.0,-0.021,0.984,-0.215,-0.4,-1.1,0.5,655,844,0,,,,
R,calibration,5003344.0,-0.017,0.99,-0.209,-0.9,-0.8,0.6,712,842,0,,,,
R,calibration,5003405.0,0.007,1.011,-0.218,-2.2,-0.8,-0.2,710,842,0,,,,
R,calibration,5003464.0,0.036,1.057,-0.252,-5.3,-1.3,-2.6,688,839,0,,,,
R,calibration,5003525.0,0.072,1.249,-0.168,-8.4,-1.6,-5.7,600,813,0,,,,
R,calibration,5003584.0,0.069,1.257,-0.021,-9.4,-0.4,-8.7,508,756,0,,,,
R,calibration,5003644.0,0.01,0.743,-0.157,-5.2,0.7,-7.1,513,684,0,,,,
R,calibration,5003705.0,0.108,0.711,-0.17,0.5,4.5,0.9,515,687,0,,,,
R,calibration,5003764.0,0.1,0.703,-0.093,4.0,2.7,7.4,529,693,0,,,,
R,calibration,5003825.0,0.174,0.682,-0.128,7.8,4.2,12.7,540,704,0,,,,
R,calibration,5003884.0,0.362,0.811,-0.16,12.5,7.9,20.0,546,713,0,,,,
R,calibration,5003945.0,-1.915,1.701,-0.037,2.9,9.5,-4.5,592,722,0,,,,
R,calibration,5004006.0,0.039,0.989,-0.129,0.8,3.8,-1.0,629,756,0,,,,
R,calibration,5004065.0,0.085,1.002,-0.21,0.7,0.0,-0.5,641,768,0,,,,
R,calibration,5004125.0,0.136,1.03,-0.198,-0.1,-0.9,0.0,647,773,0,,,,
R,calibration,5004226.0,-0.016,1.147,-0.049,-1.5,-2.9,-2.7,619,744,0,,,,
R,calibration,5004245.0,0.097,1.091,-0.135,-2.1,-2.3,-3.3,600,734,0,,,,
R,calibration,5004304.0,-0.546,1.347,0.326,-6.0,-1.2,-11.6,550,712,0,,,,
R,calibration,5004365.0,-0.227,1.004,0.106,-7.6,1.4,-13.9,547,713,0,,,,
R,calibration,5004424.0,0.073,0.739,-0.086,-4.8,-1.0,-9.6,551,711,0,,,,
R,calibration,5004514.0,0.932,0.615,-0.611,3.8,4.4,7.8,536,730,0,,,,
R,calibration,5004575.0,0.037,1.247,-0.044,5.5,-2.8,5.6,564,792,0,,,,
R,calibration,5004634.0,0.098,1.121,-0.177,4.6,-0.6,1.5,625,824,0,,,,
R,calibration,5004695.0,-0.104,1.006,-0.252,2.5,0.0,-0.3,655,833,0,,,,
R,calibration,5004756.0,-0.107,0.99,-0.197,1.5,0.8,-1.1,705,838,0,,,,
R,calibration,5004815.0,-0.118,0.985,-0.172,1.2,0.0,0.2,699,845,0,,,,
R,calibration,5004875.0,-0.103,0.986,-0.25,1.1,-0.5,0.9,705,847,0,,,,
R,calibration,5004934.0,-0.026,0.993,-0.259,-0.1,-0.7,-0.4,708,846,0,,,,
R,calibration,5004995.0,-0.044,0.957,-0.2,-1.8,0.1,-2.0,700,847,0,,,,
R,calibration,5005054.0,-0.129,0.955,-0.136,-0.3,0.3,-1.3,681,844,0,,,,
R,calibration,5005115.0,-0.057,1.031,-0.204,0.7,-0.5,-0.3,682,847,0,,,,
R,calibration,5005174.0,-0.134,0.935,-0.165,0.4,-0.8,-0.3,680,848,0,,,,
R,calibration,5005235.0,-0.126,0.968,-0.199,1.4,-0.5,0.7,685,850,0,,,,
R,calibration,5005294.0,-0.102,0.992,-0.247,1.1,-0.5,1.2,685,851,0,,,,
R,calibration,5005355.0,-0.111,0.972,-0.238,1.0,-0.5,1.2,698,852,0,,,,
R,calibration,5005416.0,-0.078,0.984,-0.249,0.5,-0.7,1.1,699,853,0,,,,
R,calibration,5005474.0,-0.062,0.977,-0.226,0.0,-0.9,0.7,722,852,0,,,,
R,calibration,5005535.0,-0.049,0.986,-0.243,-0.3,-0.7,0.8,707,854,0,,,,
R,calibration,5005594.0,-0.039,1.059,-0.32,-2.4,-0.3,0.1,706,854,0,,,,
R,calibration,5005655.0,-0.012,1.037,-0.228,-5.5,-0.2,-1.3,686,850,0,,,,
R,calibration,5005714.0,-0.008,1.205,-0.208,-8.3,-0.6,-4.3,600,833,0,,,,
R,calibration,5005775.0,0.044,1.217,-0.185,-9.6,-1.1,-7.9,541,764,0,,,,
R,calibration,5005834.0,0.306,0.529,-0.088,-3.5,6.2,-4.0,505,683,0,,,,
R,calibration,5005895.0,0.29,0.577,-0.278,3.2,6.3,7.3,519,696,0,,,,
R,calibration,5005985.0,0.031,0.781,-0.171,9.8,6.7,16.2,528,703,0,,,,
R,calibration,5006044.0,-1.687,1.745,1.182,7.1,8.3,11.5,554,704,0,,,,
R,calibration,5006105.0,0.094,0.951,-0.032,-0.5,-3.4,0.4,623,749,0,,,,
R,calibration,5006166.0,0.209,0.98,-0.168,-0.1,-1.0,0.0,632,761,0,,,,
R,calibration,5006224.0,0.151,0.991,-0.179,-1.1,-1.3,0.3,643,766,0,,,,
R,calibration,5006285.0,0.156,1.015,-0.183,-1.7,-2.8,-1.9,616,743,0,,,,
R,calibration,5006344.0,-0.644,1.257,0.098,-3.3,-4.8,-6.6,558,711,0,,,,
R,calibration,5006405.0,-0.334,1.049,0.019,-5.5,-3.3,-10.8,560,714,0,,,,
R,calibration,5006464.0,-0.137,0.867,-0.115,-3.8,-3.6,-9.6,555,712,0,,,,
R,calibration,5006525.0,0.347,0.552,-0.206,1.2,-3.2,-4.8,553,713,0,,,,
R,calibration,5006584.0,0.187,1.248,-0.202,6.2,-2.1,7.1,563,746,0,,,,
R,calibration,5006645.0,0.178,1.344,-0.145,3.8,-0.2,1.7,617,806,0,,,,
R,calibration,5006705.0,-0.109,0.932,-0.14,2.6,-1.2,0.0,655,823,0,,,,
R,calibration,5006764.0,-0.059,1.044,-0.186,2.7,0.6,-0.1,682,837,0,,,,
R,calibration,5006826.0,-0.074,0.997,-0.225,2.0,0.2,-0.3,683,843,0,,,,
R,calibration,5006884.0,-0.093,0.987,-0.236,1.7,-0.3,0.1,688,846,0,,,,
R,calibration,5006945.0,-0.083,0.973,-0.225,1.4,-0.7,0.6,695,849,0,,,,
R,calibration,5007004.0,-0.04,0.973,-0.251,0.9,-0.5,0.2,712,849,0,,,,
R,calibration,5007065.0,-0.032,0.982,-0.236,0.1,-0.3,-0.5,703,850,0,,,,
R,calibration,5007125.0,-0.089,0.968,-0.214,-0.9,-0.5,-0.5,708,853,0,,,,
R,calibration,5007185.0,-0.073,0.947,-0.235,0.2,-0.7,-0.2,708,851,0,,,,
R,calibration,5007245.0,-0.052,0.97,-0.21,0.2,-0.7,0.0,711,850,0,,,,
R,calibration,5007304.0,-0.101,0.968,-0.231,-0.1,-0.3,0.1,705,849,0,,,,
R,calibration,5007365.0,-0.079,0.967,-0.245,0.0,-0.5,0.3,713,852,0,,,,
R,calibration,5007424.0,-0.085,0.969,-0.249,-0.3,-0.7,0.5,715,853,0,,,,
R,calibration,5007485.0,-0.065,0.971,-0.236,-0.6,-0.8,0.5,721,855,0,,,,
R,calibration,5007546.0,-0.063,0.983,-0.214,-1.0,-0.7,0.6,716,855,0,,,,
R,calibration,5007605.0,-0.054,1.032,-0.304,-2.5,-0.8,0.6,716,853,0,,,,
R,calibration,5007665.0,-0.01,1.07,-0.253,-4.5,-1.3,-0.8,706,847,0,,,,
R,calibration,5007724.0,0.07,1.369,-0.161,-7.2,-2.2,-3.9,604,814,0,,,,
R,calibration,5007785.0,0.052,1.319,-0.101,-7.9,3.0,-7.9,548,743,0,,,,
R,calibration,5007844.0,-0.103,0.963,0.116,-6.2,2.8,-6.3,463,650,0,,,,
R,calibration,5007905.0,-0.065,0.742,-0.087,-4.2,10.4,-5.9,448,633,0,,,,
R,calibration,5007964.0,0.001,0.525,-0.04,-2.5,5.7,-0.8,390,547,0,,,,
R,calibration,5008025.0,-0.171,0.617,-0.048,-2.5,0.0,0.0,405,614,0,,,,
R,calibration,5008084.0,-0.4,0.796,0.083,-0.3,1.2,-0.6,343,624,0,,,,
R,calibration,5008145.0,-0.294,0.883,0.083,-0.9,-0.8,1.5,312,583,0,,,,
R,calibration,5008205.0,-0.204,1.034,0.065,1.2,4.8,0.1,335,614,0,,,,
R,calibration,5008266.0,-0.391,0.924,0.073,1.5,2.5,1.3,389,643,0,,,,
R,calibration,5008325.0,-0.537,0.891,-0.073,1.6,-1.9,1.9,397,639,0,,,,
R,calibration,5008384.0,-0.299,0.873,-0.039,2.0,-10.4,2.4,429,659,0,,,,
R,calibration,5008445.0,-0.215,0.803,-0.111,4.5,-8.4,2.4,432,670,0,,,,
R,calibration,5008504.0,-0.086,0.893,-0.079,5.7,-8.9,4.5,448,674,0,,,,
R,calibration,5008565.0,-0.075,0.988,-0.346,7.3,-6.2,5.4,429,679,0,,,,
R,calibration,5008625.0,0.329,1.208,0.135,4.7,-3.7,4.0,449,730,0,,,,
R,calibration,5008685.0,0.079,1.175,-0.275,4.2,0.5,0.2,589,776,0,,,,
R,calibration,5008745.0,-0.1,0.945,-0.12,2.4,-0.5,0.5,636,800,0,,,,
R,calibration,5008804.0,-0.015,1.002,-0.143,3.3,2.1,-0.1,653,819,0,,,,
R,calibration,5008865.0,-0.076,0.984,-0.199,2.7,0.0,-0.1,671,830,0,,,,
R,calibration,5008926.0,-0.031,0.987,-0.283,1.7,0.0,-0.2,683,834,0,,,,
R,calibration,5008985.0,-0.039,0.984,-0.215,1.3,-1.0,0.0,638,843,0,,,,
R,calibration,5009044.0,-0.048,0.975,-0.257,1.3,-0.9,0.2,687,841,0,,,,
R,calibration,5009105.0,-0.044,0.968,-0.247,0.9,-0.6,0.1,646,847,0,,,,
R,calibration,5009165.0,-0.048,0.963,-0.274,0.2,-0.6,-0.1,643,850,0,,,,
R,calibration,5009225.0,-0.044,0.969,-0.246,0.5,-0.3,0.0,623,852,0,,,,
R,calibration,5009285.0,-0.045,0.968,-0.255,0.2,-0.6,0.1,656,847,0,,,,
R,calibration,5009344.0,-0.047,0.959,-0.265,0.2,-0.5,-0.6,626,849,0,,,,
R,calibration,5009405.0,-0.039,0.958,-0.259,0.2,-0.8,-0.6,642,851,0,,,,
R,calibration,5009464.0,-0.04,0.971,-0.271,0.4,-0.5,-0.4,660,849,0,,,,
R,calibration,5009525.0,-0.054,0.967,-0.266,0.1,-0.2,-0.1,665,851,0,,,,
R,calibration,5009584.0,-0.055,0.962,-0.271,-0.2,-0.1,0.0,659,854,0,,,,
R,calibration,5009646.0,-0.043,0.971,-0.272,-0.7,-0.4,0.0,688,853,0,,,,
R,calibration,5009705.0,-0.045,0.974,-0.266,-1.2,-0.4,0.2,693,857,0,,,,
R,calibration,5009765.0,-0.06,0.966,-0.235,-1.6,-0.4,0.7,693,851,0,,,,
R,calibration,5009825.0,-0.046,0.972,-0.215,-1.4,-0.6,0.8,677,850,0,,,,
R,calibration,5009884.0,-0.022,0.988,-0.224,-1.5,-1.0,0.9,674,852,0,,,,
R,calibration,5009944.0,-0.018,0.983,-0.211,-2.3,-1.1,0.7,691,850,0,,,,
R,calibration,5010004.0,-0.011,1.026,-0.214,-3.4,-1.2,0.0,693,844,0,,,,
R,calibration,5010065.0,0.019,1.102,-0.217,-5.9,0.0,-2.7,591,835,0,,,,
R,calibration,5010125.0,0.076,1.272,-0.153,-9.6,0.6,-6.0,459,793,0,,,,
R,calibration,5010185.0,-0.007,1.002,-0.162,-6.3,0.4,-7.9,417,704,0,,,,
R,calibration,5010245.0,0.323,0.561,-0.281,0.0,8.0,-0.4,440,682,0,,,,
R,calibration,5010304.0,0.286,0.655,-0.207,4.9,0.8,11.2,446,686,0,,,,
R,calibration,5010367.0,0.093,0.986,-0.162,9.1,0.1,16.9,455,699,0,,,,
R,calibration,5010424.0,-0.177,1.264,0.003,10.5,2.7,14.7,454,705,0,,,,
R,calibration,5010485.0,-0.46,1.485,-0.229,6.8,-1.3,11.5,464,714,0,,,,
R,calibration,5010544.0,1.081,0.802,-0.501,0.2,2.1,1.4,564,724,0,,,,
R,calibration,5010605.0,0.249,1.071,-0.257,-0.2,0.0,-0.9,596,734,0,,,,
R,calibration,5010665.0,0.255,0.95,-0.213,-0.4,0.2,0.0,606,732,0,,,,
R,calibration,5010725.0,0.313,0.923,-0.218,0.7,0.6,0.4,615,746,0,,,,
R,calibration,5010785.0,0.331,0.914,-0.216,0.0,-1.7,0.8,622,753,0,,,,
R,calibration,5010844.0,0.345,0.919,-0.276,-0.2,-1.2,0.2,621,751,0,,,,
R,calibration,5010905.0,0.297,0.931,-0.22,-0.3,0.2,-0.1,619,749,0,,,,
R,calibration,5010964.0,0.342,0.956,-0.213,-0.6,-1.1,-0.3,614,749,0,,,,
R,calibration,5011026.0,0.281,0.967,-0.215,-1.0,-2.0,-0.7,587,731,0,,,,
R,calibration,5011084.0,-0.047,1.179,-0.177,-2.3,-3.5,-2.9,541,719,0,,,,
R,calibration,5011145.0,-0.129,1.149,-0.02,-5.4,-0.4,-8.9,532,715,0,,,,
R,calibration,5011205.0,0.054,0.845,-0.101,-4.9,0.2,-9.8,532,714,0,,,,
R,calibration,5011265.0,0.613,0.239,-0.044,-1.5,5.2,-4.9,546,721,0,,,,
R,calibration,5011325.0,-0.382,1.545,-0.393,9.3,6.7,3.6,579,720,0,,,,
R,calibration,5011384.0,0.254,0.617,-0.348,2.1,0.8,-0.1,630,768,0,,,,
R,calibration,5011445.0,0.19,1.04,-0.167,-0.7,-1.0,0.0,642,777,0,,,,
R,calibration,5011504.0,0.127,0.943,-0.184,0.2,0.8,-0.3,656,779,0,,,,
R,calibration,5011565.0,0.126,0.972,-0.124,-0.4,-0.7,0.0,664,780,0,,,,
R,calibration,5011625.0,0.131,0.984,-0.143,0.2,-0.6,0.7,666,783,0,,,,
R,calibration,5011685.0,0.159,0.988,-0.162,-0.1,-0.8,0.4,662,781,0,,,,
