side,stage,device_ms,ax,ay,az,gx,gy,gz,toe,heel,phase
R,,3814840,-0.097,1.022,-0.148,0.2,0.7,-34.3,743,895,0
R,,3814850,-0.122,1.018,-0.116,-3.9,-5.7,-31.2,746,906,0
R,,3814860,-0.109,1.004,-0.089,-4.8,-6.7,-28.9,738,899,0
R,,3814870,-0.121,0.996,-0.188,-1.7,-21.6,-26.4,731,899,0
R,,3814880,-0.087,0.888,-0.122,6.7,-23.0,-26.0,722,902,0
R,,3814890,-0.100,1.040,-0.147,-4.4,-31.0,-28.4,713,902,0
R,,3814900,-0.058,1.042,-0.015,-8.1,-25.6,-30.1,699,902,0
R,,3814910,-0.070,1.027,-0.156,-18.2,-25.7,-28.7,685,902,0
R,,3814920,-0.073,1.070,-0.217,-17.6,-32.4,-35.2,659,907,0
R,,3814930,-0.059,1.049,-0.155,-16.8,-32.8,-36.7,640,906,0
R,,3814940,-0.064,1.078,-0.092,-21.7,-29.4,-40.8,612,883,0
R,,3814950,-0.073,1.045,-0.093,-23.8,-29.4,-44.2,624,905,0
R,,3814960,-0.064,1.050,-0.057,-28.4,-24.3,-48.3,617,905,0
R,,3814970,-0.044,1.103,-0.056,-36.9,-16.5,-51.7,608,900,0
R,,3814980,-0.061,1.135,-0.113,-38.8,-6.2,-54.0,607,908,0
R,,3814990,-0.104,1.225,-0.166,-46.9,-10.9,-62.7,605,906,0
R,,3815000,-0.075,1.265,-0.080,-52.4,-15.7,-65.9,615,906,0
R,,3815010,-0.017,1.328,0.033,-64.2,-12.9,-68.1,592,907,0
R,,3815020,0.005,1.380,0.079,-71.6,-4.2,-77.6,575,905,0
R,,3815030,0.013,1.422,0.049,-78.8,-0.7,-87.7,581,909,0
R,,3815040,0.015,1.463,0.049,-89.5,7.7,-94.2,566,907,0
R,,3815050,0.024,1.491,0.000,-102.7,10.5,-100.5,546,905,0
R,,3815060,0.004,1.556,-0.097,-112.3,10.3,-112.2,528,914,0
R,,3815070,0.037,1.601,-0.123,-123.5,0.5,-119.7,478,906,0
R,,3815080,0.114,1.688,-0.093,-139.5,-6.3,-128.8,457,902,0
R,,3815090,0.222,1.868,-0.091,-151.5,-25.2,-140.2,450,902,0
R,,3815100,0.419,2.027,-0.004,-161.1,-52.9,-144.9,450,903,0
R,,3815110,0.557,2.333,0.039,-163.5,-80.2,-140.9,385,900,0
R,,3815120,1.031,2.663,-0.081,-160.7,-93.8,-157.7,361,897,0
R,,3815130,1.540,2.620,-0.315,-201.8,-32.0,-181.4,227,899,0
R,,3815140,1.626,2.541,-0.543,-207.6,17.5,-219.1,243,900,0
R,,3815150,0.760,2.211,-0.560,-236.7,113.1,-279.7,223,873,0
R,,3815160,0.434,2.005,-0.327,-278.5,201.4,-331.6,230,893,0
R,,3815170,-0.364,1.954,-0.436,-258.0,285.8,-353.2,200,885,0
R,,3815180,-0.296,1.736,-0.656,-248.1,280.3,-327.1,195,877,0
R,,3815190,-0.033,1.746,-0.948,-181.7,288.1,-304.0,192,852,0
R,,3815200,0.389,1.135,-0.800,-169.4,243.1,-225.6,418,811,0
R,,3815210,0.151,0.755,-0.913,-137.7,173.3,-141.8,558,723,0
R,,3815220,0.528,0.086,-1.310,-99.5,23.6,-56.0,556,734,0
R,,3815230,-0.284,-0.442,0.006,-25.3,7.1,-27.0,559,723,0
R,,3815240,0.059,0.808,-0.837,-48.3,22.4,6.9,544,691,0
R,,3815250,0.774,0.220,-0.683,-6.0,-10.4,61.8,512,688,0
R,,3815260,0.740,0.438,-0.399,-1.4,22.6,93.3,511,696,0
R,,3815270,0.544,0.430,-0.519,-21.2,12.3,109.4,525,698,0
R,,3815280,0.327,0.128,-0.337,-26.5,-7.0,126.6,518,686,0
R,,3815290,0.213,0.000,-0.169,-26.9,-9.2,150.7,520,696,0
R,,3815300,0.224,0.013,-0.105,-19.8,0.0,174.7,517,680,0
R,,3815310,0.159,0.119,-0.127,-19.9,13.3,203.0,510,681,0
R,,3815320,0.167,0.287,-0.264,-15.6,20.4,221.5,510,680,0
R,,3815330,0.145,0.341,-0.289,-5.8,28.9,240.3,511,670,0
R,,3815340,0.111,0.400,-0.306,-4.0,39.0,259.0,507,657,0
R,,3815350,0.172,0.424,-0.333,3.7,55.1,271.5,504,653,0
R,,3815360,0.158,0.491,-0.335,17.9,71.1,282.3,519,646,0
R,,3815370,0.138,0.552,-0.423,26.4,88.9,291.4,511,653,0
R,,3815380,0.110,0.683,-0.539,42.4,107.5,301.4,513,649,0
R,,3815390,0.017,0.795,-0.691,51.8,118.7,308.8,514,649,0
R,,3815400,-0.050,0.933,-0.849,60.0,116.4,314.3,515,655,0
R,,3815410,-0.066,0.966,-0.876,74.4,113.8,320.2,520,655,0
R,,3815420,-0.062,1.011,-0.977,84.4,116.6,329.7,522,657,0
R,,3815430,-0.156,1.167,-1.070,84.4,114.8,335.3,523,659,0
R,,3815440,-0.207,1.378,-1.057,96.2,115.2,336.9,518,656,0
R,,3815450,-0.354,1.595,-1.028,112.2,106.3,339.2,512,657,0
R,,3815460,-0.516,1.779,-0.855,128.0,103.3,338.8,489,662,0
R,,3815470,-0.600,1.911,-0.703,148.9,111.0,333.2,484,665,0
R,,3815480,-0.638,1.945,-0.568,170.9,126.0,323.3,489,669,0
R,,3815490,-0.858,1.997,-0.551,189.7,145.7,311.1,492,671,0
R,,3815500,-0.984,2.216,-0.546,192.2,114.7,319.3,482,677,0
R,,3815510,-1.185,2.188,-0.269,142.0,124.9,303.3,472,683,0
R,,3815520,-1.235,2.131,-0.695,123.4,96.1,310.8,447,692,0
R,,3815530,-1.884,2.369,-1.043,108.2,22.3,306.7,455,704,0
R,,3815540,-2.438,2.475,-1.023,148.8,-70.0,269.4,448,699,0
R,,3815550,-2.637,2.424,-0.692,200.4,-199.0,225.4,466,718,0
R,,3815560,-2.945,2.268,0.460,197.2,-312.6,166.6,434,725,0
R,,3815570,-2.247,2.259,1.343,195.1,-340.6,89.3,406,713,0
R,,3815580,-1.150,2.459,2.129,102.1,-189.0,-18.6,402,746,0
R,,3815590,-0.840,2.893,2.323,-86.5,65.1,-184.9,524,737,0
R,,3815600,-0.476,1.452,0.902,-239.7,227.0,-237.4,616,719,0
R,,3815610,-0.722,1.546,0.534,-168.0,285.4,-287.7,648,737,0
R,,3815620,1.196,1.328,0.563,-114.1,186.6,-287.9,664,768,0
R,,3815630,2.484,1.478,1.591,-98.4,92.9,-119.6,681,786,0
R,,3815640,-1.454,2.464,0.076,104.0,229.9,-271.1,694,798,0
R,,3815650,-3.157,2.024,-0.611,-21.4,16.5,-217.4,697,800,0
R,,3815660,-0.901,1.466,0.161,-16.2,-28.7,-116.2,698,804,0
R,,3815670,-0.062,1.254,-0.361,25.4,-24.3,-141.9,712,819,0
R,,3815680,0.467,0.210,-0.317,19.5,6.3,-144.7,726,835,0
R,,3815690,0.404,0.272,-0.152,-3.3,77.7,-143.1,726,839,0
R,,3815700,-0.507,0.505,-0.104,-44.1,59.6,-124.3,748,857,0
R,,3815710,-1.203,1.185,0.079,-66.6,-3.2,-120.4,755,865,0
R,,3815720,0.002,0.914,0.028,-74.0,-1.1,-94.1,759,870,0
R,,3815730,-0.025,0.958,-0.273,-59.2,-23.7,-82.8,763,874,0
R,,3815740,-0.306,1.144,0.198,-41.3,-57.3,-77.2,764,876,0
R,,3815750,-0.112,0.911,0.318,-17.4,-34.5,-57.4,766,876,0
R,,3815760,-0.062,0.924,-0.037,15.6,-26.8,-39.8,767,878,0
R,,3815772,-0.110,1.099,-0.075,38.8,-38.4,-40.9,770,879,0
R,,3815782,-0.049,1.025,-0.062,31.1,-51.3,-40.8,772,882,0
R,,3815792,0.040,0.858,-0.069,39.8,-50.5,-37.1,772,880,0
R,,3815802,0.106,0.933,-0.032,53.6,-31.6,-30.1,772,883,0
R,,3815812,-0.046,0.987,-0.183,45.7,-25.9,-26.6,772,885,0
R,,3815822,-0.152,0.996,-0.244,31.4,-32.6,-22.8,771,886,0
R,,3815832,-0.120,0.998,-0.220,23.2,-32.0,-22.1,772,884,0
R,,3815842,-0.056,1.009,-0.252,13.3,-34.7,-20.8,770,884,0
R,,3815852,-0.012,0.996,-0.259,8.5,-34.0,-19.4,770,883,0
R,,3815862,-0.013,1.026,-0.246,7.3,-31.9,-24.4,768,886,0
R,,3815872,0.028,1.008,-0.215,10.2,-30.3,-27.4,766,888,0
R,,3815882,0.003,1.013,-0.095,9.6,-27.9,-30.8,765,887,0
R,,3815892,-0.010,0.950,-0.248,10.9,-24.5,-31.9,764,888,0
R,,3815902,0.058,0.990,-0.134,16.7,-16.5,-37.4,762,890,0
R,,3815912,0.045,0.976,-0.205,21.7,-10.7,-38.3,760,889,0
R,,3815922,-0.031,0.986,-0.189,26.4,-6.5,-39.3,760,892,0
R,,3815932,-0.092,0.976,-0.187,27.3,-4.9,-38.7,757,891,0
R,,3815942,-0.150,1.007,-0.191,16.4,-6.7,-37.7,755,892,0
R,,3815952,-0.218,1.066,-0.249,18.4,-12.0,-37.3,753,895,0
R,,3815962,-0.207,1.027,-0.198,12.5,-28.3,-33.3,752,894,0
R,,3815972,-0.183,1.039,-0.192,7.4,-36.9,-31.5,747,900,0
R,,3815982,-0.125,1.017,-0.203,1.7,-42.4,-30.1,745,898,0
R,,3815992,-0.058,1.024,-0.305,2.0,-51.3,-30.0,740,899,0
R,,3816002,-0.041,1.027,-0.287,2.8,-53.0,-33.2,729,899,0
R,,3816012,-0.101,1.009,-0.334,0.3,-56.0,-31.4,709,904,0
R,,3816022,-0.100,1.153,-0.143,-18.4,-51.1,-44.3,695,908,0
R,,3816032,-0.041,1.059,-0.219,-21.1,-45.0,-47.6,682,906,0
R,,3816042,-0.074,1.222,-0.025,-41.0,-30.8,-55.4,665,908,0
R,,3816052,-0.174,1.155,-0.216,-53.7,-28.4,-62.1,664,906,0
R,,3816062,-0.129,1.207,-0.193,-46.0,-28.0,-65.4,661,906,0
R,,3816072,-0.111,1.227,-0.210,-54.0,-28.4,-68.7,656,905,0
R,,3816082,-0.097,1.268,-0.183,-58.9,-33.3,-74.8,660,906,0
R,,3816092,-0.070,1.312,-0.063,-68.0,-28.0,-81.5,657,906,0
R,,3816102,-0.063,1.375,-0.034,-77.2,-22.8,-89.6,653,905,0
R,,3816112,-0.027,1.399,-0.031,-84.2,-15.6,-97.0,641,906,0
R,,3816122,-0.040,1.526,-0.077,-104.0,-10.0,-105.1,639,905,0
R,,3816132,-0.070,1.541,-0.194,-123.9,-3.9,-114.9,629,904,0
R,,3816142,-0.025,1.660,-0.291,-129.4,-3.0,-128.8,623,904,0
R,,3816152,0.058,1.748,-0.341,-139.5,-18.0,-141.1,616,902,0
R,,3816162,0.162,1.924,-0.227,-159.7,-27.0,-157.9,593,902,0
R,,3816172,0.277,2.123,-0.106,-178.9,-29.7,-172.4,567,900,0
R,,3816182,0.444,2.185,-0.073,-198.3,-18.5,-174.6,526,898,0
R,,3816192,0.758,2.370,-0.647,-202.0,-54.5,-170.8,486,895,0
R,,3816202,1.172,2.639,-0.688,-181.3,-75.1,-190.4,380,895,0
R,,3816212,1.580,2.610,-0.775,-174.3,-63.7,-214.0,255,898,0
R,,3816222,1.325,2.128,-0.535,-183.2,-38.9,-243.1,265,897,0
R,,3816232,0.278,1.782,-0.305,-224.4,63.9,-304.5,259,894,0
R,,3816242,-0.462,1.903,-0.446,-207.1,134.1,-369.3,237,890,0
R,,3816323,0.394,0.230,-0.540,3.9,-78.8,50.9,524,670,0
R,,3816414,0.295,0.269,-0.061,89.6,5.3,250.1,521,680,0
R,,3816473,0.189,0.809,-0.355,146.0,35.0,325.7,539,682,0
R,,3816533,-0.080,2.124,-0.210,192.2,101.1,348.3,511,692,0
R,,3816593,-1.823,2.557,-0.401,129.9,31.2,305.4,494,733,0
R,,3816653,-0.988,2.621,2.074,-86.4,79.9,-141.6,459,740,0
R,,3816721,-2.590,1.353,-0.914,-67.3,43.6,-220.9,698,804,0
R,,3816773,-0.490,0.801,0.180,-48.0,17.3,-115.9,748,863,0
R,,3816833,-0.053,0.987,-0.075,15.6,-33.6,-45.5,766,878,0
R,,3816923,-0.017,1.013,-0.295,12.8,-42.6,-18.3,765,883,0
R,,3816983,-0.061,0.987,-0.291,19.6,-29.6,-26.4,755,889,0
R,,3817043,-0.033,0.966,-0.368,-10.8,-56.0,-36.5,745,894,0
R,,3817103,-0.116,1.038,-0.179,-30.2,-44.4,-49.9,694,904,0
R,,3817164,-0.068,1.382,-0.130,-63.7,-43.0,-84.8,675,903,0
R,,3817223,0.227,1.926,-0.098,-145.5,-55.0,-156.5,584,901,0
R,,3817283,1.426,2.652,-0.614,-152.5,-40.1,-254.4,264,900,0
R,,3817343,0.972,0.938,-0.427,-147.5,146.3,-225.5,294,814,0
R,,3817403,1.201,0.285,-0.005,83.8,-97.0,131.3,513,701,0
R,,3817463,0.276,0.126,-0.072,88.6,-59.1,259.2,495,681,0
R,,3817523,0.310,0.699,-0.195,133.1,24.9,331.5,513,661,0
R,,3817583,0.102,1.888,-0.248,163.1,96.5,362.6,501,683,0
R,,3817643,-1.536,2.707,-0.523,120.3,130.2,310.7,500,698,0
R,,3817704,-1.132,2.111,2.704,-35.2,-11.4,-62.0,443,747,0
R,,3817763,-1.478,2.277,1.571,2.8,199.7,-335.5,688,792,0
R,,3817823,-0.048,0.648,0.017,-38.0,14.4,-111.7,742,855,0
R,,3817883,-0.091,0.961,-0.031,-9.0,-8.4,-59.1,765,878,0
R,,3817943,-0.067,0.930,-0.130,14.8,-16.3,-37.8,770,886,0
R,,3818003,-0.057,1.026,-0.050,12.2,-35.6,-33.6,761,893,0
R,,3818063,-0.174,1.036,-0.216,-7.9,-25.2,-38.9,741,898,0
R,,3818124,-0.072,1.081,-0.059,-17.0,-43.8,-43.7,681,904,0
R,,3818183,-0.170,1.220,-0.193,-51.1,-26.0,-68.3,618,910,0
R,,3818244,0.034,1.578,-0.073,-104.7,-10.0,-118.4,566,905,0
R,,3818303,1.307,2.606,-0.171,-167.7,-108.3,-162.7,352,898,0
R,,3818363,-0.509,2.198,-1.108,-223.5,193.6,-369.8,191,882,0
R,,3818423,-0.843,0.319,-0.669,-13.3,-52.7,-4.5,528,679,0
R,,3818483,0.226,0.098,-0.001,4.6,-35.2,185.7,483,673,0
R,,3818543,0.284,0.489,-0.239,59.5,51.5,319.8,489,638,0
R,,3818603,-0.087,1.250,-0.826,123.9,111.0,368.8,505,650,0
R,,3818664,-1.098,2.255,0.060,196.7,97.4,342.7,515,666,0
R,,3818723,-2.632,2.202,-0.560,150.8,-81.6,166.3,464,694,0
R,,3818784,-0.557,1.461,0.996,-182.9,272.6,-264.8,621,718,0
R,,3818843,-0.653,1.138,-0.040,34.5,-17.2,-144.6,702,808,0
R,,3818903,0.002,0.902,-0.040,-49.4,-11.2,-80.6,761,873,0
R,,3818963,-0.078,1.021,-0.068,22.4,-29.5,-51.3,772,884,0
R,,3819023,-0.047,1.042,-0.074,-4.4,-12.8,-34.5,768,890,0
R,,3819083,-0.061,1.028,-0.059,21.3,-21.2,-35.7,757,893,0
R,,3819143,-0.130,1.024,-0.149,7.6,-37.5,-32.3,735,899,0
R,,3819204,-0.091,1.150,-0.145,-34.5,-25.4,-51.1,684,904,0
R,,3819263,-0.033,1.346,0.079,-85.5,-5.7,-82.6,674,907,0
R,,3819324,0.167,1.884,-0.064,-153.6,-14.1,-147.0,657,894,0
R,,3819383,1.195,2.126,-0.623,-171.7,-0.9,-227.5,268,895,0
R,,3819443,0.214,1.276,-0.680,-145.8,152.1,-158.2,506,751,0
R,,3819512,0.527,0.317,-0.363,-9.9,18.4,120.9,544,690,0
R,,3819563,0.141,0.219,-0.207,21.6,49.6,234.2,544,678,0
R,,3819624,0.034,0.711,-0.504,73.6,112.3,308.9,537,663,0
R,,3819683,-0.312,1.631,-0.757,127.0,115.2,351.1,527,659,0
R,,3819744,-1.288,2.666,-0.598,133.9,113.2,329.8,525,675,0
R,,3819803,-1.980,2.138,1.587,176.9,-278.0,85.9,409,709,0
R,,3819864,1.180,0.997,-0.434,-164.4,309.1,-229.7,646,740,0
R,,3819927,0.435,0.582,-0.503,2.8,-15.8,-127.6,720,829,0
R,,3819983,-0.003,0.991,0.075,-33.6,-35.2,-86.4,760,873,0
R,,3820043,0.005,1.054,-0.057,33.1,-32.0,-43.4,769,884,0
R,,3820103,-0.020,1.047,-0.178,-14.8,-21.9,-37.6,758,892,0
R,,3820164,-0.121,0.975,-0.095,0.7,2.3,-38.5,744,896,0
R,,3820223,-0.126,1.001,-0.114,3.5,-28.5,-31.8,687,903,0
R,,3820284,-0.092,1.070,-0.129,-24.2,-9.3,-52.4,632,904,0
R,,3820343,-0.153,1.279,0.033,-59.9,-9.4,-72.5,639,905,0
R,,3820403,0.012,1.640,-0.061,-125.5,-17.0,-121.1,594,897,0
R,,3820463,1.566,2.533,-0.376,-168.0,-23.7,-182.0,280,897,0
R,,3820553,0.495,0.504,-1.043,-104.1,43.4,-76.7,561,720,0
R,,3820614,0.395,0.229,-0.313,-29.9,10.1,151.9,535,699,0
R,,3820673,0.217,0.447,-0.326,-15.2,111.0,284.1,523,683,0
R,,3820733,-0.043,0.976,-0.962,41.3,131.5,329.2,536,684,0
R,,3820793,-0.566,1.882,-1.051,144.9,120.0,358.8,510,662,0
R,,3820853,-2.081,2.409,-1.312,78.5,20.4,313.1,478,671,0
R,,3820914,-0.683,2.170,2.423,-9.8,31.8,-69.4,442,729,0
R,,3820973,4.073,2.031,0.989,-158.6,128.1,-152.0,680,780,9
R,,3821034,0.191,0.673,0.227,2.4,24.9,-131.7,743,853,0
R,,3821093,-0.101,0.968,0.000,-18.2,-8.8,-63.5,772,881,0
R,,3821154,-0.125,0.955,-0.102,43.6,-29.8,-29.1,772,886,0
R,,3821213,0.026,1.050,-0.191,12.3,-42.3,-24.5,756,889,0
R,,3821273,-0.095,1.029,-0.183,2.1,-3.1,-44.5,747,896,0
R,,3821333,-0.092,0.959,-0.344,-0.9,-47.5,-47.3,696,906,0
R,,3821393,-0.126,1.203,-0.065,-36.6,-17.8,-56.2,638,903,0
R,,3821454,0.011,1.466,-0.024,-85.6,0.7,-89.8,614,907,0
R,,3821513,0.374,2.062,-0.145,-171.5,-25.9,-157.4,483,903,0
R,,3821603,0.356,1.409,-0.904,-186.4,230.2,-273.9,190,850,0
R,,3821664,0.618,0.133,-0.329,-13.2,-43.1,72.1,520,685,0
R,,3821723,0.211,0.085,0.013,36.9,-6.5,205.1,532,688,0
R,,3821784,0.299,0.542,-0.257,102.9,41.7,306.1,518,665,0
R,,3821843,0.013,1.439,-0.429,134.0,62.5,347.0,531,691,0
R,,3821904,-0.825,2.206,-0.265,169.5,73.9,343.5,530,720,0
R,,3821963,-2.836,2.797,1.037,144.4,-203.7,131.7,499,726,0
R,,3822053,-1.760,2.181,0.672,43.4,200.2,-303.7,696,800,0
R,,3822114,-0.450,0.969,-0.025,-37.1,14.0,-107.8,749,860,0
R,,3822173,-0.061,0.984,-0.027,15.5,-14.7,-50.6,769,881,0
R,,3822233,-0.150,0.950,-0.256,24.0,-23.8,-37.7,774,886,0
R,,3822293,-0.001,0.950,-0.159,8.3,-13.8,-35.7,768,887,0
R,,3822353,-0.122,1.046,-0.298,27.0,-37.3,-27.5,763,892,0
R,,3822414,-0.084,0.989,-0.244,3.1,-49.1,-34.5,751,899,0
R,,3822473,-0.159,1.197,-0.244,-38.3,-31.0,-58.5,677,906,0
R,,3822534,-0.086,1.380,-0.173,-82.6,-19.9,-92.9,650,905,0
R,,3822593,0.299,2.295,-0.150,-205.3,-38.5,-179.4,578,900,0
R,,3822683,0.290,1.460,-0.399,-158.6,159.7,-304.2,184,865,0
R,,3822744,0.714,0.352,-0.363,4.6,-66.9,58.1,558,712,0
R,,3822803,0.326,0.129,0.099,92.4,-5.6,217.8,539,698,0
R,,3822872,0.300,0.641,-0.208,125.2,45.9,319.6,518,674,0
R,,3822923,0.101,1.559,-0.213,132.5,11.6,360.4,501,707,0
R,,3822984,-0.802,2.515,-0.014,148.6,44.9,334.8,518,748,0
R,,3823043,-2.147,2.505,1.550,104.7,-227.5,87.2,465,743,0
R,,3823133,-0.227,1.864,1.750,-116.1,18.4,-328.1,690,794,0
R,,3823194,0.066,0.959,-0.295,-24.3,26.7,-103.8,741,854,0
R,,3823253,-0.010,0.975,-0.042,-20.3,-21.6,-54.2,765,878,0
R,,3823313,-0.081,0.964,-0.191,18.6,-23.8,-25.0,771,885,0
R,,3823374,-0.034,0.979,-0.218,7.9,-41.9,-21.2,769,891,0
R,,3823433,-0.063,1.016,-0.301,-3.0,-36.8,-27.6,760,895,0
R,,3823494,-0.091,0.945,-0.256,-12.3,-52.9,-36.4,746,900,0
R,,3823553,-0.122,1.108,-0.178,-28.9,-32.6,-47.5,685,903,0
R,,3823614,-0.073,1.324,-0.127,-69.9,-24.6,-77.7,667,904,0
R,,3823704,0.800,2.460,-0.633,-204.1,-25.2,-186.4,465,896,0
R,,3823763,-0.390,1.750,-0.395,-192.6,63.4,-330.5,194,883,0
R,,3823853,0.853,0.353,-0.207,45.9,-30.3,118.9,509,693,0
R,,3823914,0.184,0.167,-0.182,86.1,-34.4,254.3,496,682,0
R,,3823973,0.270,0.759,-0.290,114.1,37.9,324.7,527,655,0
R,,3824034,-0.180,1.801,-0.403,133.0,107.3,347.2,512,673,0
R,,3824093,-1.525,2.311,-0.780,145.8,104.3,300.5,498,705,0
R,,3824154,-1.706,2.277,1.726,96.9,-108.5,-17.2,421,730,0
R,,3824244,-1.036,1.550,-0.065,11.0,-8.7,-136.7,696,803,0
R,,3824303,-0.490,1.100,0.047,-56.2,10.6,-99.4,753,865,0
R,,3824364,-0.070,1.104,-0.027,21.1,-22.8,-48.3,771,884,0
R,,3824423,-0.104,0.997,-0.150,3.0,-25.7,-29.2,779,893,0
R,,3824484,0.011,0.991,-0.122,10.0,-25.3,-30.0,762,894,0
R,,3824543,-0.140,1.006,-0.138,2.1,-20.9,-32.9,746,900,0
R,,3824603,-0.086,1.066,-0.081,-18.2,-40.5,-44.1,685,903,0
R,,3824664,-0.095,1.233,-0.095,-44.0,-20.3,-58.3,652,905,0
R,,3824752,0.084,1.870,-0.101,-157.2,-7.8,-135.1,577,903,0
R,,3824814,1.542,2.278,-0.276,-196.5,-2.0,-211.6,251,898,0
R,,3824874,0.617,1.173,-0.554,-196.0,230.6,-185.5,453,807,0
R,,3824963,0.297,0.029,-0.251,-48.9,52.5,176.1,554,735,0
R,,3825024,0.232,0.538,-0.466,-11.3,107.3,294.9,514,689,0
R,,3825083,0.020,1.089,-0.861,27.1,134.4,337.7,520,693,0
R,,3825143,-0.351,2.092,-1.114,121.8,167.5,357.1,496,652,0
R,,3825234,-1.622,2.415,1.749,167.6,-349.3,54.6,375,708,0
R,,3825336,-1.403,1.779,0.174,-1.1,-53.2,-144.8,705,814,0
R,,3825354,-0.064,0.997,-0.463,-18.0,-74.3,-146.9,732,839,0
R,,3825414,-0.183,0.975,0.177,4.5,-20.6,-69.9,769,878,0
R,,3825473,-0.044,1.007,0.073,38.5,-27.3,-26.9,776,887,0
R,,3825533,0.004,1.026,-0.169,14.3,-38.2,-12.3,760,890,0
R,,3825593,-0.046,1.040,-0.130,11.2,-28.2,-27.7,738,890,0
R,,3825654,-0.023,1.008,-0.183,-17.9,-15.4,-38.8,704,898,0
R,,3825713,-0.061,1.128,-0.080,-21.9,-25.1,-71.6,635,903,0
R,,3825817,-0.017,1.552,0.021,-103.8,-16.4,-110.1,440,905,0
R,,3825842,0.175,1.932,-0.040,-153.3,-18.6,-138.5,446,904,0
R,,3825893,1.728,2.529,-0.316,-185.9,35.7,-219.8,316,903,0
R,,3825954,0.639,1.170,-0.666,-179.2,234.7,-247.0,172,838,0
R,,3826013,0.744,0.004,-0.460,-21.6,-9.2,116.0,494,703,0
R,,3826104,0.229,0.391,-0.345,11.3,59.8,294.4,479,673,0
R,,3826164,-0.017,0.980,-0.841,46.8,108.9,348.1,500,677,0
R,,3826223,-0.564,2.022,-0.679,150.0,77.5,354.5,453,668,0
R,,3826286,-2.259,2.375,-1.087,175.7,-53.4,211.5,452,703,0
R,,3826374,1.467,1.293,-0.198,-96.8,163.1,-209.3,654,755,0
R,,3826477,-0.131,0.870,0.041,-37.6,32.4,-93.1,762,874,0
R,,3826494,-0.233,1.098,0.018,-18.7,-32.6,-79.3,769,880,0
R,,3826553,0.010,0.995,0.042,28.2,-28.8,-35.2,777,890,0
R,,3826644,0.004,1.028,-0.092,14.0,-18.4,-26.8,763,892,0
R,,3826704,-0.165,0.992,-0.061,10.2,-13.7,-29.4,753,895,0
R,,3826763,-0.158,1.016,-0.164,-9.1,-35.9,-28.3,737,901,0
R,,3826854,-0.023,1.312,0.017,-59.4,-9.1,-61.8,661,906,0
R,,3826914,0.000,1.559,-0.099,-125.8,-5.8,-111.6,641,904,0
R,,3826973,1.232,2.485,-0.520,-163.0,-50.9,-165.7,433,893,0
R,,3827034,-0.210,1.654,-0.872,-169.7,218.6,-315.2,187,870,0
R,,3827093,-0.256,0.399,-0.749,-52.5,42.5,18.1,560,703,0
R,,3827183,0.139,0.304,-0.361,21.7,28.9,249.9,512,675,0
R,,3827244,0.089,0.782,-0.593,72.3,81.4,322.8,528,664,0
R,,3827303,-0.340,1.795,-0.738,139.1,103.2,350.7,514,673,0
R,,3827364,-1.267,2.274,-0.738,135.3,106.5,311.1,516,686,0
R,,3827423,-1.249,2.160,2.026,133.7,-137.7,5.6,452,730,0
R,,3827484,2.459,1.454,1.321,-114.6,44.5,-123.6,684,787,0
R,,3827574,0.013,0.879,-0.145,-31.0,18.4,-89.9,759,871,0
R,,3827664,-0.033,0.967,-0.172,38.2,-24.0,-32.2,774,886,0
R,,3827723,0.031,0.939,-0.131,0.8,-20.6,-25.9,771,887,0
R,,3827784,-0.035,1.040,-0.208,24.5,-27.1,-26.4,760,893,0
R,,3827887,-0.056,1.049,-0.203,-7.4,-42.1,-37.0,712,903,0
R,,3827934,-0.096,1.171,-0.051,-36.4,-31.3,-56.7,650,903,0
R,,3827994,-0.131,1.398,-0.228,-78.1,-19.0,-100.5,617,902,0
R,,3828053,0.387,2.257,-0.214,-207.2,-23.2,-163.5,501,901,0
R,,3828144,0.361,1.486,-0.527,-190.0,190.7,-307.5,171,860,0
R,,3828204,0.445,0.084,-0.344,-8.7,-64.0,79.8,539,699,0
R,,3828263,0.265,0.062,-0.010,67.7,-21.2,219.8,536,690,0
R,,3828324,0.339,0.548,-0.191,117.5,33.1,302.4,530,666,0
R,,3828382,0.078,1.401,-0.499,127.3,76.7,330.8,517,679,0
R,,3828444,-0.826,2.486,-0.247,174.2,161.9,355.2,477,701,0
R,,3828503,-2.504,2.189,1.282,168.1,-286.1,79.0,405,740,0
R,,3828564,-0.157,1.425,-0.408,-94.6,136.7,-244.7,621,713,0
R,,3828624,-0.759,1.181,-1.116,-24.2,-34.3,-151.9,711,816,0
R,,3828684,-0.196,1.051,-0.025,-43.9,-26.6,-71.8,756,869,0
R,,3828744,0.011,0.987,-0.070,29.3,-31.4,-36.9,765,879,0
R,,3828803,-0.034,0.983,-0.202,6.7,-25.1,-31.0,769,885,0
R,,3828864,-0.026,0.982,-0.251,20.7,-37.6,-30.5,763,893,0
R,,3828953,-0.101,0.975,-0.220,-0.2,-57.0,-35.4,744,902,0
R,,3829013,-0.136,1.140,-0.145,-35.7,-33.2,-56.1,681,905,0
R,,3829074,-0.135,1.517,-0.103,-90.7,-19.9,-101.8,677,902,0
R,,3829133,0.482,2.443,-0.224,-215.2,-30.3,-182.9,632,894,0
R,,3829194,-0.195,1.819,-0.380,-201.1,54.5,-347.1,249,889,0
R,,3829253,-0.243,0.226,-1.128,-0.2,-107.8,-96.5,569,721,0
R,,3829314,0.507,0.000,-0.071,61.8,-73.5,149.8,531,695,0
R,,3829382,0.506,0.454,-0.005,137.2,24.5,264.8,536,684,0
R,,3829434,0.287,0.985,-0.336,152.0,74.2,331.6,536,684,0
R,,3829494,-0.748,2.534,-0.442,172.3,137.2,334.3,526,709,0
R,,3829553,-2.651,2.338,-0.701,159.2,-27.1,252.3,512,733,0
R,,3829614,-0.895,1.151,-0.038,-33.3,94.9,-178.9,437,731,0
R,,3829673,-2.504,1.458,-0.830,-30.1,53.6,-203.5,693,794,0
R,,3829734,-0.643,1.137,-0.053,-49.9,-4.2,-110.3,747,860,0
R,,3829793,-0.065,1.023,-0.077,-4.5,-34.5,-49.4,765,879,0
R,,3829854,-0.061,0.972,-0.212,24.5,-25.9,-22.3,773,884,0
R,,3829914,0.000,1.022,-0.178,-7.4,-23.8,-33.6,774,892,0
R,,3830003,-0.136,0.989,-0.283,0.6,-37.0,-27.9,758,897,0
R,,3830064,-0.116,0.969,-0.178,2.3,-59.0,-33.6,728,901,0
R,,3830124,-0.065,1.334,-0.066,-62.3,-34.9,-67.8,678,903,0
R,,3830184,0.026,1.758,-0.192,-146.1,-18.9,-126.6,641,901,0
R,,3830244,1.353,2.439,-1.059,-149.5,-68.9,-200.9,424,899,0
R,,3830304,0.040,1.614,-0.980,-133.6,139.6,-307.1,173,869,0
R,,3830364,-0.055,0.066,-0.377,-18.8,-36.8,61.3,557,710,0
R,,3830423,0.259,0.145,-0.033,20.3,-15.6,232.4,540,713,0
R,,3830483,0.273,0.642,-0.294,105.4,49.0,308.3,542,684,0
R,,3830543,0.038,1.505,-0.703,127.8,115.2,343.9,547,677,0
R,,3830604,-1.090,2.300,-0.141,151.6,157.0,323.8,535,682,0
R,,3830664,-2.624,2.100,1.060,121.5,-227.1,123.2,418,735,0
R,,3830724,-0.561,0.929,0.612,-150.8,330.9,-256.2,615,706,0
R,,3830784,-1.015,1.080,-0.220,8.4,-11.9,-146.1,710,818,0
R,,3830874,-0.145,0.921,-0.203,-4.0,-5.6,-64.1,765,879,0
R,,3830934,-0.062,0.954,-0.064,19.1,-19.3,-32.9,772,886,0
R,,3830994,-0.018,1.021,-0.150,5.6,-24.3,-25.8,772,892,0
R,,3831083,-0.133,1.014,-0.140,3.9,-18.7,-29.8,751,898,0
R,,3831144,-0.024,1.016,-0.128,0.0,-41.2,-29.8,728,899,0
R,,3831204,-0.098,1.262,-0.050,-50.8,-30.9,-62.8,670,905,0
R,,3831293,0.181,1.924,-0.094,-171.7,-9.1,-141.7,609,899,0
R,,3831354,1.179,2.104,-0.613,-198.3,10.3,-230.7,242,894,0
R,,3831444,-0.347,-0.897,0.139,-83.2,-1.4,-13.2,579,707,0
R,,3831503,0.263,0.032,-0.165,-17.8,20.7,180.6,542,692,0
R,,3831564,0.305,0.497,-0.279,53.1,41.5,301.9,522,672,0
R,,3831624,0.149,1.049,-0.582,121.3,89.6,356.5,536,668,0
R,,3831684,-0.202,2.570,-0.640,184.3,153.8,347.2,524,671,0
R,,3831744,-3.274,2.531,0.171,109.6,-172.9,189.8,488,723,9
R,,3831804,-0.649,2.068,0.268,-66.2,194.3,-285.9,573,693,0
R,,3831864,-0.771,1.546,0.758,-11.4,-82.7,-119.3,694,801,0
R,,3831923,-0.192,0.902,-0.082,4.7,41.7,-78.6,739,851,0
R,,3832014,-0.057,0.971,-0.028,14.6,-21.2,-30.1,764,876,0
R,,3832074,0.015,1.012,-0.140,11.9,-23.0,-24.2,760,879,0
R,,3832134,-0.098,0.995,-0.135,4.6,-22.1,-33.3,755,890,0
R,,3832194,-0.099,0.989,-0.066,-2.5,-17.5,-33.4,761,897,0
R,,3832253,-0.113,1.112,-0.177,-18.6,-37.5,-36.4,746,901,0
R,,3832322,-0.022,1.407,-0.020,-83.8,-2.0,-77.1,690,903,0
R,,3832374,0.026,1.684,-0.058,-153.9,-8.3,-121.0,676,903,0
R,,3832434,1.584,2.604,-0.264,-205.4,10.7,-194.0,395,895,0
R,,3832494,0.432,1.174,-0.910,-175.2,277.5,-237.5,261,847,0
R,,3832554,0.432,0.097,-0.526,-10.0,24.7,94.7,534,709,0
R,,3832644,0.166,0.411,-0.328,11.5,78.1,275.3,523,681,0
R,,3832704,0.105,0.992,-0.765,56.6,124.3,334.2,520,675,0
R,,3832768,-0.570,1.913,-0.815,158.0,106.1,336.7,486,665,0
R,,3832824,-1.967,2.110,-0.969,130.1,-0.1,275.1,493,687,0
R,,3832884,-0.913,2.100,2.060,-46.4,173.4,-93.8,445,755,0
R,,3832944,4.026,1.780,0.561,-161.8,163.0,-114.8,678,781,0
R,,3833003,0.366,0.405,-0.140,0.8,49.5,-124.1,733,848,0
R,,3833064,-0.246,0.892,-0.019,-10.9,5.0,-67.2,767,878,0
R,,3833124,-0.055,0.954,-0.036,20.6,-17.9,-29.1,774,886,0
R,,3833184,0.011,1.072,-0.189,21.7,-42.1,-22.6,767,889,0
R,,3833244,-0.069,1.004,-0.077,10.6,-18.5,-36.5,758,893,0
R,,3833304,-0.101,0.996,-0.126,1.2,-31.5,-28.9,747,899,0
R,,3833364,-0.131,1.104,-0.144,-22.4,-28.9,-40.2,667,911,0
R,,3833424,-0.039,1.318,-0.036,-77.2,3.9,-74.4,639,905,0
R,,3833484,0.062,1.658,-0.074,-142.4,-9.1,-122.9,583,903,0
R,,3833543,1.441,2.411,-0.407,-181.0,-20.2,-189.2,262,900,0
R,,3833604,0.490,1.288,-0.755,-203.4,255.5,-242.3,191,849,0
R,,3833664,0.336,-0.030,-0.525,-15.1,-3.0,91.7,531,687,0
R,,3833724,0.140,0.156,-0.060,25.4,-1.1,212.1,533,679,0
R,,3833784,0.276,0.626,-0.348,90.3,60.2,306.6,530,674,0
R,,3833844,-0.079,1.442,-0.660,140.3,86.1,344.7,524,671,0
R,,3833904,-0.771,2.561,-0.406,167.5,111.5,327.1,535,696,0
R,,3833994,-0.844,1.669,0.777,-66.3,83.0,-136.9,458,734,0
R,,3834054,0.722,1.868,1.116,-70.4,165.9,-190.0,688,790,0
R,,3834143,-0.122,0.954,-0.090,-27.1,-15.5,-74.5,765,877,0
R,,3834204,-0.009,0.924,-0.075,37.0,-29.3,-35.3,774,884,0
R,,3834293,-0.069,0.997,-0.138,8.7,-29.6,-31.0,771,889,0
R,,3834354,0.345,0.961,-0.238,37.8,-22.4,-37.3,764,893,0
R,,3834414,-0.097,1.026,-0.269,5.8,-40.9,-39.4,757,899,0
R,,3834474,-0.178,1.066,-0.131,-16.2,-50.1,-37.6,697,906,0
R,,3834564,-0.013,1.612,-0.220,-105.7,-46.7,-123.2,649,904,0
R,,3834624,1.051,2.664,-0.557,-213.2,-25.7,-223.7,477,896,0
R,,3834684,-0.670,1.532,-0.797,-129.2,59.4,-337.7,182,881,0
R,,3834787,0.603,-0.055,-0.091,87.5,-75.6,172.3,532,704,0
R,,3834804,0.489,0.098,0.156,112.7,-62.0,212.7,539,709,0
R,,3834894,0.305,0.868,-0.387,146.7,40.9,336.9,530,684,0
R,,3834984,-0.647,2.606,-0.105,166.9,57.9,340.2,522,743,0
R,,3835043,-2.426,2.776,1.599,119.2,-270.7,123.4,434,745,9
R,,3835104,-1.054,1.590,0.040,-71.6,111.5,-233.3,557,697,0
R,,3835164,-0.466,1.245,0.037,-38.2,-10.2,-110.3,695,800,0
R,,3835224,-0.385,0.881,0.002,-19.4,18.2,-84.2,753,865,0
R,,3835284,-0.083,1.007,-0.077,5.9,-41.3,-40.6,768,881,0
R,,3835344,-0.048,0.959,-0.238,19.9,-25.1,-25.2,772,884,0
R,,3835404,-0.067,1.002,-0.214,1.2,-36.6,-22.4,772,894,0
R,,3835464,-0.110,1.003,-0.288,0.1,-35.0,-36.4,754,895,0
R,,3835554,-0.122,1.045,-0.237,-25.1,-31.3,-54.1,671,904,0
R,,3835614,-0.048,1.285,-0.184,-49.8,-34.0,-76.4,661,904,0
R,,3835674,0.136,1.968,-0.063,-157.7,-46.7,-146.0,571,899,0
R,,3835734,1.290,2.149,-0.285,-185.9,-24.2,-254.5,248,899,0
R,,3835802,0.356,0.833,-0.780,-83.0,97.3,-161.5,536,738,0
R,,3835854,0.923,0.211,-0.055,77.0,-78.8,121.8,488,700,0
R,,3835914,0.260,0.212,-0.058,103.4,-49.7,250.1,493,673,0
R,,3835973,0.331,0.743,-0.237,131.6,33.6,325.7,520,676,0
R,,3836034,-0.067,1.963,-0.337,130.6,113.6,341.9,516,709,0
R,,3836094,-1.493,2.388,-1.165,148.8,97.0,294.4,503,746,0
R,,3836154,-0.646,2.221,2.053,-56.6,19.2,-57.0,443,772,0
R,,3836214,0.108,2.679,1.528,-55.8,46.8,-304.2,687,792,0
R,,3836274,-0.228,0.611,-0.182,-33.9,55.7,-144.2,727,840,0
R,,3836333,-0.101,0.972,0.005,3.0,-11.6,-62.4,764,879,0
R,,3836394,-0.109,0.955,-0.126,26.8,-27.1,-33.5,773,886,0
R,,3836454,-0.034,0.970,-0.135,7.9,-37.0,-21.2,768,891,0
R,,3836514,-0.109,1.009,-0.201,1.6,-17.2,-27.0,756,894,0
R,,3836604,-0.083,0.996,-0.026,2.3,-54.1,-31.7,723,901,0
R,,3836664,-0.066,1.190,-0.284,-31.0,-27.7,-48.4,654,905,0
R,,3836724,-0.037,1.402,-0.066,-86.3,-7.5,-84.7,589,906,0
R,,3836784,0.362,2.267,-0.184,-178.7,-73.2,-151.2,445,903,0
R,,3836874,0.543,1.462,-0.607,-212.2,240.8,-289.6,202,859,0
R,,3836934,0.230,0.255,-0.642,-48.7,-5.9,85.3,536,709,0
R,,3837024,0.305,0.336,-0.236,18.1,27.3,285.4,487,694,0
R,,3837084,0.068,1.010,-0.740,58.5,106.5,345.1,503,666,0
R,,3837144,-0.543,2.018,-0.924,195.3,78.4,383.5,495,656,0
R,,3837204,-2.134,2.415,-1.174,129.5,-48.5,250.1,492,697,0
R,,3837264,-1.064,1.791,0.547,-119.7,252.0,-166.8,416,736,0
R,,3837324,-2.120,1.596,0.093,-29.8,202.1,-238.2,688,794,0
R,,3837384,-0.313,0.855,-0.242,-1.8,38.0,-113.4,722,839,0
R,,3837487,-0.026,0.937,0.045,15.1,-13.7,-40.8,766,882,0
R,,3837504,-0.142,0.960,-0.034,16.0,-14.7,-37.2,767,882,0
R,,3837594,-0.064,1.031,-0.167,10.2,-23.5,-31.5,757,890,0
R,,3837654,-0.159,0.966,-0.103,10.1,-13.3,-31.8,750,896,0
R,,3837744,-0.062,1.104,-0.020,-41.3,-25.2,-40.9,680,905,0
R,,3837803,0.006,1.373,-0.128,-84.0,-1.8,-77.7,652,905,0
R,,3837894,1.141,2.655,-0.726,-179.8,-44.6,-177.5,465,891,0
R,,3837954,0.133,1.395,-0.646,-182.0,209.1,-259.8,216,864,0
R,,3838014,0.362,0.225,-0.438,-41.9,32.8,63.4,559,698,0
R,,3838074,0.176,0.076,-0.093,2.6,68.6,209.2,539,709,0
R,,3838134,0.298,0.555,-0.317,65.1,95.9,325.2,518,681,0
R,,3838224,-0.256,2.074,-0.589,158.9,152.2,371.0,490,680,0
R,,3838284,-2.914,2.313,-1.532,182.9,44.9,260.8,487,700,9
R,,3838344,-0.931,1.569,0.103,-66.5,191.7,-172.2,437,749,0
R,,3838404,-2.200,1.691,0.337,37.1,290.4,-260.4,684,790,0
R,,3838494,0.212,0.947,-0.107,-17.3,4.9,-84.8,756,871,0
R,,3838554,-0.068,0.978,-0.185,33.9,-22.4,-51.0,772,886,0
R,,3838614,-0.128,1.043,-0.060,6.9,-27.3,-33.8,765,890,0
R,,3838674,-0.091,0.982,-0.127,-10.2,-14.9,-26.2,735,896,0
R,,3838777,-0.134,0.971,-0.174,-3.9,-10.8,-39.4,607,906,0
R,,3838887,-0.022,1.434,0.006,-63.6,-8.6,-86.1,488,907,0
R,,3838897,-0.034,1.513,0.061,-79.0,-7.7,-94.2,470,908,0
R,,3838974,1.609,2.810,-0.383,-161.0,-65.7,-201.5,314,904,0
R,,3839034,0.510,1.405,-0.288,-201.8,240.7,-288.7,211,856,0
R,,3839125,0.479,0.191,-0.393,-10.9,23.9,163.9,539,742,0
R,,3839214,0.278,0.665,-0.459,7.9,104.4,323.8,499,720,0
R,,3839304,-0.513,2.059,-0.980,143.7,91.4,363.0,417,694,0
R,,3839366,-2.289,2.395,-0.559,132.0,-58.5,258.7,438,726,0
R,,3839454,0.758,0.904,-0.524,-144.4,229.8,-209.3,628,727,0
R,,3839557,-0.304,1.073,0.213,-19.8,20.0,-83.9,749,861,0
R,,3839604,-0.026,0.995,-0.048,-1.4,9.3,-51.5,772,886,0
R,,3839665,-0.136,1.003,-0.006,6.7,-15.2,-34.2,772,887,0
R,,3839724,-0.028,0.995,-0.109,25.2,-33.0,-22.7,761,891,0
R,,3839784,-0.092,1.086,-0.077,-4.8,-29.7,-29.8,745,898,0
R,,3839875,-0.118,1.037,-0.042,-22.3,-24.3,-43.5,642,908,0
R,,3839977,-0.032,1.535,-0.113,-109.1,-5.0,-106.1,549,905,0
R,,3839994,0.109,1.738,-0.037,-141.2,16.8,-123.2,514,904,0
R,,3840084,-0.098,1.922,-0.350,-254.7,196.7,-351.7,239,889,0
R,,3840187,0.784,0.504,-0.576,42.1,-17.8,118.5,502,685,0
R,,3840205,0.415,0.163,-0.377,5.8,-15.6,155.1,519,691,0
R,,3840264,0.304,0.322,-0.198,65.3,36.0,283.7,491,655,0
R,,3840324,0.075,0.878,-0.589,118.3,55.7,343.9,511,682,0
R,,3840384,-0.222,2.449,-0.614,192.6,145.9,335.8,508,695,0
R,,3840444,-2.925,1.984,-1.248,120.5,-19.1,237.3,497,730,0
R,,3840534,0.649,1.202,0.216,-119.0,155.9,-200.9,639,733,0
R,,3840625,-0.219,0.882,-0.229,-14.5,14.4,-97.0,744,854,0
R,,3840684,0.058,0.994,0.030,13.7,-24.7,-52.9,769,880,0
R,,3840788,-0.067,0.997,-0.099,8.1,-35.4,-25.5,772,888,0
R,,3840804,-0.042,1.000,-0.138,25.7,-34.2,-24.0,771,887,0
R,,3840894,-0.119,0.984,-0.296,6.5,-37.8,-31.9,760,900,0
R,,3840955,-0.151,0.988,-0.259,-7.2,-43.8,-39.6,717,904,0
R,,3841014,-0.110,1.310,-0.166,-55.1,-37.8,-74.8,669,905,0
R,,3841074,-0.004,1.601,-0.304,-111.0,-36.6,-133.5,605,902,0
R,,3841134,1.037,2.465,-0.613,-168.0,-48.3,-203.5,360,899,0
R,,3841194,-0.164,1.585,-0.601,-160.0,63.3,-316.6,186,876,0
R,,3841254,-0.964,-0.340,-0.617,39.5,-150.2,16.1,545,695,0
R,,3841314,0.568,0.103,0.105,103.6,-70.9,201.1,494,684,0
R,,3841375,0.376,0.459,-0.084,151.2,46.4,278.6,521,664,0
R,,3841434,0.143,1.473,-0.417,139.5,78.8,335.5,520,692,0
R,,3841524,-1.840,2.233,-0.663,129.0,33.7,299.8,505,738,0
R,,3841584,-1.167,2.516,2.217,-31.4,41.6,-127.1,467,752,0
R,,3841644,-1.585,2.024,0.620,-6.8,88.2,-291.6,690,796,0
R,,3841705,-0.577,0.920,-0.163,-79.8,31.7,-126.6,733,846,0
R,,3841794,-0.012,0.925,-0.075,35.3,-37.8,-35.9,767,881,0
R,,3841884,-0.012,1.004,-0.202,14.6,-40.1,-23.3,764,888,0
R,,3841944,-0.058,0.989,-0.230,-8.4,-22.7,-33.1,752,894,0
R,,3842004,-0.118,1.017,-0.259,-5.8,-47.2,-32.7,724,902,0
R,,3842064,-0.247,1.118,-0.244,-34.1,-26.6,-49.4,662,905,0
R,,3842125,-0.048,1.432,-0.162,-82.4,-24.1,-91.4,610,905,0
R,,3842184,0.368,2.062,-0.271,-193.6,-24.6,-162.2,510,904,0
R,,3842245,0.068,1.881,-0.215,-190.1,42.2,-304.2,254,890,0
R,,3842304,0.295,0.648,-0.587,-102.6,101.0,-131.4,522,706,0
R,,3842364,0.625,0.235,-0.273,56.0,-35.0,132.7,495,678,0
R,,3842424,0.248,0.278,-0.057,107.8,-13.4,260.9,503,663,0
R,,3842493,0.313,0.973,-0.394,136.6,58.4,337.1,516,661,0
R,,3842575,-0.840,2.395,-0.257,155.1,125.3,342.7,499,719,0
R,,3842634,-2.602,2.468,0.777,148.6,-232.4,117.2,455,738,0
R,,3842694,2.265,1.158,-0.917,-80.7,173.4,-196.4,660,763,0
R,,3842753,-0.181,0.655,-0.208,-28.9,-20.0,-148.8,719,829,0
R,,3842814,-0.036,1.023,0.009,-30.8,-19.6,-71.3,759,873,0
R,,3842875,-0.007,0.950,-0.108,44.7,-31.5,-36.6,772,881,0
R,,3842934,-0.004,0.947,-0.263,-12.5,-40.8,-18.6,767,889,0
R,,3842995,-0.041,1.118,-0.183,9.0,-8.7,-34.3,754,891,0
R,,3843084,-0.041,1.006,-0.099,-18.4,-39.9,-31.4,701,902,0
R,,3843144,-0.088,1.139,-0.146,-37.2,-25.8,-58.8,651,905,0
R,,3843205,-0.056,1.462,-0.132,-90.5,-15.0,-95.3,592,905,0
R,,3843264,0.443,2.134,-0.004,-199.4,-22.9,-154.3,455,906,0
R,,3843325,-0.028,1.675,-0.019,-220.1,144.6,-315.9,265,891,0
R,,3843384,0.044,0.400,-1.280,-86.1,92.2,-108.3,549,693,0
R,,3843444,0.553,0.217,-0.463,26.1,-8.0,137.2,515,694,0
R,,3843504,0.138,0.325,-0.129,66.5,-12.7,269.8,512,657,0
R,,3843607,-0.074,1.753,-0.405,133.0,118.8,351.1,515,672,0
R,,3843654,-0.456,2.408,0.139,148.3,174.3,355.4,506,710,0
R,,3843714,-2.915,2.276,0.472,182.2,-248.0,113.4,398,728,0
R,,3843774,0.411,0.569,-0.867,-133.9,212.9,-227.0,653,752,0
R,,3843877,-0.448,1.009,0.427,-49.1,14.6,-94.9,743,857,0
R,,3843894,0.094,1.036,-0.384,-9.1,0.6,-80.0,754,869,0
R,,3843955,-0.043,1.003,-0.049,19.4,-32.2,-38.7,769,881,0
R,,3844014,0.079,1.031,-0.261,-0.4,-21.2,-26.6,762,889,0
R,,3844075,0.000,1.028,-0.010,-7.2,6.7,-29.0,740,892,0
R,,3844134,-0.069,0.984,-0.188,-14.7,-15.6,-31.1,672,903,0
R,,3844194,-0.047,1.029,-0.071,-16.9,-16.0,-45.9,630,906,0
R,,3844254,-0.078,1.232,0.004,-49.3,-15.9,-67.9,606,903,0
R,,3844313,0.043,1.709,-0.078,-121.5,1.8,-118.4,522,899,0
R,,3844405,0.133,1.654,-0.474,-236.1,143.2,-302.8,269,889,0
R,,3844464,-0.015,0.525,-0.997,-102.0,101.4,-124.6,535,696,0
R,,3844524,0.597,0.382,-0.345,6.7,17.5,127.4,511,681,0
R,,3844583,0.203,0.271,-0.275,62.9,18.4,282.9,495,673,0
R,,3844674,0.165,1.329,-0.634,114.5,84.9,335.5,518,670,0
R,,3844734,-1.010,2.821,-0.340,183.8,112.4,339.0,507,701,0
R,,3844794,-2.630,2.450,0.530,166.3,-211.4,126.8,430,735,0
R,,3844853,-0.677,1.170,0.807,-148.9,294.0,-242.1,608,708,0
R,,3844915,-1.108,1.001,-0.030,79.8,25.3,-120.8,705,814,0
R,,3844974,-0.055,0.927,-0.076,-18.8,8.8,-78.4,753,868,0
R,,3845035,-0.068,1.065,-0.079,18.5,-24.3,-42.0,768,880,0
R,,3845094,-0.021,1.119,-0.180,-3.3,-23.1,-23.4,771,887,0
R,,3845155,-0.015,1.018,-0.105,18.9,-14.2,-29.4,754,892,0
R,,3845245,-0.142,0.999,-0.063,-0.7,-29.3,-24.7,737,900,0
R,,3845304,-0.049,1.095,-0.181,-28.4,-21.0,-37.5,669,905,0
R,,3845365,-0.063,1.345,-0.067,-75.2,-8.9,-75.0,648,907,0
R,,3845433,0.227,1.990,-0.017,-176.6,-1.8,-130.8,558,902,0
R,,3845484,1.354,2.253,-0.032,-207.6,-2.4,-196.4,301,896,0
R,,3845544,0.496,1.355,-0.874,-157.2,260.4,-234.5,303,823,0
R,,3845604,0.624,0.081,-0.375,-10.5,25.1,114.3,520,701,0
R,,3845665,0.126,0.146,-0.246,-2.9,67.3,250.3,523,711,0
R,,3845754,-0.045,1.109,-0.887,52.9,130.5,336.7,499,650,0
R,,3845814,-0.790,1.919,-0.983,171.0,72.8,333.3,490,648,0
R,,3845878,-1.843,1.970,0.099,149.1,-87.2,177.5,481,672,0
R,,3845934,-1.524,1.477,0.543,-2.8,180.6,-130.5,472,732,0
R,,3845995,-1.608,1.415,-0.398,15.4,166.6,-213.0,688,794,0
R,,3846054,-0.619,0.662,-0.336,-3.3,42.3,-107.1,742,851,0
R,,3846115,0.015,1.060,-0.008,2.3,-8.2,-45.9,767,879,0
R,,3846174,-0.097,0.973,-0.180,14.4,-28.4,-32.6,770,890,0
R,,3846235,-0.025,1.023,-0.040,-6.5,-21.6,-34.0,751,894,0
R,,3846294,-0.269,0.996,-0.111,4.4,-14.9,-36.1,718,900,0
R,,3846354,-0.062,1.092,-0.229,-15.4,-27.3,-48.3,641,906,0
R,,3846415,-0.114,1.238,-0.106,-49.9,-19.6,-63.9,611,909,0
R,,3846474,0.017,1.505,0.043,-101.0,3.5,-105.0,526,905,0
R,,3846535,0.950,2.580,-0.267,-150.3,-92.9,-161.7,375,902,0
R,,3846594,-0.787,1.735,-0.578,-235.6,166.1,-328.4,217,881,0
R,,3846655,-0.365,-0.809,0.101,-55.3,15.6,-13.5,578,724,0
R,,3846714,0.213,0.046,-0.257,-3.5,11.6,188.5,528,719,0
R,,3846804,0.184,0.772,-0.466,54.0,82.1,327.6,503,693,0
R,,3846865,-0.216,1.789,-0.753,111.5,69.3,351.7,451,679,0
R,,3846924,-1.476,2.336,-0.424,126.4,69.0,306.2,447,725,0
R,,3846985,-1.021,2.443,2.223,40.6,-81.2,-40.6,428,743,0
R,,3847044,1.287,2.245,1.603,-61.1,92.5,-172.4,689,793,0
R,,3847104,-0.060,0.415,-0.468,-11.7,40.3,-126.9,741,853,0
R,,3847165,-0.105,0.913,0.048,1.6,-7.0,-51.0,767,878,0
R,,3847224,-0.076,0.973,-0.212,20.5,-25.4,-28.7,772,884,0
R,,3847285,-0.028,0.989,-0.055,14.2,-16.1,-30.9,765,886,0
R,,3847344,-0.074,0.969,-0.281,18.9,-20.0,-32.5,756,892,0
R,,3847405,-0.073,1.071,-0.231,6.3,-44.4,-33.9,748,899,0
R,,3847464,-0.132,1.156,-0.276,-71.4,-32.2,-69.3,667,908,0
R,,3847525,0.002,1.511,-0.159,-105.0,-8.6,-108.5,645,904,0
R,,3847584,0.309,2.122,0.109,-206.7,-21.3,-170.9,560,895,0
R,,3847644,-0.398,1.887,-0.226,-185.4,79.3,-342.3,272,893,0
R,,3847704,0.035,-0.163,-1.150,-76.7,-30.2,-51.5,574,721,0
R,,3847764,0.413,-0.004,-0.107,26.3,-25.9,149.3,535,710,0
R,,3847854,0.244,0.661,-0.253,123.6,73.7,296.5,504,678,0
R,,3847915,0.218,1.529,-0.413,139.9,60.3,337.5,494,680,0
R,,3847974,-0.705,2.506,-0.198,138.4,68.3,342.7,516,717,0
R,,3848064,-1.067,1.471,0.499,-89.6,1.1,-159.8,471,730,0
R,,3848125,-1.975,1.959,-0.092,56.7,120.8,-281.8,693,798,0
R,,3848184,-0.414,0.963,-0.067,-60.4,20.1,-108.2,745,857,0
R,,3848245,-0.106,1.117,-0.117,10.4,-22.4,-46.4,769,881,0
R,,3848304,-0.108,0.973,-0.276,21.8,-32.6,-26.4,772,888,0
R,,3848365,0.004,1.032,-0.244,9.3,-49.2,-22.5,757,891,0
R,,3848424,-0.185,0.966,-0.316,-15.4,-31.6,-31.0,720,899,0
R,,3848485,-0.094,0.993,-0.084,-18.1,-41.4,-44.6,671,903,0
R,,3848544,-0.169,1.167,-0.253,-43.4,-30.4,-59.8,655,906,0
R,,3848604,-0.028,1.544,-0.100,-94.2,-32.2,-106.1,627,902,0
R,,3848695,1.265,2.304,0.189,-191.0,-28.2,-253.3,270,897,0
R,,3848754,0.894,0.872,-0.438,-145.2,109.4,-224.2,334,814,0
R,,3848823,0.802,0.270,-0.293,70.9,-45.2,151.2,498,717,0
R,,3848905,0.468,0.493,-0.057,144.0,-49.5,277.3,489,654,0
R,,3848964,0.262,1.178,-0.255,164.7,46.6,346.5,520,660,0
R,,3849054,-1.614,2.601,-0.927,190.1,89.4,280.1,488,712,0
R,,3849115,-1.229,2.536,2.198,-139.2,64.8,-87.0,434,753,0
R,,3849174,-2.868,2.441,0.140,18.8,198.5,-327.6,697,800,0
R,,3849235,-0.918,1.102,0.239,-77.7,32.7,-138.6,744,856,0
R,,3849294,-0.061,1.035,-0.171,24.5,-7.6,-50.4,768,881,0
R,,3849355,-0.166,0.916,-0.155,8.7,-26.8,-30.1,773,889,0
R,,3849415,-0.032,0.997,-0.106,14.5,-39.8,-23.6,761,893,0
R,,3849474,-0.105,0.986,-0.255,1.2,-32.9,-26.6,732,899,0
R,,3849535,-0.076,1.006,-0.221,-9.3,-38.2,-43.1,660,906,0
R,,3849625,-0.146,1.296,-0.100,-57.5,-19.6,-78.4,620,903,0
R,,3849684,-0.013,1.745,-0.083,-130.6,-48.3,-132.0,564,902,0
R,,3849775,-0.943,1.850,-0.518,-189.4,162.8,-345.3,260,888,0
R,,3849834,0.379,0.024,-0.774,-92.3,-23.3,-63.1,572,737,0
R,,3849924,0.222,0.195,-0.096,32.9,-41.3,229.6,486,688,0
R,,3849985,0.223,0.619,-0.227,87.7,37.8,317.1,516,647,0
R,,3850044,-0.073,1.484,-0.678,115.7,103.3,347.6,507,661,0
R,,3850105,-1.320,2.435,-0.464,141.4,108.8,334.6,494,685,0
R,,3850165,-2.411,2.069,0.834,184.7,-227.7,92.4,409,726,0
R,,3850224,1.376,0.919,0.039,-128.8,304.9,-234.8,658,758,0
R,,3850285,0.046,0.771,-0.494,2.0,3.2,-158.8,726,836,0
R,,3850344,-0.154,1.070,0.240,-43.4,-22.8,-107.4,768,880,0
R,,3850405,0.008,0.976,0.011,19.1,-17.0,-48.1,776,892,0
R,,3850464,-0.059,1.069,-0.134,-3.3,-26.7,-30.9,767,895,0
R,,3850525,-0.065,1.026,-0.097,7.7,-16.1,-31.4,752,898,0
R,,3850584,-0.182,0.988,-0.184,13.3,-42.2,-19.6,716,905,0
R,,3850645,-0.052,1.110,-0.073,-24.9,-17.2,-40.3,662,907,0
R,,3850705,-0.069,1.281,0.010,-70.9,-10.2,-68.8,634,906,0
R,,3850764,0.043,1.673,-0.054,-130.2,-14.0,-123.8,609,901,0
R,,3850825,1.443,2.315,-0.542,-174.7,-25.0,-189.9,263,898,0
R,,3850884,0.592,1.596,-1.209,-166.6,256.2,-240.2,286,851,0
R,,3850974,0.357,0.169,-0.336,-5.9,20.9,146.7,537,703,0
R,,3851065,0.275,0.585,-0.361,54.3,70.3,294.9,522,645,0
R,,3851125,-0.003,1.381,-0.774,103.8,111.2,349.6,526,659,0
R,,3851185,-0.874,2.398,-0.663,183.7,161.9,322.1,524,660,0
R,,3851245,-2.585,2.522,0.448,172.6,-279.2,139.4,425,701,0
R,,3851304,-0.300,1.308,0.936,-175.6,296.3,-248.5,618,717,0
R,,3851364,-0.319,1.609,0.176,-8.5,-81.6,-120.6,701,811,0
R,,3851424,0.201,0.857,-0.556,-27.7,14.9,-84.4,757,867,0
R,,3851485,-0.023,0.981,-0.058,19.7,-31.2,-49.0,772,884,0
R,,3851544,0.011,1.036,-0.164,-14.9,-11.0,-39.6,765,893,0
R,,3851634,-0.163,1.046,0.034,11.7,-14.8,-25.6,738,899,0
R,,3851695,-0.111,1.067,-0.044,-15.4,-25.6,-35.1,664,905,0
R,,3851754,-0.119,1.203,-0.009,-45.9,-9.9,-54.2,671,903,0
R,,3851823,-0.014,1.462,-0.050,-100.5,4.1,-94.7,664,902,0
R,,3851875,0.574,2.401,-0.072,-136.9,-105.2,-125.5,544,903,0
R,,3851935,-0.453,1.700,-0.332,-251.0,224.0,-319.6,233,887,0
R,,3852025,0.417,0.063,-0.344,-28.2,-1.6,105.6,521,699,0
R,,3852084,0.116,0.186,-0.052,-23.5,21.2,215.5,529,701,0
R,,3852145,0.155,0.632,-0.470,32.2,118.6,295.6,526,675,0
R,,3852205,0.079,1.260,-0.964,100.3,107.8,337.6,508,686,0
R,,3852298,-1.790,2.037,-1.022,112.5,19.3,321.0,501,728,0
R,,3852384,-1.041,1.973,0.460,-64.1,153.4,-268.7,563,699,0
R,,3852445,-0.648,1.397,0.275,47.0,-50.8,-130.1,696,804,0
R,,3852504,-0.345,1.041,0.186,-52.5,26.2,-93.8,756,870,0
R,,3852565,-0.123,1.060,-0.055,-0.6,-1.6,-60.5,770,886,0
R,,3852625,-0.159,1.000,-0.055,13.3,-20.1,-30.7,773,892,0
R,,3852685,-0.074,1.022,-0.080,27.9,-32.9,-26.5,761,893,0
R,,3852745,-0.156,0.970,-0.144,19.3,-20.6,-28.3,722,904,0
R,,3852804,-0.094,1.008,-0.208,-18.0,-16.8,-40.8,679,903,0
R,,3852865,-0.160,1.138,-0.132,-45.4,-21.7,-55.2,678,906,0
R,,3852954,-0.020,1.719,-0.175,-136.2,-3.7,-115.6,677,898,0
R,,3853015,1.254,2.687,-0.448,-179.5,-48.6,-201.2,392,896,0
R,,3853075,0.432,1.252,-0.372,-139.0,197.9,-234.0,263,853,0
R,,3853134,0.283,0.055,-0.223,-9.5,-8.5,84.6,526,683,0
R,,3853194,0.186,0.090,-0.008,48.5,22.8,202.8,539,679,0
R,,3853254,0.231,0.501,-0.255,90.6,45.0,294.2,535,665,0
R,,3853344,-0.089,1.971,-0.272,148.5,134.6,332.0,508,705,0
R,,3853405,-2.127,2.574,-1.050,109.1,96.8,305.2,486,713,0
R,,3853463,-0.462,2.148,1.886,-121.8,-80.3,-70.5,438,739,0
R,,3853525,4.330,1.204,-0.279,-90.6,130.1,-77.8,667,767,9
R,,3853584,-0.387,0.912,0.301,-42.2,-8.6,-138.1,725,834,0
R,,3853674,-0.048,1.049,-0.112,6.9,-25.4,-46.4,767,880,0
R,,3853765,-0.084,1.042,-0.181,8.6,-30.2,-30.6,770,888,0
R,,3853825,-0.053,1.001,-0.175,14.0,-34.0,-31.7,757,891,0
R,,3853884,-0.153,0.959,-0.228,-1.6,-46.6,-33.1,738,902,0
R,,3853945,-0.173,1.107,-0.249,-28.2,-31.8,-50.9,681,904,0
R,,3854004,-0.088,1.312,-0.135,-60.4,-29.4,-77.5,664,905,0
R,,3854065,0.089,1.885,-0.219,-148.0,-29.1,-145.8,636,900,0
R,,3854125,1.373,2.324,-0.459,-160.5,-75.1,-233.3,302,898,0
R,,3854185,0.706,1.238,-0.666,-129.1,136.6,-213.9,351,832,0
R,,3854275,0.539,0.012,-0.066,41.9,-9.7,180.1,503,700,0
R,,3854365,0.227,0.596,-0.192,124.8,24.5,307.0,518,678,0
R,,3854455,-0.522,2.175,-0.555,184.8,98.6,334.4,504,718,0
R,,3854544,-2.189,2.049,1.189,119.5,-267.1,58.3,438,751,0
R,,3854605,3.782,1.216,-0.887,-46.9,199.2,-132.6,670,772,0
R,,3854665,0.161,0.267,-0.010,-21.7,18.7,-143.5,716,828,0
R,,3854725,-0.255,1.039,0.051,-40.3,-24.5,-78.1,756,870,0
R,,3854785,-0.013,0.942,-0.128,34.5,-19.3,-39.7,767,879,0
R,,3854845,-0.064,0.993,-0.231,-3.0,-25.5,-34.2,768,885,0
R,,3854905,-0.089,0.991,-0.240,18.6,-41.5,-25.9,760,892,0
R,,3854964,-0.139,1.004,-0.248,3.2,-41.3,-28.0,752,900,0
R,,3855024,-0.114,1.053,-0.219,-14.6,-43.2,-40.1,715,904,0
R,,3855084,-0.107,1.260,-0.137,-52.9,-33.1,-67.7,675,902,0
R,,3855145,-0.083,1.587,-0.296,-115.0,-26.7,-116.9,650,901,0
R,,3855205,0.931,2.288,-0.833,-178.7,-77.4,-179.1,472,897,0
R,,3855265,-0.679,1.731,-0.402,-196.0,80.6,-337.9,217,883,0
R,,3855325,-0.325,-0.745,-0.058,13.8,-84.1,-18.3,572,722,0
R,,3855393,0.321,0.094,0.080,56.3,-54.7,192.7,530,702,0
R,,3855445,0.401,0.405,-0.134,119.0,11.2,272.4,530,668,0
R,,3855535,-0.031,1.682,-0.315,141.3,130.2,332.5,540,699,0
R,,3855595,-0.914,2.258,-0.289,108.4,109.6,333.3,516,730,0
R,,3855655,-2.086,2.017,1.660,146.2,-228.9,58.3,447,744,0
R,,3855714,1.150,0.813,0.065,-135.8,281.6,-214.9,645,735,0
R,,3855775,-0.321,0.950,-0.466,-0.3,-45.9,-138.3,713,822,0
R,,3855834,0.037,0.890,-0.138,-38.2,-23.1,-74.8,762,874,0
R,,3855895,-0.019,0.919,-0.075,40.5,-34.3,-30.1,773,884,0
R,,3855955,-0.037,1.048,-0.308,-1.6,-26.8,-20.3,771,885,0
R,,3856015,0.028,0.992,-0.193,16.8,-6.6,-34.2,763,890,0
R,,3856075,-0.118,1.037,-0.207,-7.2,-32.9,-33.0,760,901,0
R,,3856135,-0.111,0.978,-0.188,-5.7,-45.6,-39.9,731,901,0
R,,3856195,-0.111,1.252,-0.115,-50.6,-28.9,-62.3,674,902,0
R,,3856254,-0.022,1.530,-0.090,-116.6,-5.2,-103.2,638,905,0
R,,3856315,0.828,2.351,-0.361,-199.5,-66.9,-152.8,496,897,0
R,,3856375,-0.732,1.586,-0.481,-207.9,154.5,-322.8,229,887,0
R,,3856435,0.183,-0.150,-0.267,-52.3,-19.5,-51.5,579,753,0
R,,3856495,0.322,0.152,-0.361,22.2,-17.4,170.0,513,676,0
R,,3856555,0.252,0.427,-0.239,65.6,10.1,283.7,507,649,0
R,,3856615,0.140,1.095,-0.625,104.5,106.1,322.7,541,658,0
R,,3856675,-0.689,2.087,-0.578,168.0,141.1,311.4,533,675,0
R,,3856735,-2.190,2.030,-1.047,158.9,5.6,224.7,474,720,0
R,,3856794,-1.039,1.626,0.399,-69.3,166.1,-164.0,420,740,0
R,,3856855,-1.890,1.869,-0.305,60.4,171.0,-244.7,691,796,0
R,,3856915,-0.563,0.980,-0.043,-9.6,18.4,-113.7,742,852,0
R,,3856975,0.011,0.949,0.019,1.1,-18.0,-46.9,765,877,0
R,,3857035,-0.109,0.965,-0.149,31.7,-32.0,-22.4,769,882,0
R,,3857095,0.059,1.015,-0.205,14.8,-27.1,-24.0,759,883,0
R,,3857155,-0.069,1.044,-0.188,2.5,-15.6,-26.6,748,892,0
R,,3857215,-0.038,0.921,-0.348,-32.6,-27.3,-29.1,735,897,0
R,,3857275,-0.101,1.124,-0.113,-31.6,-26.2,-45.5,667,906,0
R,,3857334,-0.035,1.334,-0.027,-68.6,-3.4,-75.6,580,905,0
R,,3857395,0.119,1.842,-0.020,-170.3,-26.1,-128.9,501,904,0
R,,3857455,1.374,2.236,-0.506,-190.9,30.5,-218.3,312,899,0
R,,3857515,0.755,0.943,-0.728,-143.1,236.3,-233.8,264,843,0
R,,3857575,0.783,0.185,-0.578,-3.5,50.2,121.6,517,702,0
R,,3857635,0.165,0.248,-0.234,-6.8,20.2,228.9,508,706,0
R,,3857695,0.230,0.705,-0.299,48.2,70.5,324.3,478,670,0
R,,3857754,-0.023,1.497,-0.897,105.5,87.0,352.8,478,655,0
R,,3857815,-1.362,2.379,-0.049,168.8,112.9,325.6,465,673,0
R,,3857875,-1.870,2.144,0.740,173.8,-194.3,58.3,409,729,0
R,,3857935,3.038,1.334,0.277,-133.9,125.5,-160.8,667,767,0
R,,3857995,0.695,0.268,-0.019,10.3,31.4,-128.5,716,832,0
R,,3858055,-0.293,1.127,0.288,-1.1,-9.5,-72.9,755,868,0
R,,3858115,-0.056,0.963,-0.077,25.2,-30.7,-33.6,765,879,0
R,,3858183,0.045,1.013,-0.149,14.7,-24.8,-20.0,751,884,0
R,,3858235,-0.030,1.022,-0.107,11.6,-9.4,-34.0,740,889,0
R,,3858294,-0.103,0.979,-0.157,-11.7,-15.0,-27.0,726,897,0
R,,3858355,-0.117,1.105,-0.165,-23.6,-30.3,-51.8,625,904,0
R,,3858415,0.007,1.333,0.042,-66.8,4.4,-80.4,573,902,0
R,,3858475,0.166,1.856,-0.068,-152.4,-23.8,-132.8,506,904,0
R,,3858535,1.368,2.374,-0.461,-207.2,69.5,-237.7,323,899,0
R,,3858597,0.637,1.390,-0.460,-173.5,238.9,-213.5,447,810,0
R,,3858655,0.985,0.420,-0.406,0.7,40.4,129.7,521,719,0
R,,3858715,0.181,0.203,-0.390,1.4,19.2,266.3,505,705,0
R,,3858775,0.167,0.738,-0.534,50.0,72.4,326.5,488,670,0
R,,3858834,-0.260,1.709,-0.892,128.5,78.7,365.1,493,644,0
R,,3858895,-1.693,2.673,-0.825,156.3,116.0,311.2,478,643,0
R,,3858955,-0.771,2.672,1.862,83.3,-83.3,-48.5,411,696,0
R,,3859015,4.372,1.675,1.553,-153.1,114.7,-115.2,679,781,9
R,,3859075,0.113,0.459,-0.265,-4.4,47.8,-114.7,742,855,0
R,,3859135,0.058,0.914,0.262,3.7,3.5,-52.9,772,885,0
R,,3859195,-0.074,0.930,-0.064,29.4,-36.7,-27.6,770,892,0
R,,3859255,0.053,1.014,-0.099,3.1,-19.5,-35.0,739,893,0
R,,3859315,-0.222,1.011,-0.275,-6.7,7.7,-42.9,717,897,0
R,,3859375,-0.098,0.969,-0.118,0.1,-25.9,-43.8,676,903,0
R,,3859435,-0.140,1.198,-0.138,-38.5,-10.3,-57.6,620,907,0
R,,3859495,0.032,1.434,0.018,-91.1,-10.5,-80.6,629,904,0
R,,3859555,0.334,2.184,-0.150,-177.4,-43.4,-144.4,535,897,0
R,,3859615,0.534,1.873,-0.249,-280.7,186.1,-324.5,258,891,0
R,,3859675,-0.172,0.494,-1.545,-106.4,108.3,-100.6,564,707,0
R,,3859735,0.576,0.342,-0.575,31.0,-32.0,150.6,533,705,0
R,,3859795,0.344,0.374,-0.208,91.3,-21.3,281.5,506,667,0
R,,3859855,0.163,1.001,-0.435,139.3,46.9,341.4,522,666,0
R,,3859915,-0.620,2.254,-0.678,217.1,76.6,345.8,507,682,0
R,,3859975,-2.463,2.185,-0.383,158.2,12.1,240.1,472,721,0
R,,3860035,-1.303,1.463,-0.152,-96.8,112.4,-195.3,447,710,0
R,,3860095,-2.272,1.809,-1.058,-9.3,30.1,-214.9,699,804,0
R,,3860155,-0.611,1.106,0.209,-48.3,9.4,-119.5,755,867,0
R,,3860215,-0.080,1.057,-0.128,23.9,-25.2,-50.8,771,884,0
R,,3860275,-0.130,0.983,-0.191,9.5,-33.8,-30.5,776,891,0
R,,3860335,-0.062,1.009,-0.145,26.6,-41.5,-21.2,761,892,0
R,,3860395,-0.164,0.995,-0.261,4.7,-21.4,-31.0,735,897,0
R,,3860455,-0.120,0.973,-0.366,-3.5,-36.2,-56.2,677,905,0
R,,3860514,-0.176,1.253,-0.156,-36.2,-24.7,-78.6,671,904,0
R,,3860575,-0.092,1.574,-0.344,-104.6,-24.3,-125.8,646,899,0
R,,3860635,0.948,2.547,-0.901,-196.7,-38.9,-214.2,425,892,0
R,,3860695,-0.243,1.634,-0.072,-155.5,33.8,-333.4,222,874,0
R,,3860755,-0.637,-0.194,-0.212,30.5,-38.8,16.6,559,678,0
R,,3860815,0.509,0.184,0.260,114.9,55.6,210.8,498,675,0
R,,3860875,0.284,0.457,0.018,80.0,75.0,308.8,479,690,0
R,,3860935,0.274,1.215,-0.238,96.6,-34.4,367.4,469,679,0
R,,3860995,-0.971,2.546,0.059,142.7,7.2,353.9,460,738,0
R,,3861055,-2.763,2.658,0.567,108.1,-146.3,98.3,457,740,0
R,,3861115,2.464,0.535,-2.946,-18.8,57.5,-150.0,668,768,0
R,,3861175,-0.051,0.821,0.228,-38.7,-49.9,-126.1,723,836,0
R,,3861235,-0.143,1.111,-0.096,-17.7,-17.4,-75.8,760,876,0
R,,3861295,-0.012,0.928,-0.136,34.2,-36.5,-28.6,770,885,0
R,,3861355,0.012,1.011,-0.284,3.5,-44.7,-23.3,763,887,0
R,,3861423,-0.196,1.006,-0.144,-8.7,-18.3,-36.5,760,899,0
R,,3861475,-0.137,0.995,-0.229,2.0,-57.3,-36.5,745,898,0
R,,3861535,-0.100,1.162,-0.070,-34.1,-37.4,-53.7,683,905,0
R,,3861595,-0.055,1.384,-0.077,-75.8,-32.6,-91.6,662,902,0
R,,3861655,0.456,2.378,-0.174,-198.8,-21.4,-172.8,559,899,0
R,,3861715,0.203,1.529,-0.863,-172.5,111.5,-329.6,324,891,0
R,,3861775,0.134,-0.331,-1.216,-68.0,0.1,-57.7,563,710,0
R,,3861835,0.393,0.054,-0.467,33.8,-43.1,165.2,516,707,0
R,,3861895,0.288,0.292,-0.151,86.5,-9.0,285.5,488,648,0
R,,3861955,0.193,0.923,-0.371,114.3,87.7,341.8,517,651,0
R,,3862015,-0.720,2.475,-0.742,173.8,162.7,347.0,500,672,0
R,,3862075,-2.790,2.228,-0.669,149.9,-51.5,207.3,491,726,0
R,,3862135,-1.097,1.411,0.038,-39.9,99.1,-182.0,456,698,0
R,,3862195,-1.032,1.666,0.224,37.5,-50.4,-148.1,695,797,0
R,,3862255,-0.276,0.989,0.045,-59.5,32.0,-91.4,751,863,0
R,,3862315,-0.090,1.125,-0.003,9.1,-10.5,-58.5,776,891,0
R,,3862375,-0.122,1.118,-0.081,-7.8,-15.4,-18.4,767,892,0
R,,3862435,-0.044,1.013,-0.036,18.7,-31.5,-33.6,755,895,0
R,,3862525,-0.043,1.124,0.040,-13.4,-23.0,-37.6,688,906,0
R,,3862585,-0.166,1.081,-0.096,-47.3,-19.2,-53.4,665,906,0
R,,3862645,-0.078,1.360,0.010,-104.3,-1.1,-86.6,673,905,0
R,,3862706,0.406,2.258,-0.184,-167.0,-49.1,-142.7,559,895,0
R,,3862765,0.083,1.953,-0.400,-242.2,171.8,-316.4,295,890,0
R,,3862825,0.579,0.652,-0.485,-97.3,38.1,-80.0,552,717,0
R,,3862884,0.345,0.021,-0.377,-24.9,43.6,147.4,545,708,0
R,,3862945,0.245,0.467,-0.293,34.0,34.9,265.8,529,690,0
R,,3863005,0.157,0.877,-0.476,77.3,89.0,340.7,519,654,0
R,,3863095,-1.170,2.635,-0.246,180.6,114.5,332.4,485,685,0
R,,3863155,-3.110,1.980,0.920,206.8,-267.1,100.6,448,728,0
R,,3863215,0.455,1.115,-1.043,-105.7,220.1,-259.1,648,742,0
R,,3863275,-0.277,0.873,-0.236,2.9,-70.9,-133.2,716,825,0
R,,3863335,0.082,0.931,-0.190,-23.9,-1.6,-84.2,762,875,0
R,,3863395,-0.022,0.994,-0.033,22.1,-24.8,-45.0,779,892,0
R,,3863456,-0.007,1.028,-0.116,-2.2,-20.8,-28.9,767,892,0
R,,3863545,-0.164,1.029,-0.031,-6.7,-13.3,-29.8,745,898,0
R,,3863605,-0.085,1.031,-0.047,-5.6,-35.9,-28.3,673,906,0
R,,3863666,-0.077,1.203,-0.133,-41.3,-20.0,-58.8,630,908,0
R,,3863725,-0.004,1.444,-0.048,-92.8,-7.4,-94.6,599,904,0
R,,3863785,0.535,2.361,-0.050,-176.2,-55.0,-144.4,456,900,0
R,,3863845,-0.572,1.885,-0.514,-234.5,186.6,-355.5,281,888,0
R,,3863905,0.368,0.053,-0.497,-51.3,6.7,-60.7,569,747,0
R,,3863965,0.371,0.082,-0.317,-21.6,16.9,163.4,529,709,0
R,,3864025,0.252,0.525,-0.327,25.1,46.6,284.7,493,675,0
R,,3864085,-0.012,1.075,-0.663,87.0,94.4,342.9,508,664,0
R,,3864145,-0.581,2.020,-0.642,171.9,119.9,343.6,507,646,0
R,,3864206,-2.535,2.224,-0.906,144.0,-81.9,222.8,465,679,0
R,,3864274,-0.906,2.252,0.902,-107.1,196.2,-257.4,571,696,0
R,,3864325,-2.495,1.809,-1.223,24.2,-3.8,-188.5,695,802,0
R,,3864385,-1.030,1.116,0.231,-65.4,20.6,-112.0,758,869,0
R,,3864445,-0.087,1.117,-0.025,17.5,-16.5,-52.3,776,886,0
R,,3864505,-0.193,0.976,-0.119,15.0,-25.9,-30.5,777,891,0
R,,3864595,-0.011,1.091,-0.009,0.0,-17.0,-31.0,747,899,0
R,,3864655,-0.149,0.991,-0.116,-11.3,-26.6,-29.0,644,906,0
R,,3864719,-0.157,1.106,-0.150,-29.4,-16.7,-55.5,588,908,0
R,,3864775,-0.082,1.307,0.075,-61.2,-15.0,-76.7,557,906,0
R,,3864835,0.090,1.795,-0.095,-131.9,-26.3,-128.3,467,905,0
R,,3864895,1.274,2.282,-0.260,-201.8,46.2,-240.2,247,899,0
R,,3864956,0.642,0.810,-0.436,-130.1,212.3,-197.5,322,837,0
R,,3865045,0.402,0.172,-0.443,24.7,-36.0,189.8,496,696,0
R,,3865105,0.319,0.542,-0.264,60.9,-5.0,297.2,496,661,0
R,,3865166,0.068,1.260,-0.552,101.7,104.3,343.9,511,668,0
R,,3865225,-0.732,2.196,-0.627,191.1,134.7,339.9,501,675,0
R,,3865286,-2.501,2.368,-0.393,153.0,-85.4,178.0,468,725,0
R,,3865345,-1.220,1.101,-0.228,-21.2,148.6,-179.3,470,725,0
R,,3865405,-2.153,2.277,-0.956,17.0,-57.4,-179.0,699,806,0
R,,3865465,-0.389,1.013,0.275,-26.0,18.0,-108.7,755,869,0
R,,3865568,-0.100,0.988,-0.069,28.7,-27.8,-40.2,773,890,0
R,,3865585,-0.094,1.014,-0.168,17.2,-32.9,-31.2,766,892,0
R,,3865675,-0.146,0.944,-0.179,-7.9,-23.4,-27.0,715,902,0
R,,3865765,-0.105,0.969,-0.152,5.5,-27.8,-42.2,617,908,0
R,,3865826,-0.141,1.194,-0.127,-24.2,-24.0,-59.7,591,907,0
R,,3865885,-0.048,1.407,-0.067,-77.9,-12.5,-91.7,525,904,0
R,,3865989,0.909,1.925,-0.660,-184.5,57.4,-248.5,301,899,0
R,,3866004,-0.278,1.795,-0.350,-231.1,179.9,-315.7,280,885,0
R,,3866065,0.040,0.121,-1.054,-77.7,78.8,-83.1,547,712,0
R,,3866125,0.525,0.260,-0.362,14.9,-9.3,137.0,498,698,0
R,,3866185,0.203,0.363,-0.155,72.3,-6.9,258.7,479,657,0
R,,3866246,0.197,0.894,-0.390,111.5,53.0,329.7,495,669,0
R,,3866305,-0.392,1.974,-0.436,146.4,123.4,326.0,506,681,0
R,,3866365,-1.905,2.196,-0.247,158.6,37.1,282.2,463,738,0
R,,3866425,-0.815,2.281,2.055,-90.3,34.5,-124.5,458,752,0
R,,3866485,2.011,2.263,0.572,-132.5,-72.7,-162.2,686,791,0
R,,3866545,0.286,0.483,-0.730,-7.3,17.4,-124.1,736,849,0
R,,3866635,-0.088,1.003,-0.068,33.5,-28.7,-35.0,768,880,0
R,,3866725,-0.014,1.003,-0.242,24.4,-39.8,-24.7,759,885,0
R,,3866786,-0.075,1.003,-0.254,-0.9,-26.8,-33.8,753,893,0
R,,3866845,-0.117,0.955,-0.314,-6.0,-44.8,-43.1,737,900,0
R,,3866905,-0.162,1.156,-0.117,-29.4,-29.8,-60.3,667,905,0
R,,3866965,-0.070,1.440,-0.114,-78.2,-25.6,-93.4,630,903,0
R,,3867025,0.541,2.200,-0.142,-192.0,-38.7,-174.8,478,902,0
R,,3867116,0.124,1.172,-0.075,-151.6,117.3,-286.5,194,865,0
R,,3867175,0.029,0.013,-0.427,-12.9,-83.7,71.1,529,692,0
R,,3867235,0.307,0.143,0.087,57.4,-22.8,210.4,511,703,0
R,,3867295,0.329,0.540,-0.095,120.4,30.1,303.6,514,682,0
R,,3867355,0.196,1.359,-0.389,126.2,51.4,345.4,490,676,0
R,,3867445,-2.325,2.043,-0.900,156.2,20.0,271.8,475,734,0
R,,3867505,-0.794,2.098,0.645,-66.7,111.8,-146.7,458,747,0
R,,3867565,-2.107,2.126,0.054,30.5,162.4,-286.7,693,797,0
R,,3867656,-0.017,0.996,-0.045,-46.2,-12.0,-78.4,761,874,0
R,,3867746,-0.113,1.030,-0.183,19.8,-23.9,-29.9,774,887,0
R,,3867814,-0.082,0.977,-0.072,5.1,-21.7,-32.5,768,890,0
R,,3867866,-0.122,0.998,-0.206,7.7,-26.0,-32.4,759,894,0
R,,3867925,-0.087,0.990,-0.225,1.1,-44.0,-32.0,740,901,0
R,,3867985,-0.134,1.185,-0.162,-36.1,-28.7,-48.5,680,905,0
R,,3868045,-0.051,1.420,-0.136,-81.4,-18.2,-85.6,650,903,0
R,,3868105,0.197,2.001,-0.282,-191.2,-25.6,-154.9,585,897,0
R,,3868166,0.768,1.717,-0.230,-210.4,34.8,-270.1,252,890,0
R,,3868225,0.466,0.886,-0.211,-104.4,120.5,-160.7,494,774,0
R,,3868286,0.601,0.479,-0.423,56.4,-34.9,126.9,527,692,0
R,,3868345,0.251,0.246,-0.143,96.3,-23.3,251.5,521,676,0
R,,3868406,0.237,0.780,-0.307,137.9,61.1,318.4,534,674,0
R,,3868465,-0.192,1.979,-0.228,158.8,137.9,338.1,507,693,0
R,,3868525,-1.664,2.472,-0.924,165.6,61.1,281.2,479,731,0
R,,3868616,-0.868,1.759,0.657,-128.5,166.1,-266.4,569,699,0
R,,3868675,-0.838,1.118,0.624,-9.9,-37.5,-113.2,700,806,0
R,,3868735,-0.120,0.931,-0.122,-33.1,8.8,-81.2,759,872,0
R,,3868826,-0.061,0.998,-0.152,28.4,-28.0,-35.9,776,888,0
R,,3868885,-0.044,1.016,-0.157,0.4,-35.2,-28.4,767,897,0
R,,3868946,-0.142,0.935,-0.138,-7.1,-6.3,-35.0,734,899,0
R,,3869005,-0.130,1.038,-0.114,-21.2,-35.2,-37.1,667,906,0
R,,3869065,-0.163,1.049,-0.111,-29.8,-23.1,-48.7,622,904,0
R,,3869125,-0.091,1.324,-0.006,-67.5,-22.6,-80.4,576,905,0
R,,3869185,0.172,2.082,-0.085,-168.4,-17.5,-161.2,463,900,0
R,,3869246,0.976,1.769,-0.159,-228.4,56.2,-268.3,246,896,0
R,,3869305,0.323,1.273,-0.440,-119.4,152.6,-169.4,465,785,0
R,,3869366,0.661,0.486,-0.252,35.6,-3.2,126.4,476,691,0
R,,3869425,0.250,0.208,-0.120,31.0,7.8,251.9,502,685,0
R,,3869486,0.098,0.769,-0.549,73.0,132.4,327.9,510,671,0
R,,3869545,-0.239,1.886,-0.857,113.7,136.3,368.3,455,666,0
R,,3869605,-1.825,2.259,-1.109,129.9,67.0,300.2,433,706,0
R,,3869665,-1.195,2.102,1.641,101.4,-47.8,-16.8,408,744,0
R,,3869725,1.048,2.024,0.449,-50.7,218.2,-210.9,685,792,0
R,,3869786,0.085,0.502,-0.151,-10.5,68.6,-124.4,739,851,0
R,,3869875,0.021,0.995,-0.154,20.0,-8.9,-53.4,774,886,0
R,,3869935,-0.122,1.030,-0.087,-14.6,2.0,-43.4,772,892,0
R,,3869996,-0.079,0.998,-0.047,24.3,-27.9,-29.7,759,895,0
R,,3870055,-0.152,0.980,-0.178,9.5,-27.9,-25.4,734,900,0
R,,3870116,-0.082,1.086,-0.049,-15.7,-16.4,-32.8,673,908,0
R,,3870175,-0.118,1.206,-0.086,-45.7,-24.4,-56.5,681,909,0
R,,3870236,-0.016,1.413,-0.068,-105.5,-4.6,-107.4,662,902,0
R,,3870295,0.668,2.362,-0.290,-157.6,-81.7,-155.1,526,894,0
R,,3870385,0.667,1.119,-0.715,-146.7,193.9,-198.9,365,826,0
R,,3870489,0.163,0.174,-0.210,3.9,14.1,193.7,517,716,0
R,,3870505,0.103,0.175,-0.171,21.0,9.1,236.8,517,711,0
R,,3870565,0.172,0.686,-0.376,66.4,67.5,303.1,512,670,0
R,,3870668,-0.722,2.312,-0.549,199.7,106.6,326.2,471,650,0
R,,3870694,-1.269,2.371,-0.228,129.2,79.4,331.3,457,677,0
R,,3870746,-2.334,2.353,1.513,149.1,-198.4,60.0,385,725,0
R,,3870805,-1.020,1.522,0.826,-109.9,233.6,-277.1,585,700,0
R,,3870895,0.016,0.612,-0.223,0.4,56.3,-125.7,734,847,0
R,,3870956,-0.020,0.882,0.024,-21.5,-7.6,-64.5,769,880,0
R,,3871015,-0.056,0.950,-0.086,20.7,-15.8,-43.4,772,886,0
R,,3871076,-0.066,1.075,-0.151,7.8,-26.8,-29.1,766,891,0
R,,3871137,-0.073,1.004,-0.053,15.6,-19.7,-31.0,764,901,0
R,,3871196,-0.101,1.082,-0.040,5.1,-36.1,-26.1,744,899,0
R,,3871286,-0.066,1.314,0.054,-63.8,-24.0,-61.3,668,903,0
R,,3871375,0.333,2.152,-0.137,-190.5,-16.0,-133.0,580,896,0
R,,3871435,0.424,1.898,-0.476,-226.7,173.2,-308.6,258,888,0
R,,3871495,-0.006,0.693,-1.164,-115.5,71.2,-91.9,536,700,0
R,,3871555,0.521,0.349,-0.524,-18.7,58.8,131.1,520,707,0
R,,3871616,0.068,0.345,-0.432,24.9,38.0,262.2,530,694,0
R,,3871675,0.034,0.991,-0.387,60.9,78.0,318.5,516,678,0
R,,3871736,-0.440,1.883,-0.779,163.1,82.5,351.2,482,666,0
R,,3871795,-1.985,2.192,-0.713,146.8,61.6,255.0,475,672,0
R,,3871855,-0.796,1.773,1.688,-15.5,158.0,-106.4,427,743,0
R,,3871946,-0.247,1.192,0.383,-6.7,-14.4,-113.4,703,810,0
R,,3872005,-0.052,0.875,-0.134,-24.7,18.6,-90.3,762,874,0
R,,3872066,-0.044,0.996,-0.116,17.9,-19.3,-52.5,775,884,0
R,,3872125,-0.095,1.009,-0.079,9.8,-24.5,-33.3,776,889,0
R,,3872185,-0.048,1.009,-0.103,25.4,-28.7,-26.1,762,895,0
R,,3872246,-0.154,1.015,-0.240,12.1,-26.6,-27.6,743,897,0
R,,3872305,-0.076,1.222,-0.162,-21.8,-31.5,-44.3,675,905,0
R,,3872366,-0.130,1.216,-0.088,-54.6,-18.4,-64.1,671,904,0
R,,3872425,-0.034,1.536,-0.025,-119.4,2.9,-106.4,687,900,0
R,,3872486,0.739,2.360,-0.545,-171.2,-65.3,-151.8,524,892,0
R,,3872545,-0.594,1.961,-0.253,-195.1,154.4,-334.8,221,884,0
R,,3872606,-0.752,-0.792,-0.063,-31.2,12.1,-5.1,570,704,0
R,,3872666,0.293,-0.082,0.011,53.6,4.6,172.6,537,698,0
R,,3872755,0.334,0.718,-0.239,116.0,52.5,329.1,523,685,0
R,,3872816,-0.054,2.084,-0.212,125.7,132.5,348.6,492,715,0
R,,3872875,-1.881,2.408,-0.978,110.7,-10.2,311.8,459,744,0
R,,3872935,-1.130,2.298,1.950,-10.5,-112.6,-87.7,458,744,0
R,,3873026,-0.793,1.367,0.025,50.7,-6.1,-135.8,701,807,0
R,,3873085,-0.085,0.927,-0.072,-45.9,8.3,-91.4,766,880,0
R,,3873146,-0.100,0.987,-0.060,23.1,-39.4,-42.9,772,888,0
R,,3873206,-0.092,1.011,-0.303,10.7,-33.8,-25.0,775,893,0
R,,3873265,-0.091,0.986,-0.153,17.7,-32.4,-24.9,762,895,0
R,,3873325,-0.130,0.956,-0.316,18.9,-40.3,-26.9,742,901,0
R,,3873385,-0.118,1.024,-0.050,-7.7,-39.9,-36.4,676,906,0
R,,3873446,-0.148,1.271,-0.150,-41.5,-33.9,-59.0,699,906,0
R,,3873505,-0.073,1.596,-0.348,-110.2,-24.7,-112.8,665,901,0
R,,3873566,0.976,2.378,-0.617,-199.9,-80.7,-178.3,468,898,0
R,,3873656,0.412,1.156,-0.293,-91.0,106.8,-191.5,473,799,0
R,,3873715,0.877,0.299,-0.006,68.0,-59.1,102.4,498,730,0
R,,3873776,0.304,0.187,-0.022,105.6,-25.6,248.0,494,702,0
R,,3873835,0.277,0.664,-0.262,136.9,51.5,323.5,515,683,0
R,,3873896,0.053,1.970,-0.169,162.1,65.5,363.7,488,708,0
R,,3873986,-2.613,2.828,0.332,169.6,-145.0,145.0,485,747,0
R,,3874076,1.961,2.683,0.592,-116.6,5.7,-173.6,680,784,0
R,,3874135,-0.146,0.569,-0.480,-46.9,47.1,-119.0,737,848,0
R,,3874204,-0.035,1.029,-0.025,-1.2,-24.9,-52.6,768,880,0
R,,3874255,-0.051,0.952,-0.130,27.5,-21.2,-29.6,772,886,0
R,,3874316,0.011,1.006,-0.231,1.0,-28.2,-34.2,767,890,0
R,,3874375,-0.102,1.020,-0.192,5.9,-23.3,-30.3,762,900,0
R,,3874436,-0.135,0.980,-0.183,-8.5,-45.2,-31.5,737,900,0
R,,3874496,-0.093,1.114,-0.187,-35.0,-29.2,-43.5,670,906,0
R,,3874585,0.018,1.568,-0.056,-115.7,1.1,-106.9,620,902,0
R,,3874646,1.010,2.475,-0.862,-174.5,-53.6,-186.2,406,898,0
R,,3874706,-0.697,1.481,-0.760,-187.3,138.3,-329.4,183,876,0
R,,3874765,-0.963,-0.945,-0.089,-41.3,-26.1,-7.6,570,717,0
R,,3874826,0.366,0.056,-0.056,28.7,-23.1,188.7,522,704,0
R,,3874885,0.355,0.474,-0.164,84.9,35.2,288.6,509,656,0
R,,3874946,0.071,1.203,-0.589,104.7,119.2,350.2,511,653,0
R,,3875005,-0.919,2.380,-0.660,188.8,132.8,343.0,478,664,0
R,,3875095,-0.492,2.098,1.667,56.7,41.4,-58.8,425,750,0
R,,3875156,3.309,0.803,0.204,-105.2,286.1,-173.6,660,761,0
R,,3875246,-0.739,1.011,-0.002,-36.4,36.9,-116.3,742,853,0
R,,3875305,-0.109,1.148,0.105,-8.8,1.6,-58.5,768,878,0
R,,3875366,-0.119,0.994,-0.054,23.7,-18.3,-27.7,772,888,0
R,,3875425,-0.015,1.006,-0.108,7.4,-37.2,-35.1,760,892,0
R,,3875486,-0.158,1.041,-0.152,16.5,-23.9,-34.2,746,895,0
R,,3875545,-0.041,1.046,-0.143,-0.4,-50.2,-33.2,698,903,0
R,,3875606,-0.100,1.220,-0.126,-41.6,-23.8,-58.6,667,900,0
R,,3875666,-0.081,1.469,-0.165,-93.5,-1.4,-98.0,656,904,0
R,,3875726,0.519,2.381,-0.271,-177.2,-74.4,-140.3,538,894,0
R,,3875786,-0.528,1.749,-0.537,-203.0,159.9,-347.2,244,892,0
R,,3875845,0.184,0.069,0.047,-42.9,-9.8,-51.1,568,749,0
R,,3875906,0.169,0.060,-0.032,-23.1,-9.8,159.5,532,716,0
R,,3875965,0.273,0.465,-0.282,24.0,84.2,279.3,519,709,0
R,,3876055,-0.097,1.500,-0.953,98.3,120.0,367.9,497,663,0
R,,3876159,-1.932,2.514,-0.475,221.9,-125.5,153.3,489,729,0
R,,3876175,-2.137,2.465,0.965,121.4,-153.9,104.0,454,739,0
R,,3876236,0.930,1.154,0.581,-178.2,270.7,-242.3,658,751,0
R,,3876295,-0.508,1.102,-0.309,-17.5,-22.0,-154.4,719,832,0
R,,3876356,-0.117,0.913,-0.093,-50.4,-32.2,-77.9,762,875,0
R,,3876416,0.041,0.949,-0.064,23.5,-28.2,-35.8,776,886,0
R,,3876476,-0.001,1.035,-0.153,-5.3,-17.6,-29.9,765,889,0
R,,3876536,-0.060,0.991,-0.106,9.2,-6.9,-36.8,756,895,0
R,,3876595,-0.140,0.999,-0.123,8.9,-35.1,-28.4,740,900,0
R,,3876686,-0.115,1.190,-0.092,-35.5,-18.8,-56.2,662,905,0
R,,3876746,-0.019,1.401,-0.063,-86.8,1.8,-86.7,638,907,0
R,,3876806,0.255,1.984,0.056,-171.7,-40.1,-140.7,570,898,0
R,,3876896,-0.177,1.649,-0.522,-166.3,209.8,-322.9,183,876,0
R,,3876956,-0.511,0.036,-0.563,-22.9,19.8,39.5,560,726,0
R,,3877016,0.213,0.119,-0.139,2.5,-19.0,201.5,528,707,0
R,,3877076,0.313,0.565,-0.271,52.2,61.2,304.9,503,668,0
R,,3877144,-0.156,1.461,-1.060,115.7,134.1,346.4,517,656,0
R,,3877196,-0.974,2.271,-0.804,203.7,110.2,325.5,478,670,0
R,,3877255,-2.529,2.650,-0.073,159.4,-324.9,173.1,402,729,0
R,,3877316,0.016,1.260,1.728,-252.7,401.6,-305.9,628,732,0
R,,3877375,-0.166,1.386,-0.045,18.8,-52.7,-116.2,710,819,0
R,,3877436,0.162,0.862,-0.216,-76.8,-0.1,-82.3,765,875,0
R,,3877496,0.069,0.936,-0.287,19.8,-37.5,-49.6,779,889,0
R,,3877589,-0.072,1.033,-0.061,-5.3,-21.7,-30.6,767,895,0
R,,3877675,-0.236,1.004,-0.047,8.2,-20.2,-24.8,744,899,0
R,,3877736,-0.031,1.027,-0.080,-12.3,-23.7,-31.2,672,903,0
R,,3877795,-0.046,1.227,-0.184,-43.0,-13.1,-58.5,667,904,0
R,,3877856,0.043,1.637,-0.017,-125.1,-0.6,-106.8,670,903,0
R,,3877916,1.215,2.533,-0.578,-170.3,-67.6,-164.3,416,898,0
R,,3877976,0.003,1.703,-0.618,-168.3,229.7,-330.3,190,868,0
R,,3878036,-0.364,0.213,-0.601,-8.6,-37.1,28.4,547,700,0
R,,3878096,0.279,0.042,0.119,25.9,-17.6,195.9,536,691,0
R,,3878156,0.315,0.474,-0.265,82.4,66.2,298.8,520,670,0
R,,3878246,-0.434,1.905,-0.465,176.8,66.7,363.6,474,681,0
R,,3878306,-2.083,2.079,-0.671,145.7,28.2,226.8,435,751,0
R,,3878366,-1.679,1.476,0.633,-6.5,90.1,-58.9,447,766,0
R,,3878425,6.662,1.629,-0.149,-115.0,54.3,-82.7,680,786,9
R,,3878486,0.292,0.469,-0.127,-6.2,57.4,-116.2,740,851,0
R,,3878545,-0.129,0.963,-0.015,-33.3,-40.9,-64.7,766,876,0
R,,3878649,-0.020,1.069,-0.330,2.0,-42.7,-24.4,769,888,0
R,,3878666,0.018,0.991,-0.255,0.9,-37.4,-29.1,766,888,0
R,,3878726,-0.135,0.985,-0.156,18.7,-8.4,-42.9,757,894,0
R,,3878786,-0.121,0.988,-0.226,2.4,-50.4,-37.4,748,898,0
R,,3878846,-0.135,1.114,-0.145,-32.9,-35.6,-50.8,681,905,0
R,,3878906,-0.084,1.457,-0.138,-83.0,-24.1,-91.7,665,905,0
R,,3878996,1.282,2.650,-0.750,-208.2,-65.9,-205.4,437,899,0
R,,3879056,-0.277,1.925,-1.371,-125.7,127.7,-367.1,238,867,0
R,,3879116,-0.446,0.179,-0.346,37.3,-91.7,49.9,545,722,0
R,,3879176,0.488,0.123,0.196,70.7,-35.5,209.5,513,704,0
R,,3879236,0.389,0.522,-0.167,136.0,52.0,303.4,524,662,0
R,,3879295,0.114,1.438,-0.580,137.8,74.8,351.8,497,667,0
R,,3879355,-1.089,2.527,-0.007,160.7,87.5,326.6,503,721,0
R,,3879416,-2.632,2.510,0.959,128.4,-211.0,87.9,439,751,0
R,,3879505,-1.738,1.331,0.238,-14.4,15.3,-182.0,691,797,0
R,,3879566,-0.780,1.057,0.203,-66.2,3.7,-109.6,749,862,0
R,,3879625,-0.106,0.947,-0.008,33.3,-35.8,-47.2,767,882,0
R,,3879686,-0.134,0.992,-0.247,18.1,-30.8,-26.3,774,887,0
R,,3879746,-0.121,0.996,-0.143,18.9,-23.7,-27.7,766,889,0
R,,3879806,-0.135,1.028,-0.282,14.1,-26.2,-25.6,757,894,0
R,,3879866,-0.100,0.959,-0.262,-4.2,-43.2,-32.9,748,902,0
R,,3879956,-0.083,1.321,-0.167,-66.0,-29.1,-67.3,674,904,0
R,,3880016,0.002,1.708,-0.214,-132.0,-17.4,-124.3,664,901,0
R,,3880076,1.372,2.595,-0.798,-184.5,-69.5,-202.6,360,896,0
R,,3880136,-0.121,1.960,-1.191,-127.6,139.6,-349.6,181,870,0
R,,3880196,-0.204,0.345,-0.421,-3.8,-54.4,56.9,552,707,0
R,,3880255,0.346,0.077,0.048,58.3,-53.2,216.6,525,699,0
R,,3880316,0.361,0.558,-0.079,115.6,35.7,301.9,517,660,0
R,,3880406,-0.543,2.353,-0.112,114.3,133.9,344.6,502,698,0
R,,3880466,-2.561,2.157,-1.155,153.2,99.1,227.6,459,736,0
R,,3880526,-0.974,2.168,0.904,-133.9,69.2,-179.9,544,724,0
R,,3880594,-0.773,1.522,-0.063,59.8,4.2,-132.4,700,812,0
R,,3880645,-0.726,1.217,0.133,-54.1,16.7,-115.0,755,872,0
R,,3880706,-0.052,1.117,-0.062,22.4,-24.5,-54.4,773,887,0
R,,3880766,-0.148,0.993,-0.058,-8.2,-26.4,-35.4,771,892,0
R,,3880826,-0.041,1.004,-0.010,8.3,-21.1,-31.9,758,896,0
R,,3880916,-0.165,0.986,-0.023,8.1,-31.2,-24.5,721,901,0
R,,3880976,-0.095,1.222,-0.050,-19.2,-30.5,-33.8,675,903,0
R,,3881036,-0.004,1.335,-0.044,-81.3,-3.0,-70.0,649,906,0
R,,3881096,0.149,1.931,-0.095,-162.1,-5.7,-133.9,594,900,0
R,,3881156,1.263,2.182,-0.356,-224.9,15.6,-216.8,306,900,0
R,,3881216,0.562,0.943,-0.485,-164.0,209.9,-161.6,421,800,0
R,,3881276,0.715,0.591,-0.546,11.9,26.3,103.7,509,689,0
R,,3881335,0.128,0.237,-0.176,14.0,40.2,238.0,527,674,0
R,,3881396,0.112,0.705,-0.477,72.1,104.0,317.0,524,649,0
R,,3881486,-0.668,2.160,-0.624,195.0,42.7,347.2,488,668,0
R,,3881545,-2.065,2.766,-0.692,189.4,-34.7,145.8,489,701,0
R,,3881606,-1.290,1.740,-0.172,-213.8,244.3,-238.1,631,725,0
R,,3881666,0.000,1.341,0.225,12.5,-20.7,-151.5,700,808,0
R,,3881726,-0.045,0.986,-0.417,-34.1,18.5,-84.1,762,879,0
R,,3881786,-0.062,0.966,0.065,17.9,-30.4,-45.2,774,890,0
R,,3881846,-0.060,0.996,-0.108,-3.8,-23.8,-29.2,775,894,0
R,,3881906,-0.054,1.011,-0.038,12.1,-19.8,-28.7,764,901,0
R,,3881966,-0.109,1.003,-0.075,7.3,-20.5,-28.7,742,899,0
R,,3882026,-0.061,1.086,-0.055,-10.2,-30.3,-29.1,666,905,0
R,,3882085,-0.063,1.240,-0.118,-53.1,-22.9,-56.2,649,906,0
R,,3882146,-0.033,1.484,-0.088,-107.9,0.6,-97.0,628,903,0
R,,3882236,1.368,2.559,-0.136,-215.3,-32.9,-216.0,326,899,0
R,,3882296,0.662,0.863,-0.339,-174.1,204.4,-159.3,403,803,0
R,,3882356,0.528,0.577,-0.541,5.8,30.4,115.1,511,708,0
R,,3882416,0.023,0.140,-0.245,3.0,29.1,232.7,519,680,0
R,,3882475,0.155,0.698,-0.581,40.9,136.0,318.9,524,668,0
R,,3882566,-0.732,1.996,-0.719,147.6,59.5,370.3,451,683,0
R,,3882625,-2.099,2.077,-0.634,211.2,-56.1,196.4,446,706,0
R,,3882686,-1.460,1.336,0.351,-27.3,193.4,-98.8,441,754,0
R,,3882746,-2.159,2.078,-1.222,63.9,110.7,-251.3,683,791,0
R,,3882806,-1.003,0.977,0.089,-52.1,32.9,-118.1,741,854,0
R,,3882866,0.004,1.153,-0.219,13.1,1.6,-58.9,770,881,0
R,,3882926,-0.204,0.965,-0.124,12.8,-12.9,-38.8,770,891,0
R,,3882986,-0.063,1.021,0.007,5.2,-31.0,-32.1,762,900,0
R,,3883046,-0.235,1.051,-0.221,1.8,-27.4,-32.6,717,901,0
R,,3883106,-0.086,1.090,-0.166,-16.3,-20.9,-38.2,653,902,0
R,,3883166,-0.076,1.147,-0.231,-24.1,-11.8,-52.9,650,905,0
R,,3883226,-0.050,1.380,0.041,-81.3,-0.9,-87.7,607,902,0
R,,3883286,0.248,1.893,-0.070,-140.9,-46.4,-127.0,515,896,0
R,,3883346,0.362,1.894,-0.303,-251.0,153.9,-300.5,229,893,0
R,,3883406,-0.162,0.266,-0.961,-140.3,111.5,-95.7,545,719,0
R,,3883474,0.353,0.182,-0.298,-4.2,-12.7,146.3,529,711,0
R,,3883526,0.281,0.270,-0.190,13.8,74.9,267.5,506,713,0
R,,3883586,0.041,0.852,-0.742,63.1,135.8,318.0,501,691,0
R,,3883646,-0.276,1.900,-1.089,147.9,150.2,353.2,497,654,0
R,,3883706,-2.220,2.462,-1.228,73.8,23.8,337.2,451,681,0
R,,3883766,-0.797,2.065,1.964,89.3,-180.3,4.9,391,742,0
R,,3883826,1.052,0.873,0.062,-134.1,252.7,-186.6,646,747,0
R,,3883890,0.351,0.608,-0.008,-54.6,37.7,-154.8,719,827,0
R,,3883946,-0.326,1.101,0.206,-61.8,-62.3,-79.8,764,877,0
R,,3884006,0.026,0.978,-0.045,45.4,-34.2,-38.3,773,887,0
R,,3884066,-0.103,1.051,-0.190,3.9,-29.5,-23.5,773,896,0
R,,3884126,-0.025,1.061,-0.193,16.5,-28.2,-27.7,750,896,0
R,,3884186,-0.200,0.997,-0.146,9.4,-45.0,-27.7,680,905,0
R,,3884246,-0.162,1.016,-0.201,-9.1,-28.0,-45.0,669,905,0
R,,3884305,-0.121,1.300,-0.059,-48.0,-33.3,-67.2,669,904,0
R,,3884366,-0.076,1.743,-0.379,-124.1,-25.6,-131.1,674,899,0
R,,3884456,-0.331,1.650,-0.509,-185.7,27.9,-336.7,263,892,0
R,,3884516,0.270,0.386,-0.700,-66.7,-70.1,-59.2,568,732,0
R,,3884576,0.386,-0.144,0.029,32.6,2.4,135.1,536,718,0
R,,3884636,0.339,0.391,-0.022,96.6,70.2,256.6,523,698,0
R,,3884696,0.222,0.868,-0.382,115.9,86.8,338.1,517,689,0
R,,3884756,-0.377,2.031,-0.458,99.8,103.3,329.9,513,723,0
R,,3884816,-2.143,2.164,-1.046,141.1,-62.9,291.1,495,752,0
R,,3884876,-0.966,1.909,1.906,-31.8,-50.4,-77.0,477,764,0
R,,3884936,-0.343,3.132,1.600,-49.7,24.1,-344.8,694,796,0
R,,3884996,-0.210,0.730,-0.061,-53.8,43.1,-123.2,720,830,0
R,,3885086,0.020,0.900,-0.148,37.2,-33.6,-36.2,754,868,0
R,,3885146,0.018,0.988,-0.310,0.2,-33.0,-31.6,763,878,0
R,,3885206,-0.054,0.981,-0.149,10.7,-34.5,-30.1,762,887,0
R,,3885266,-0.080,1.026,-0.262,-8.8,-34.9,-31.0,752,893,0
R,,3885326,-0.110,0.965,-0.110,-11.1,-41.0,-35.7,728,899,0
R,,3885386,-0.116,1.152,-0.266,-38.5,-38.2,-59.0,672,905,0
R,,3885446,-0.048,1.524,-0.318,-90.2,-31.7,-103.3,638,905,0
R,,3885506,0.796,2.488,-0.151,-224.9,-62.4,-178.9,455,900,0
R,,3885566,-0.889,1.705,-0.185,-176.9,123.3,-356.1,292,881,0
R,,3885626,0.088,0.050,-0.545,3.5,-98.3,-50.8,560,731,0
R,,3885686,0.481,-0.027,-0.153,52.7,-73.5,171.2,501,707,0
R,,3885746,0.431,0.276,-0.080,119.2,12.9,267.5,524,659,0
R,,3885806,0.214,1.033,-0.524,126.0,84.9,328.5,524,676,0
R,,3885866,-0.390,2.261,-0.471,181.1,163.1,319.5,516,692,0
R,,3885926,-2.288,2.082,-0.835,168.3,-59.5,240.3,484,729,0
R,,3885986,-0.918,1.382,0.122,-123.3,75.4,-163.3,438,721,0
R,,3886046,-2.932,1.681,-0.683,11.5,46.6,-228.6,697,802,0
R,,3886106,-0.617,0.996,-0.058,-64.1,6.8,-96.5,752,866,0
R,,3886166,-0.071,1.030,-0.066,8.7,-18.0,-42.6,770,882,0
R,,3886226,-0.124,0.974,-0.235,12.8,-23.5,-25.2,773,888,0
R,,3886286,0.002,0.953,-0.194,-2.3,-24.7,-24.4,769,890,0
R,,3886346,-0.003,1.020,-0.187,6.0,-23.0,-21.4,764,893,0
R,,3886406,-0.033,0.996,-0.264,-17.0,-36.6,-33.0,753,898,0
R,,3886466,-0.158,1.055,-0.312,-17.2,-37.5,-40.0,718,902,0
R,,3886526,-0.081,1.362,-0.035,-70.2,-31.0,-75.8,650,905,0
R,,3886616,0.897,2.296,-0.351,-184.1,-74.6,-159.6,431,905,0
R,,3886676,-0.669,1.728,-0.371,-206.9,218.6,-340.4,298,877,0
R,,3886736,0.510,-0.030,-0.876,-86.1,7.8,-32.2,545,718,0
R,,3886804,0.282,0.142,-0.350,0.2,-34.6,175.2,500,702,0
R,,3886856,0.258,0.378,-0.185,13.0,48.3,273.5,490,663,0
R,,3886916,0.031,0.986,-0.854,62.3,144.6,326.3,511,660,0
R,,3886976,-0.488,2.074,-0.962,146.6,99.8,335.6,475,677,0
R,,3887036,-1.984,1.968,-0.852,127.1,-39.5,284.1,472,718,0
R,,3887096,-0.659,2.064,1.798,-17.2,115.0,-120.6,408,750,0
R,,3887156,-0.752,2.090,0.716,-48.1,253.0,-231.9,685,790,0
R,,3887216,0.008,0.712,-0.394,-6.1,67.2,-124.1,739,850,0
R,,3887276,0.028,0.938,0.163,-10.0,2.8,-61.6,770,882,0
R,,3887336,-0.091,0.940,-0.095,22.1,-14.4,-43.4,776,889,0
R,,3887396,-0.095,1.008,-0.038,3.5,-29.2,-29.1,769,895,0
R,,3887457,-0.104,0.991,-0.072,16.5,-18.9,-24.4,758,896,0
R,,3887516,-0.145,1.009,-0.126,6.0,-27.7,-21.9,749,901,0
R,,3887576,-0.054,1.103,-0.198,0.9,-43.6,-26.6,696,905,0
R,,3887666,-0.107,1.413,-0.098,-87.4,-9.6,-89.8,611,907,0
R,,3887726,0.402,2.202,-0.056,-189.5,-44.8,-145.6,534,898,0
R,,3887816,0.171,1.303,-0.528,-161.9,161.1,-304.3,205,856,0
R,,3887876,0.164,0.093,-0.400,-43.8,-45.5,63.1,537,702,0
R,,3887936,0.196,0.149,0.080,18.2,-10.0,194.1,528,700,0
R,,3887997,0.260,0.602,-0.275,63.1,100.8,283.7,529,660,0
R,,3888056,-0.314,1.266,-0.541,86.1,76.0,323.6,503,708,0
R,,3888116,-0.602,2.236,-0.456,182.4,37.4,334.4,487,728,0
R,,3888176,-1.626,2.539,0.680,196.0,-85.0,121.6,482,750,0
R,,3888236,-0.917,1.651,0.565,-169.4,240.9,-231.4,584,719,0
R,,3888296,-0.853,1.368,0.710,6.7,-20.9,-120.3,697,801,0
R,,3888356,-0.028,0.920,-0.143,-20.5,38.2,-80.9,760,874,0
R,,3888416,-0.091,1.033,-0.020,9.3,-28.3,-38.7,771,883,0
R,,3888506,-0.015,1.037,-0.189,9.0,-24.8,-18.2,773,888,0
R,,3888566,-0.041,1.001,-0.181,14.5,-14.3,-28.6,765,893,0
R,,3888626,-0.087,1.011,-0.186,1.4,-28.7,-25.1,759,898,0
R,,3888716,-0.095,1.138,-0.067,-34.6,-30.5,-47.3,665,907,0
R,,3888776,-0.043,1.382,-0.040,-88.0,-13.0,-84.3,615,905,0
R,,3888836,0.274,2.102,0.113,-183.8,-33.1,-141.1,520,905,0
R,,3888896,0.616,1.666,-0.643,-205.2,158.3,-293.9,291,894,0
R,,3888957,0.173,0.655,-0.866,-106.7,143.7,-144.2,507,731,0
R,,3889016,0.496,0.220,-0.325,51.7,-24.9,125.0,495,698,0
R,,3889077,0.261,0.242,0.043,14.9,55.2,245.0,499,671,0
R,,3889136,0.146,0.816,-0.619,60.4,138.8,315.7,518,675,0
R,,3889196,-0.189,1.721,-0.732,126.1,104.4,346.2,478,670,0
R,,3889256,-1.680,2.304,-1.005,97.4,100.2,303.7,478,699,0
R,,3889346,-1.014,2.462,0.623,-167.2,262.9,-272.3,560,709,0
R,,3889406,-1.221,1.326,0.288,29.7,-8.7,-123.8,698,805,0
R,,3889466,-0.249,0.959,0.150,-33.2,22.5,-94.8,751,867,0
R,,3889526,-0.078,1.047,-0.119,22.3,-14.0,-44.9,771,883,0
R,,3889586,-0.091,0.989,-0.121,4.6,-24.7,-26.5,772,888,0
R,,3889646,-0.010,1.004,-0.118,12.6,-18.4,-28.7,759,889,0
R,,3889757,-0.046,0.956,-0.153,3.1,-34.5,-9.9,740,903,0
R,,3889767,-0.171,1.060,-0.178,-11.2,-41.6,-23.3,735,901,0
R,,3889827,-0.043,1.170,-0.151,-50.4,-22.1,-41.0,651,908,0
R,,3889886,-0.075,1.355,-0.131,-82.2,6.7,-73.5,609,908,0
R,,3889946,0.138,1.756,-0.052,-169.1,-6.4,-128.1,529,904,0
R,,3890006,1.142,2.173,-0.390,-226.1,39.0,-210.3,232,894,0
R,,3890096,0.024,-0.917,0.487,-63.7,-23.4,-3.2,549,715,0
R,,3890158,0.250,0.161,-0.096,-23.4,15.6,165.9,523,699,0
R,,3890216,0.203,0.477,-0.320,39.6,75.1,283.8,497,658,0
R,,3890276,0.039,0.987,-0.772,92.4,94.4,329.8,513,664,0
R,,3890336,-0.540,2.008,-0.547,173.0,106.1,321.5,483,676,0
R,,3890396,-2.434,2.213,-0.914,137.6,-55.3,257.3,444,703,0
R,,3890457,-0.992,1.544,0.722,-97.0,73.1,-142.5,412,727,0
R,,3890516,-2.186,2.319,-0.412,51.1,132.2,-266.7,689,796,0
R,,3890577,-0.578,0.936,0.031,-55.0,26.3,-111.6,750,860,0
R,,3890636,-0.020,0.991,0.054,6.3,-25.1,-46.9,770,882,0
R,,3890696,-0.125,0.997,-0.205,30.5,-26.5,-28.4,775,886,0
R,,3890756,-0.017,0.966,-0.100,14.4,-40.6,-26.7,772,892,0
R,,3890846,-0.142,0.994,-0.184,0.8,-32.2,-34.3,756,900,0
R,,3890907,-0.124,1.007,-0.285,6.5,-48.9,-32.1,718,903,0
R,,3890997,-0.065,1.401,-0.138,-70.9,-27.5,-90.0,620,906,0
R,,3891056,0.299,2.124,0.043,-198.8,-30.3,-160.1,545,901,0
R,,3891160,0.712,0.977,-0.203,-161.5,164.6,-234.8,200,850,0
R,,3891176,0.251,0.741,-0.465,-104.7,128.1,-154.7,520,748,0
R,,3891236,0.623,0.109,-0.229,50.0,-31.9,124.8,506,704,0
R,,3891296,0.260,0.259,-0.032,105.7,-21.3,239.4,501,666,0
R,,3891356,0.223,0.751,-0.297,131.8,48.8,313.5,517,673,0
R,,3891416,-0.161,1.884,-0.235,161.0,113.0,332.9,484,700,0
R,,3891476,-1.568,2.353,-0.630,139.0,46.5,296.5,475,745,0
R,,3891537,-1.238,1.974,2.129,2.8,-86.5,-35.0,451,758,0
R,,3891596,-0.280,2.632,1.047,-55.5,134.3,-247.5,694,798,0
R,,3891657,-0.464,0.775,-0.245,-40.4,36.8,-108.4,744,856,0
R,,3891716,-0.089,0.956,0.011,4.4,-35.0,-53.6,767,877,0
R,,3891776,-0.103,0.987,-0.271,31.9,-26.5,-27.7,774,887,0
R,,3891867,-0.033,0.996,-0.248,16.0,-30.6,-27.0,762,894,0
R,,3891926,-0.197,1.021,-0.259,9.9,-37.3,-27.3,743,899,0
R,,3891986,-0.080,1.001,-0.174,-18.7,-38.8,-39.6,670,906,0
R,,3892046,-0.119,1.180,-0.210,-49.3,-34.0,-59.9,664,903,0
R,,3892106,-0.032,1.580,-0.321,-102.2,-13.0,-113.5,598,904,0
R,,3892166,1.073,2.605,-0.750,-183.5,-63.6,-188.6,374,898,0
R,,3892226,-0.521,1.793,-0.551,-180.9,107.0,-334.7,275,872,0
R,,3892287,-1.100,-0.739,-0.418,15.4,-102.8,7.0,559,707,0
R,,3892346,0.477,0.119,0.175,73.7,-90.0,186.9,506,699,0
R,,3892407,0.410,0.481,-0.074,133.2,6.5,280.0,513,666,0
R,,3892497,-0.160,1.960,-0.333,178.3,127.6,346.0,502,689,0
R,,3892556,-1.896,2.228,-0.976,153.5,49.2,288.6,478,727,0
R,,3892617,-0.365,2.355,2.920,-30.5,62.7,-83.3,428,757,0
R,,3892676,4.590,1.424,-0.525,-80.0,143.9,-136.5,676,777,9
R,,3892737,0.106,0.325,0.060,-53.2,33.5,-135.4,735,847,0
R,,3892796,-0.121,0.974,0.106,-3.0,-23.1,-66.5,767,880,0
R,,3892856,-0.076,0.951,-0.069,41.5,-30.1,-28.7,775,888,0
R,,3892947,-0.024,1.007,-0.129,28.3,-31.7,-24.7,769,890,0
R,,3893006,-0.115,1.023,-0.234,5.7,-31.5,-30.1,753,895,0
R,,3893066,-0.055,0.962,-0.132,3.3,-43.9,-36.3,732,904,0
R,,3893135,-0.295,1.230,-0.202,-45.3,-26.5,-62.8,654,907,0
R,,3893216,-0.026,1.636,-0.199,-125.1,-30.8,-119.2,556,906,0
R,,3893306,0.279,1.708,-0.334,-176.1,113.6,-320.6,221,892,0
R,,3893367,0.166,0.324,-1.078,-98.3,82.6,-113.8,533,719,0
R,,3893426,0.561,0.186,-0.344,51.8,-47.5,144.3,508,711,0
R,,3893487,0.227,0.282,-0.009,64.0,-14.4,261.4,497,665,0
R,,3893577,0.037,1.216,-0.737,111.3,111.8,346.7,519,665,0
R,,3893636,-0.892,2.438,-0.042,160.2,115.7,329.9,498,705,0
R,,3893726,-0.142,2.207,2.007,-66.1,13.7,-59.3,385,761,0
R,,3893787,1.687,2.021,0.772,-32.4,75.4,-206.1,677,784,0
R,,3893846,0.079,0.586,0.016,-24.2,30.9,-126.4,732,846,0
R,,3893907,-0.105,0.986,0.042,3.5,-2.8,-63.6,767,878,0
R,,3893997,-0.092,1.008,-0.137,4.1,-31.7,-21.0,774,890,0
R,,3894086,-0.061,0.996,-0.103,6.7,-14.7,-26.6,754,889,0
R,,3894146,-0.161,0.944,-0.302,-6.6,-10.7,-26.3,738,897,0
R,,3894237,-0.087,1.119,-0.154,-31.2,-35.4,-42.1,641,906,0
R,,3894296,-0.019,1.363,0.027,-74.7,-5.6,-81.6,584,905,0
R,,3894356,0.252,1.985,-0.098,-161.2,-22.8,-148.0,472,904,0
R,,3894416,0.905,1.960,0.021,-221.2,96.9,-266.0,359,889,0
R,,3894476,0.470,1.158,-0.691,-138.1,198.7,-181.3,459,792,0
R,,3894537,0.652,0.404,-0.272,53.3,-16.4,120.4,484,700,0
R,,3894596,0.159,0.222,-0.127,30.1,-14.3,255.0,472,657,0
R,,3894657,0.205,0.786,-0.299,85.8,89.6,325.5,496,649,0
R,,3894716,-0.211,1.721,-0.813,124.1,120.1,345.5,500,655,0
R,,3894777,-1.402,2.342,-0.444,121.6,110.9,323.8,479,680,0
R,,3894836,-0.957,2.379,2.255,146.2,-127.4,-12.0,367,744,0
R,,3894896,1.099,0.994,-0.121,-145.1,255.9,-205.1,643,743,0
R,,3894957,0.130,0.821,-0.491,-39.4,7.2,-126.8,716,824,0
R,,3895046,-0.006,1.013,-0.048,-7.8,3.0,-56.6,776,887,0
R,,3895107,-0.162,0.955,-0.002,11.5,-12.8,-37.5,775,894,0
R,,3895166,-0.069,1.006,-0.074,9.5,-28.8,-30.6,766,895,0
R,,3895226,-0.129,0.984,-0.065,16.4,-21.5,-28.0,750,901,0
R,,3895286,-0.155,1.009,-0.062,12.7,-35.1,-22.0,728,903,0
R,,3895346,-0.062,1.175,-0.110,-24.9,-17.5,-41.1,666,908,0
R,,3895407,-0.056,1.344,0.001,-74.0,-8.1,-74.4,662,905,0
R,,3895466,0.114,1.770,0.035,-142.4,-12.1,-128.0,629,899,0
R,,3895527,1.178,2.023,-0.450,-177.8,27.0,-208.8,280,894,0
R,,3895586,0.415,1.072,-0.604,-180.6,219.6,-184.5,415,822,0
R,,3895646,0.680,0.427,-0.460,-4.6,30.2,104.6,503,700,0
R,,3895707,0.092,0.218,-0.212,5.5,41.3,220.7,521,677,0
R,,3895766,0.124,0.628,-0.366,59.2,95.7,307.8,520,668,0
R,,3895827,-0.083,1.582,-0.804,103.7,122.5,344.0,517,672,0
R,,3895886,-1.194,2.439,-0.451,143.2,129.5,330.2,492,693,0
R,,3895976,-1.049,1.489,0.458,-76.6,169.2,-148.4,446,739,0
R,,3896067,-0.990,1.110,-0.883,28.0,21.7,-123.7,714,826,0
R,,3896126,0.021,0.766,-0.150,-6.0,-15.1,-73.4,765,878,0
R,,3896195,-0.052,0.998,0.063,28.0,-31.6,-34.0,777,893,0
R,,3896247,-0.054,1.037,-0.115,10.4,-37.2,-18.9,761,896,0
R,,3896306,-0.012,0.974,-0.089,-5.8,-25.7,-24.1,729,900,0
R,,3896367,-0.099,0.937,-0.037,-9.2,-13.5,-30.6,658,903,0
R,,3896426,-0.108,1.005,-0.060,-3.3,-18.2,-35.7,618,906,0
R,,3896487,-0.083,1.237,-0.002,-29.6,-0.1,-50.7,585,906,0
R,,3896546,-0.021,1.472,-0.052,-89.3,-5.6,-96.2,485,907,0
R,,3896610,0.763,2.353,0.026,-153.2,-68.0,-141.4,275,903,0
R,,3896666,-0.558,1.616,-0.774,-212.1,139.5,-331.4,239,881,0
R,,3896726,0.414,0.355,-1.307,-50.5,30.5,-80.1,538,726,0
R,,3896787,0.310,0.282,-0.425,-16.5,19.7,153.1,502,699,0
R,,3896846,0.255,0.417,-0.297,19.6,49.4,283.3,460,683,0
R,,3896937,-0.094,1.403,-0.906,87.2,77.2,346.2,484,676,0
R,,3896997,-0.984,2.358,-0.038,145.6,77.7,341.8,444,682,0
R,,3897056,-2.310,2.148,1.092,192.2,-294.8,114.1,378,715,0
R,,3897147,-3.235,1.995,-0.845,-3.0,67.7,-219.4,700,805,0
R,,3897207,-1.038,1.318,0.265,-88.3,23.1,-125.3,757,867,0
R,,3897266,-0.152,1.063,-0.004,20.7,-17.6,-39.2,774,884,0
R,,3897327,-0.141,1.009,-0.120,15.4,-25.8,-18.4,775,888,0
R,,3897386,0.053,0.985,-0.059,15.7,-28.1,-21.5,770,890,0
R,,3897447,-0.168,1.019,-0.186,19.9,-19.8,-33.1,758,890,0
R,,3897506,-0.109,1.010,-0.192,0.3,-41.4,-31.5,748,898,0
R,,3897567,-0.122,1.174,-0.107,-37.8,-29.2,-51.9,676,905,0
R,,3897657,-0.023,1.668,-0.220,-133.5,-4.9,-127.5,655,900,0
R,,3897747,0.290,1.789,-0.399,-212.6,48.6,-294.6,265,887,0
R,,3897836,0.451,0.144,-0.132,-2.8,-51.3,62.6,522,674,0
R,,3897897,0.263,0.030,0.091,72.1,38.0,188.5,535,693,0
R,,3897957,0.325,0.552,-0.230,119.7,78.0,295.2,517,678,0
R,,3898016,0.138,1.308,-0.444,152.1,85.1,367.0,519,652,0
R,,3898077,-0.662,2.829,-0.682,119.8,126.4,383.3,494,665,0
R,,3898136,-1.966,2.415,1.844,122.5,-368.8,91.7,418,723,0
R,,3898197,0.296,1.201,0.208,-55.2,50.6,-227.1,623,720,0
R,,3898256,-0.375,0.873,-0.800,-22.4,-43.5,-138.0,702,804,0
R,,3898317,-0.180,1.058,-0.365,-50.6,-25.2,-76.7,748,860,0
R,,3898376,0.038,0.933,-0.079,18.0,-33.6,-37.0,766,878,0
R,,3898437,-0.066,0.988,-0.302,8.1,-25.2,-26.9,771,887,0
R,,3898497,-0.048,0.949,-0.159,7.4,-41.5,-23.9,765,893,0
R,,3898556,-0.176,0.956,-0.370,-3.3,-53.5,-27.0,741,901,0
R,,3898617,-0.076,0.986,-0.161,-26.0,-46.9,-44.7,684,903,0
R,,3898676,-0.165,1.257,-0.183,-52.9,-39.8,-66.7,698,902,0
R,,3898737,-0.002,1.768,-0.277,-129.7,-34.7,-131.8,664,899,0
R,,3898796,1.245,2.624,-0.891,-168.7,-106.9,-216.7,386,893,0
R,,3898886,0.051,-0.306,-1.457,-5.9,-63.8,-58.5,568,723,0
R,,3898947,0.586,-0.073,-0.215,91.8,-91.7,146.2,538,706,0
R,,3899006,0.517,0.374,0.005,152.9,-3.2,256.8,505,676,0
R,,3899067,0.403,1.073,-0.248,171.1,56.9,328.4,498,683,0
R,,3899126,-0.642,2.552,-0.290,160.6,128.3,313.6,499,725,0
R,,3899187,-2.894,2.366,-0.822,163.3,-14.5,243.8,484,748,0
R,,3899247,-0.986,1.291,0.307,-53.8,82.3,-184.3,465,727,0
R,,3899336,0.081,0.483,0.196,-49.4,1.8,-145.2,735,846,0
R,,3899426,-0.106,1.046,-0.062,18.6,-29.1,-43.4,768,881,0
R,,3899487,-0.086,0.975,-0.191,8.5,-30.6,-23.7,771,886,0
R,,3899546,0.013,0.992,-0.230,2.4,-25.4,-34.1,761,891,0
R,,3899607,-0.180,1.046,-0.123,-2.3,-24.3,-29.2,756,895,0
R,,3899675,-0.097,1.118,-0.150,6.1,-60.6,-26.6,730,902,0
R,,3899727,-0.093,1.222,-0.142,-44.4,-30.3,-53.9,673,904,0
R,,3899787,-0.036,1.512,-0.122,-109.6,-14.3,-104.0,643,904,0
R,,3899846,0.823,2.323,-0.432,-199.7,-59.3,-168.5,485,899,0
R,,3899937,0.632,1.080,-0.447,-147.2,181.9,-221.2,356,827,0
R,,3899997,0.761,0.139,-0.378,40.6,-63.4,117.3,520,696,0
R,,3900057,0.252,0.184,-0.014,60.4,-46.8,234.8,503,677,0
R,,3900147,0.198,1.076,-0.404,127.9,80.0,331.3,506,657,0
R,,3900207,-0.570,2.153,-0.600,184.2,157.2,317.5,497,693,0
R,,3900296,-1.946,1.933,1.869,151.9,-135.8,14.2,381,745,0
R,,3900357,1.281,2.083,0.613,16.2,72.1,-177.1,677,785,0
R,,3900447,-0.066,0.940,-0.014,-60.6,20.9,-103.7,761,874,0
R,,3900506,-0.084,1.092,0.000,7.6,-5.0,-56.9,772,888,0
R,,3900567,-0.214,1.012,0.014,-9.5,-22.4,-28.7,773,893,0
R,,3900626,-0.070,0.985,0.025,16.1,-27.7,-21.0,766,894,0
R,,3900687,-0.121,0.979,-0.027,13.3,-22.8,-19.2,762,897,0
R,,3900747,-0.077,1.033,-0.102,3.3,-23.4,-19.1,758,904,0
R,,3900807,-0.089,1.215,-0.061,-31.6,-41.4,-41.6,691,904,0
R,,3900897,0.033,1.632,-0.061,-141.2,-3.0,-105.9,680,900,0
R,,3900957,1.059,2.640,-0.641,-178.3,-47.8,-167.7,441,896,0
R,,3901046,-0.180,0.395,-1.373,-116.9,112.6,-80.5,502,694,0
R,,3901136,0.095,-0.054,-0.072,18.0,21.4,182.7,550,705,0
R,,3901197,0.302,0.589,-0.298,54.1,107.0,286.3,527,691,0
R,,3901287,-0.361,1.905,-1.004,139.7,139.1,332.1,502,674,0
R,,3901376,-2.224,2.196,-0.032,129.5,-124.9,185.0,465,727,0
R,,3901437,-1.207,1.560,1.417,-140.0,238.0,-193.2,530,684,0
R,,3901498,-1.750,1.534,-0.288,-22.4,-64.1,-142.1,689,794,0
R,,3901586,-0.168,0.864,0.251,-11.7,-14.9,-53.9,767,883,0
R,,3901647,-0.078,0.946,-0.013,29.1,-27.9,-35.9,776,892,0
R,,3901707,-0.097,1.042,-0.116,-3.8,-27.6,-20.8,765,895,0
R,,3901767,-0.067,0.916,-0.119,0.2,-6.3,-23.5,733,902,0
R,,3901857,-0.101,1.053,-0.119,-8.2,-24.8,-34.7,628,906,0
R,,3901916,-0.146,1.175,-0.075,-49.0,-22.8,-57.3,623,907,0
R,,3901977,-0.030,1.536,-0.027,-105.7,-2.0,-100.5,585,904,0
R,,3902037,0.870,2.369,-0.427,-154.7,-63.9,-142.3,408,899,0
R,,3902097,-0.676,1.470,-0.332,-212.0,171.7,-322.2,275,881,0
R,,3902157,-0.317,-0.643,0.123,-49.7,14.2,-15.1,553,724,0
R,,3902247,0.242,0.237,-0.145,15.7,10.2,232.9,503,659,0
R,,3902307,0.345,0.790,-0.253,37.0,97.7,322.3,489,666,0
R,,3902367,-0.268,1.467,-0.862,122.7,119.3,349.0,510,647,0
R,,3902426,-1.306,2.506,-0.719,208.9,144.1,313.4,486,660,0
R,,3902487,-2.236,1.996,1.261,161.1,-186.5,101.0,380,709,0
R,,3902577,-1.556,2.002,-0.367,21.7,205.5,-272.4,686,791,0
R,,3902666,-0.088,0.868,0.175,-18.4,-2.8,-74.2,766,878,0
R,,3902770,-0.050,0.989,-0.126,11.2,-26.6,-31.1,771,892,0
R,,3902787,-0.025,1.048,-0.152,4.2,-27.5,-31.2,767,896,0
R,,3902855,-0.065,1.000,-0.029,-9.0,-4.9,-33.7,738,900,0
R,,3902907,-0.129,0.985,-0.109,-6.0,-15.4,-38.0,661,908,0
R,,3902966,-0.135,1.041,-0.053,-22.4,-23.8,-45.0,636,907,0
R,,3903057,-0.107,1.357,0.032,-63.9,-5.4,-82.3,578,906,0
R,,3903117,0.180,1.972,0.014,-152.5,-2.9,-140.1,484,899,0
R,,3903177,0.599,1.913,-0.221,-212.3,48.2,-280.3,255,893,0
R,,3903267,-0.351,0.322,-0.327,-6.9,-2.7,23.5,545,713,0
R,,3903329,0.215,0.103,-0.008,29.1,-10.9,190.2,514,691,0
R,,3903387,0.284,0.495,-0.218,93.8,45.5,288.0,500,670,0
R,,3903447,0.155,1.230,-0.598,125.2,68.2,339.3,504,674,0
R,,3903506,-0.876,2.388,-0.433,195.7,79.2,328.3,508,703,0
R,,3903597,-1.320,2.276,1.953,-5.6,48.0,-81.4,441,747,0
R,,3903657,-1.014,2.761,0.295,-0.6,246.7,-279.7,692,795,0
R,,3903747,0.082,0.950,-0.071,-46.8,-5.7,-82.1,764,880,0
R,,3903807,-0.082,0.957,-0.057,26.7,-36.3,-43.1,775,888,0
R,,3903867,-0.085,1.027,-0.186,10.8,-27.5,-22.8,779,895,0
R,,3903927,-0.053,0.986,-0.131,18.9,-27.9,-24.1,767,894,0
R,,3904017,-0.123,1.015,-0.233,6.7,-36.1,-27.2,755,901,0
R,,3904107,-0.069,1.147,-0.192,-27.7,-37.3,-52.0,658,905,0
R,,3904166,-0.105,1.435,-0.148,-80.8,-24.2,-97.4,614,903,0
R,,3904227,0.437,2.226,-0.366,-190.0,-9.5,-174.1,490,899,0
R,,3904287,-0.223,1.785,-0.312,-186.3,50.6,-344.6,272,887,0
R,,3904347,-0.228,-0.113,-1.150,-55.3,0.9,-78.9,556,709,0
R,,3904407,0.558,0.101,-0.245,61.3,-40.3,135.2,519,705,0
R,,3904467,0.349,0.287,-0.052,91.9,14.3,248.5,503,683,0
R,,3904527,0.268,0.866,-0.193,129.0,69.1,316.9,510,669,0
R,,3904586,-0.116,2.269,-0.246,144.9,129.8,330.6,488,711,0
R,,3904647,-2.119,2.131,-0.557,138.0,89.9,272.8,480,739,0
R,,3904707,-0.638,1.709,0.997,-78.5,34.7,-122.1,439,755,0
R,,3904767,-1.203,1.906,-0.297,20.7,158.1,-271.5,691,794,0
R,,3904827,-0.386,1.058,0.060,-43.5,22.5,-118.0,749,860,0
R,,3904916,-0.047,0.938,-0.056,49.1,-38.7,-29.4,772,882,0
R,,3904977,-0.061,1.013,-0.242,0.6,-38.5,-17.2,773,888,0
R,,3905037,-0.038,0.990,-0.226,23.9,-25.2,-26.3,766,893,0
R,,3905097,-0.206,1.006,-0.192,0.2,-32.4,-28.4,755,896,0
R,,3905157,-0.087,1.026,-0.254,10.9,-57.4,-28.3,730,905,0
R,,3905217,-0.080,1.202,-0.170,-44.6,-35.9,-60.6,671,905,0
R,,3905277,-0.037,1.505,-0.195,-99.5,-29.8,-108.0,614,908,0
R,,3905336,0.624,2.455,-0.474,-214.2,-43.1,-172.4,396,903,0
R,,3905397,-0.901,1.856,-0.811,-184.9,103.0,-356.5,263,878,0
R,,3905457,0.232,-0.271,-0.822,-31.9,-49.8,-62.7,557,747,0
R,,3905517,0.331,0.118,-0.581,44.8,-79.9,183.5,502,695,0
R,,3905577,0.264,0.394,-0.144,93.1,10.3,279.2,503,649,0
R,,3905637,0.188,1.013,-0.448,117.6,108.7,336.5,514,659,0
R,,3905697,-0.603,2.306,-0.811,206.7,136.2,340.6,489,665,0
R,,3905757,-3.031,2.563,-0.553,119.2,-160.0,227.9,455,715,9
R,,3905817,-1.099,2.336,1.683,-176.8,200.8,-290.0,566,693,0
R,,3905907,-0.027,0.512,-0.538,-23.1,60.6,-150.0,730,843,0
R,,3905967,-0.168,0.971,0.024,-37.4,-35.0,-74.2,766,879,0
R,,3906027,-0.070,0.988,-0.130,31.2,-16.5,-37.0,773,887,0
R,,3906086,-0.096,1.023,-0.186,-10.2,-28.9,-28.9,771,890,0
R,,3906147,-0.073,1.014,-0.148,23.6,-22.6,-33.4,762,893,0
R,,3906207,-0.171,1.003,-0.207,0.7,-34.8,-30.2,745,900,0
R,,3906267,-0.111,1.117,-0.155,-34.8,-27.1,-46.9,669,905,0
R,,3906335,-0.065,1.504,-0.111,-103.6,-11.1,-97.5,664,904,0
R,,3906387,0.216,2.149,-0.018,-202.5,-26.5,-158.1,608,898,0
R,,3906447,0.431,1.753,-0.516,-196.8,84.1,-294.7,239,894,0
R,,3906507,0.040,0.466,-0.922,-109.6,92.1,-124.7,544,723,0
R,,3906567,0.590,0.370,-0.423,48.5,-24.1,137.2,524,708,0
R,,3906626,0.220,0.265,-0.111,73.7,-3.7,261.5,510,675,0
R,,3906687,0.164,0.847,-0.405,125.9,78.8,335.3,517,660,0
R,,3906747,-0.362,2.038,-0.520,188.3,152.3,356.0,528,674,0
R,,3906807,-2.331,2.365,-1.443,161.4,71.0,251.3,533,701,0
R,,3906867,-0.832,1.672,1.205,-63.7,60.9,-168.7,485,728,0
R,,3906927,-1.989,1.667,-0.789,-63.9,42.9,-201.4,689,796,0
R,,3906987,-0.668,1.020,0.178,-76.0,11.2,-114.0,752,867,0
R,,3907047,-0.021,0.984,-0.124,15.7,-13.1,-54.5,773,886,0
R,,3907107,-0.209,0.971,-0.086,6.4,-23.3,-29.4,774,892,0
R,,3907166,-0.013,1.040,-0.132,3.2,-34.5,-19.4,766,895,0
R,,3907227,-0.070,0.953,-0.103,-11.6,-4.9,-24.7,754,900,0
R,,3907287,-0.121,1.009,-0.083,-3.6,-28.5,-17.5,750,901,0
R,,3907347,-0.038,1.098,-0.270,8.6,-46.2,-23.9,698,905,0
R,,3907407,-0.035,1.343,-0.074,-71.4,-21.2,-71.1,616,908,0
R,,3907467,0.037,1.481,0.003,-118.5,-24.7,-114.6,483,904,0
R,,3907527,1.308,2.405,-0.293,-163.1,-58.3,-158.9,313,908,0
R,,3907617,0.162,0.670,-0.896,-120.1,178.0,-140.3,493,752,0
R,,3907677,0.442,0.407,-0.476,-3.9,30.1,114.3,503,717,0
R,,3907737,0.205,0.299,-0.160,-7.3,18.9,243.9,500,698,0
R,,3907797,0.133,0.802,-0.702,47.6,127.2,315.4,508,683,0
R,,3907857,-0.233,1.529,-1.035,123.5,94.9,342.8,472,667,0
R,,3907916,-1.406,2.398,-0.380,122.5,82.0,315.7,468,672,0
R,,3907977,-1.383,2.269,2.354,205.5,-194.9,56.2,361,721,0
R,,3908037,0.694,0.825,-0.483,-163.2,280.5,-203.8,635,732,0
R,,3908097,-0.170,1.105,-0.618,-1.4,-43.1,-131.5,719,826,0
R,,3908157,0.034,0.883,-0.182,-30.1,-13.0,-73.3,767,880,0
R,,3908217,-0.040,1.031,-0.018,19.2,-25.9,-36.4,777,888,0
R,,3908277,-0.042,1.029,-0.134,3.7,-28.1,-20.9,768,894,0
R,,3908337,-0.011,1.004,-0.050,2.4,-10.5,-32.4,753,895,0
R,,3908427,-0.154,1.031,-0.106,-1.5,-26.0,-31.5,689,906,0
R,,3908487,-0.106,1.075,-0.047,-22.3,-35.2,-49.7,655,904,0
R,,3908547,-0.056,1.520,-0.210,-85.0,-9.9,-84.7,645,904,0
R,,3908637,0.840,2.039,-0.496,-157.0,-14.5,-197.2,341,890,0
R,,3908697,-0.123,0.878,-0.257,-128.0,115.1,-259.4,236,857,0
R,,3908757,-0.476,-0.518,0.093,-8.1,-19.4,36.8,560,696,0
R,,3908817,0.419,0.219,-0.002,49.7,10.0,194.0,517,675,0
R,,3908877,0.514,0.644,0.044,89.1,73.1,293.3,509,675,0
R,,3908937,0.368,1.460,-0.277,98.8,119.9,346.7,486,663,0
R,,3908997,-1.004,2.428,-0.538,152.0,240.9,314.0,457,660,0
R,,3909057,-2.363,1.587,0.141,100.3,-226.0,55.5,423,724,0
R,,3909117,-0.658,0.782,0.430,-109.7,157.2,-212.1,602,687,0
R,,3909185,-0.696,1.053,-0.920,-17.9,-10.0,-116.2,709,822,0
R,,3909237,-0.232,1.051,0.151,16.3,37.3,-70.9,746,860,0
R,,3909297,-0.148,1.031,-0.032,-7.7,-18.4,-40.6,758,872,0
R,,3909357,-0.045,1.001,0.034,-9.1,-15.3,-25.9,766,879,0
R,,3909447,-0.083,1.073,-0.025,3.8,-18.5,-34.5,760,895,0
R,,3909537,-0.067,1.138,-0.011,-27.9,-19.4,-45.4,695,903,0
R,,3909597,-0.017,1.355,0.083,-81.6,-1.9,-74.8,698,903,0
R,,3909691,0.506,2.188,-0.214,-159.0,-37.4,-139.1,550,892,0
R,,3909747,-0.274,1.982,-0.374,-222.4,164.2,-322.4,266,886,0
R,,3909807,-0.151,-0.555,0.360,-87.8,26.4,-60.5,533,696,0
R,,3909897,0.184,0.015,-0.160,37.8,46.1,205.3,534,675,0
R,,3909958,0.281,0.663,-0.297,87.8,102.0,301.3,525,675,0
R,,3910017,-0.077,1.568,-0.769,128.7,143.9,362.1,517,658,0
R,,3910077,-1.630,3.007,-0.771,158.7,221.4,304.9,482,655,0
R,,3910137,-2.010,2.170,1.248,142.8,-143.2,68.1,421,734,0
R,,3910197,0.465,1.012,0.067,-83.2,262.9,-233.9,655,755,0
R,,3910287,-0.508,1.036,0.367,-40.7,19.4,-98.3,746,862,0
R,,3910347,-0.130,1.010,-0.021,32.6,-19.5,-61.4,771,885,0
R,,3910407,-0.181,1.009,-0.068,23.3,-33.6,-37.2,778,893,0
R,,3910498,-0.119,1.047,-0.046,36.5,-27.3,-20.5,752,899,0
R,,3910557,-0.097,1.073,-0.067,-3.7,-1.8,-29.7,665,905,0
R,,3910617,-0.140,1.071,-0.152,-16.2,-13.5,-49.7,613,907,0
R,,3910677,-0.194,1.139,-0.102,-34.7,-13.8,-63.7,621,904,0
R,,3910767,0.157,1.810,-0.095,-132.9,-26.8,-135.1,522,901,0
R,,3910857,-0.793,1.122,-0.150,-181.6,190.6,-323.2,202,887,0
R,,3910917,0.289,-0.778,0.053,-125.0,-14.0,3.0,582,737,0
R,,3910977,0.508,0.215,0.057,20.0,-30.4,195.1,490,705,0
R,,3911038,0.258,0.646,0.070,92.0,-51.0,280.0,463,679,0
R,,3911097,0.227,1.193,-0.270,63.4,-0.5,317.6,497,693,0
R,,3911157,-0.409,1.963,0.227,133.9,52.5,294.9,487,724,0
R,,3911217,-1.484,1.809,-0.749,95.4,-33.1,243.8,467,748,0
R,,3911277,-1.072,1.565,0.249,-47.1,-163.8,-31.5,477,757,0
R,,3911337,-0.342,1.045,0.300,-5.0,-90.3,-117.4,514,678,0
R,,3911397,-1.940,1.669,-0.240,3.5,6.3,-181.6,687,788,0
R,,3911458,-0.666,0.894,0.166,-13.0,45.0,-93.5,748,862,0
R,,3911517,-0.160,1.017,-0.074,-24.0,-61.1,-39.4,765,877,0
R,,3911577,-0.040,0.968,-0.143,46.8,-21.2,-7.5,766,879,0
R,,3911637,-0.095,0.960,-0.207,11.7,-29.8,-15.4,766,882,0
R,,3911697,-0.056,0.995,-0.310,21.1,-35.1,-29.1,768,889,0
R,,3911788,-0.164,1.082,-0.305,-18.2,-73.9,-43.8,752,901,0
R,,3911847,-0.085,1.697,-0.128,-95.0,-35.2,-101.9,708,898,0
R,,3911907,0.773,2.831,-0.242,-275.5,-49.1,-209.5,657,894,0
R,,3911967,-0.490,1.342,-0.744,-124.1,59.9,-376.7,216,890,0
R,,3912027,-0.159,-0.951,-0.242,59.3,-169.8,-40.8,570,736,0
R,,3912087,0.733,-0.057,0.334,105.5,-92.3,174.1,517,725,0
R,,3912147,0.539,0.515,0.126,171.5,36.9,256.6,543,711,0
R,,3912208,0.401,1.216,-0.253,178.7,37.8,353.1,532,701,0
R,,3912267,-0.506,2.731,-0.288,147.9,117.8,329.4,503,729,0
R,,3912328,-2.830,2.760,0.214,159.5,-222.8,178.6,466,758,0
R,,3912387,-1.092,1.053,0.217,-58.6,125.7,-204.6,461,694,0
R,,3912447,-1.837,1.984,-0.029,-15.2,1.7,-181.0,690,796,0
R,,3912507,-0.374,0.939,-0.143,-34.0,-2.9,-91.0,756,873,0
R,,3912567,-0.091,1.052,-0.193,8.5,-35.4,-49.0,773,884,0
R,,3912627,-0.069,0.976,-0.235,1.0,-29.8,-34.1,772,891,0
R,,3912696,-0.041,0.950,-0.109,7.3,-15.9,-35.7,747,897,0
R,,3912748,-0.262,1.050,-0.276,33.1,-36.5,-32.9,711,902,0
R,,3912837,-0.196,1.072,-0.240,-38.6,-26.0,-59.2,678,904,0
R,,3912897,-0.004,1.429,0.024,-88.3,-19.3,-98.8,670,902,0
R,,3912958,0.314,2.118,-0.057,-187.4,-65.5,-157.8,554,897,0
R,,3913017,-0.247,1.782,-0.620,-181.0,157.0,-327.9,285,899,0
R,,3913078,-0.021,0.000,-1.319,-73.2,29.2,-74.1,539,712,0
R,,3913137,0.490,0.160,-0.458,58.5,-54.2,158.1,492,681,0
R,,3913197,0.253,0.299,-0.060,54.8,-3.0,271.3,494,633,0
R,,3913257,0.199,0.960,-0.385,101.6,100.5,334.6,508,647,0
R,,3913316,-0.101,2.027,-0.729,142.5,194.6,354.6,512,643,0
R,,3913377,-2.602,2.471,-0.997,117.4,86.5,325.5,468,648,0
R,,3913437,-1.317,1.544,0.883,-65.0,107.0,-172.3,396,693,0
R,,3913498,-2.153,1.781,-0.162,31.0,305.1,-267.6,677,778,0
R,,3913557,-0.386,0.825,0.162,-35.8,41.9,-126.2,756,873,0
R,,3913618,-0.076,1.098,-0.132,-5.2,16.2,-63.3,771,889,0
R,,3913677,-0.199,0.968,0.032,0.6,-21.7,-37.3,770,894,0
R,,3913737,-0.113,1.047,-0.031,17.5,-34.4,-24.2,751,896,0
R,,3913828,-0.154,1.018,-0.033,17.8,-32.1,-16.0,709,902,0
R,,3913917,-0.038,1.259,-0.191,-50.8,-19.9,-48.5,671,905,0
R,,3913977,0.052,1.496,0.237,-106.1,8.6,-98.2,639,900,0
R,,3914038,0.356,2.110,-0.070,-173.5,-52.5,-140.2,502,890,0
R,,3914097,-0.273,1.986,-0.235,-238.5,170.2,-332.9,270,894,0
R,,3914158,0.141,-0.259,0.473,-81.1,64.5,-50.1,541,747,0
R,,3914217,0.079,0.185,-0.313,-65.9,74.8,158.4,533,724,0
R,,3914321,0.115,0.913,-0.972,-11.6,195.7,334.6,507,710,0
R,,3914336,-0.130,1.017,-1.373,13.5,180.9,344.2,508,708,0
R,,3914397,-0.796,1.992,-1.522,169.2,-11.9,383.0,469,698,0
R,,3914458,-1.698,2.594,-0.331,178.5,-114.8,238.0,438,729,0
R,,3914547,-0.594,1.750,0.969,-165.8,282.9,-246.6,604,713,0
R,,3914607,-0.811,1.382,-0.502,12.7,-47.4,-139.3,700,811,0
R,,3914667,-0.017,0.683,-0.084,-56.9,17.2,-91.5,757,874,0
R,,3914727,0.050,0.989,-0.017,35.4,-24.7,-47.2,772,890,0
R,,3914817,-0.097,0.995,0.077,-0.8,-25.4,-21.1,755,896,0
R,,3914877,-0.074,1.035,-0.145,0.8,-15.5,-24.6,718,897,0
R,,3914967,-0.046,0.996,-0.084,-7.4,-15.9,-37.8,613,903,0
R,,3915027,-0.124,1.271,-0.097,-41.3,-16.8,-60.4,567,905,0
R,,3915118,0.140,1.767,-0.072,-143.5,-35.7,-130.9,454,904,0
R,,3915177,1.231,2.479,-0.314,-202.1,73.5,-257.8,249,902,0
R,,3915237,0.669,1.263,-0.508,-183.4,220.2,-213.2,282,834,0
R,,3915297,0.713,0.266,-0.289,-2.4,-10.5,120.4,487,734,0
R,,3915387,0.427,0.625,-0.292,-12.3,122.6,293.6,443,712,0
R,,3915448,0.007,1.035,-1.014,48.5,143.5,326.8,476,684,0
R,,3915507,-0.493,2.083,-1.151,166.8,62.9,372.8,423,647,0
R,,3915567,-2.223,2.283,-0.933,121.8,-93.1,278.3,444,684,0
R,,3915627,-1.472,2.289,1.648,-112.4,180.7,-221.9,515,703,0
R,,3915696,-0.724,1.347,0.267,-3.9,-42.2,-155.1,695,800,0
R,,3915748,-0.726,1.020,0.075,-73.5,32.9,-114.4,761,873,0
R,,3915837,-0.069,0.996,-0.060,30.0,-15.7,-39.6,777,892,0
R,,3915897,-0.123,1.167,-0.211,15.9,-39.4,-33.8,765,895,0
R,,3915988,-0.191,0.987,-0.173,27.2,-26.1,-24.6,708,903,0
R,,3916047,-0.112,1.100,-0.212,-22.4,-27.2,-44.1,661,907,0
R,,3916107,-0.066,1.246,-0.061,-55.3,-24.0,-66.6,646,905,0
R,,3916171,-0.026,1.659,-0.277,-133.1,-9.5,-123.8,643,899,0
R,,3916227,1.091,2.672,-0.606,-163.0,-76.8,-176.8,367,899,0
R,,3916288,-0.064,1.795,-0.728,-162.4,151.4,-329.1,187,877,0
R,,3916347,-0.176,0.177,-0.590,-1.5,-53.7,37.4,533,709,0
R,,3916408,0.371,0.041,0.099,61.8,-46.4,205.1,516,700,0
R,,3916467,0.430,0.539,-0.191,135.7,8.8,296.6,511,682,0
R,,3916528,0.313,1.268,-0.360,180.3,43.1,344.3,517,678,0
R,,3916587,-0.672,2.539,0.132,206.0,162.2,341.0,496,694,0
R,,3916677,-0.872,1.606,0.884,-55.1,119.2,-180.3,419,746,0
R,,3916738,-2.313,2.660,0.800,38.1,280.6,-337.6,692,794,0
R,,3916797,-0.646,1.134,0.017,-55.9,24.5,-131.7,751,864,0
R,,3916857,-0.075,1.017,-0.056,7.1,-13.8,-57.4,772,886,0
R,,3916917,-0.142,0.976,-0.101,29.4,-22.7,-28.5,774,889,0
R,,3916977,-0.036,0.940,-0.111,20.5,-37.8,-28.2,767,893,0
R,,3917067,-0.155,1.002,-0.214,12.4,-40.8,-30.5,750,900,0
R,,3917127,-0.125,1.028,-0.191,-11.7,-58.5,-32.3,678,905,0
R,,3917187,-0.072,1.423,-0.161,-72.3,-21.2,-88.2,652,903,0
R,,3917248,0.143,1.908,-0.198,-169.8,-22.0,-153.0,631,899,0
R,,3917307,1.230,2.021,-0.723,-166.2,-50.3,-249.4,262,897,0
R,,3917368,0.459,0.946,-0.199,-127.7,111.4,-189.7,457,804,0
R,,3917427,0.781,0.382,-0.404,76.3,-85.5,124.7,504,713,0
R,,3917488,0.361,0.265,0.047,107.8,-31.2,248.8,499,683,0
R,,3917547,0.326,0.762,-0.227,143.1,50.4,327.3,508,683,0
R,,3917607,0.223,2.107,-0.130,176.7,106.2,361.2,484,704,0
R,,3917667,-1.692,2.705,-0.814,150.7,124.3,292.8,455,741,0
R,,3917727,-0.630,2.339,1.575,-163.5,59.2,-123.5,404,754,0
R,,3917788,-1.281,2.376,0.751,12.3,194.8,-313.6,689,795,0
R,,3917847,-0.309,0.843,0.005,-28.0,29.9,-120.7,748,861,0
R,,3917908,-0.061,0.924,0.025,0.7,-25.6,-56.7,770,883,0
R,,3917967,-0.105,0.969,-0.160,31.8,-27.6,-23.8,781,894,0
R,,3918028,0.038,1.017,-0.228,5.5,-31.4,-23.6,768,889,0
R,,3918118,-0.105,1.009,-0.205,-6.5,-26.4,-32.1,748,900,0
R,,3918177,-0.074,1.102,-0.045,-4.6,-57.1,-42.4,684,905,0
R,,3918238,-0.127,1.258,-0.115,-53.8,-32.9,-65.3,622,905,0
R,,3918297,-0.036,1.646,-0.212,-110.3,-16.8,-117.3,545,906,0
R,,3918358,1.220,2.482,-0.426,-164.9,-73.7,-174.6,309,902,0
R,,3918417,-0.549,2.145,-1.274,-170.8,129.0,-358.7,241,871,0
R,,3918507,0.606,0.416,-0.163,54.1,-7.1,123.6,490,708,0
R,,3918568,0.254,0.259,-0.201,54.5,-32.1,259.4,482,663,0
R,,3918627,0.204,0.813,-0.359,100.8,68.6,331.3,508,653,0
R,,3918687,-0.105,1.864,-0.610,141.6,139.8,350.7,486,668,0
R,,3918748,-1.937,2.475,-1.244,130.2,167.1,298.6,435,668,0
R,,3918806,-0.667,2.248,1.719,-30.2,-96.6,-62.7,378,704,0
R,,3918868,-0.415,2.117,1.197,4.1,332.5,-289.9,681,782,0
R,,3918927,-0.004,0.838,-0.397,-23.6,54.8,-131.7,751,863,0
R,,3918988,-0.081,0.863,0.125,-10.0,-5.1,-54.6,770,884,0
R,,3919078,-0.115,1.015,-0.096,7.3,-29.9,-18.4,770,894,0
R,,3919146,-0.036,0.972,-0.101,15.4,-17.5,-22.4,751,899,0
R,,3919198,-0.124,1.017,-0.237,12.4,-16.8,-16.3,742,900,0
R,,3919257,0.003,1.071,-0.213,-6.3,-47.0,-36.1,704,903,0
R,,3919318,-0.031,1.270,0.079,-58.7,-26.9,-64.8,634,902,0
R,,3919408,0.186,2.057,0.046,-174.5,-23.2,-141.4,545,899,0
R,,3919467,0.888,1.789,-0.557,-226.1,88.7,-250.7,237,895,0
R,,3919528,0.206,0.959,-0.614,-147.0,169.1,-177.4,488,799,0
R,,3919587,0.736,0.576,-0.416,-14.4,49.0,118.8,515,729,0
R,,3919648,0.082,0.264,-0.408,4.2,59.7,263.4,494,721,0
R,,3919708,0.099,0.831,-0.661,33.4,128.8,324.6,490,695,0
R,,3919767,-0.186,1.637,-0.924,92.6,103.1,369.1,449,662,0
R,,3919828,-1.555,2.537,-0.817,138.1,130.5,325.7,454,643,0
R,,3919887,-1.096,2.386,2.123,119.1,-162.2,7.2,339,723,0
R,,3919948,2.724,1.407,1.151,-84.9,178.1,-159.9,662,762,0
R,,3920007,0.567,0.412,0.125,-21.9,21.9,-144.3,738,849,0
R,,3920068,-0.219,0.945,0.254,-4.4,-13.7,-85.8,773,883,0
R,,3920127,-0.032,0.997,0.179,48.3,-35.6,-37.3,781,894,0
R,,3920188,-0.078,1.061,-0.136,12.8,-28.2,-19.4,766,896,0
R,,3920248,-0.072,1.045,-0.080,18.9,-9.2,-31.9,742,898,0
R,,3920307,-0.202,1.061,0.022,10.1,-24.0,-26.5,679,905,0
R,,3920367,-0.043,1.054,-0.203,-19.1,-17.0,-54.8,612,909,0
R,,3920427,-0.060,1.372,0.022,-64.0,-5.6,-83.2,601,903,0
R,,3920488,0.073,1.839,0.019,-143.0,-31.4,-135.3,545,902,0
R,,3920547,1.475,2.398,-0.150,-177.6,12.2,-226.0,248,897,0
R,,3920608,0.713,1.371,-0.792,-163.5,209.4,-244.8,195,830,0
R,,3920667,0.799,0.210,-0.343,11.5,-45.0,117.3,453,687,0
R,,3920727,0.229,0.307,-0.012,-30.3,21.6,230.7,475,674,0
R,,3920788,0.176,0.706,-0.671,23.2,147.4,306.7,509,666,0
R,,3920847,-0.219,1.293,-1.102,91.4,100.8,361.7,500,653,0
R,,3920908,-0.848,2.212,-0.815,165.6,109.2,344.8,482,666,0
R,,3920967,-2.358,2.318,1.287,223.7,-274.4,122.9,432,721,0
R,,3921028,-0.931,2.468,0.930,-70.4,243.2,-294.6,572,699,0
R,,3921087,-0.826,0.944,0.322,3.6,40.8,-141.2,706,814,0
R,,3921148,-0.108,0.941,0.223,-16.0,-1.8,-80.3,762,876,0
R,,3921208,-0.086,1.055,-0.009,27.5,-35.2,-39.4,771,887,0
R,,3921267,-0.093,1.018,-0.093,12.9,-39.9,-16.8,763,892,0
R,,3921328,0.034,1.028,-0.147,8.2,-32.5,-24.0,744,895,0
R,,3921387,-0.192,0.959,-0.093,-7.7,-16.6,-30.9,709,899,0
R,,3921448,-0.090,1.111,-0.067,-19.3,-22.4,-52.7,633,908,0
R,,3921507,-0.101,1.257,0.045,-59.7,-13.5,-64.3,574,908,0
R,,3921568,0.066,1.670,-0.086,-122.0,8.6,-119.4,466,906,0
R,,3921627,1.331,2.691,-0.485,-155.1,-80.7,-178.0,297,902,0
R,,3921688,0.317,1.556,-0.644,-194.8,246.1,-295.6,243,857,0
R,,3921748,0.057,0.285,-0.742,-43.4,-3.5,56.5,499,703,0
R,,3921807,0.141,0.088,-0.027,-19.3,29.3,206.0,512,698,0
R,,3921868,0.210,0.577,-0.489,31.7,102.4,318.6,474,670,0
R,,3921934,0.042,1.456,-0.682,92.8,62.5,368.9,459,691,0
R,,3921988,-0.874,2.444,-0.505,182.2,66.5,337.4,481,732,0
R,,3922047,-2.121,2.708,-0.582,159.0,-162.1,167.3,471,744,0
R,,3922108,-1.008,1.698,0.539,-31.1,39.2,-191.8,509,708,0
R,,3922167,-1.073,1.654,-0.326,43.8,-53.5,-166.6,698,802,0
R,,3922228,-0.594,1.039,0.267,-52.3,20.5,-107.2,755,867,0
R,,3922288,-0.054,0.909,-0.009,14.3,-31.3,-47.8,766,883,0
R,,3922349,-0.055,0.986,-0.202,16.5,-25.6,-26.5,769,886,0
R,,3922408,0.049,0.998,-0.207,10.7,-30.4,-36.6,760,892,0
R,,3922467,-0.145,1.056,-0.188,15.7,-29.7,-31.8,748,897,0
R,,3922528,-0.069,1.047,-0.324,-0.4,-52.7,-42.7,705,903,0
R,,3922587,-0.071,1.389,-0.001,-61.3,-31.7,-76.8,671,904,0
R,,3922648,-0.005,1.790,-0.323,-134.0,-27.7,-142.5,680,898,0
R,,3922708,1.200,2.652,-0.794,-165.1,-81.6,-218.1,380,893,0
R,,3922768,0.642,1.168,-0.402,-136.5,98.7,-242.9,306,853,0
R,,3922828,0.736,0.110,-0.374,38.2,-49.8,109.2,528,689,0
R,,3922887,0.366,0.205,0.077,117.7,39.5,234.7,524,694,0
R,,3922948,0.456,0.670,-0.067,143.8,90.6,317.1,502,697,0
R,,3923007,0.206,1.754,-0.119,171.9,52.3,361.7,510,708,0
R,,3923068,-1.081,2.771,-0.137,135.0,38.7,378.4,480,748,0
R,,3923127,-1.387,2.782,2.312,8.4,-35.7,-53.8,433,778,0
R,,3923188,2.167,0.547,-1.891,-53.9,176.1,-168.9,660,762,0
R,,3923248,0.213,0.552,0.583,-38.9,8.9,-156.0,731,841,0
R,,3923308,-0.399,1.038,-0.060,-25.0,-37.3,-74.9,761,877,0
R,,3923368,0.012,0.967,-0.157,39.0,-39.2,-28.7,772,883,0
R,,3923427,-0.087,1.014,-0.269,1.9,-44.3,-27.3,767,891,0
R,,3923488,-0.240,1.048,-0.218,-4.8,-30.3,-29.7,747,898,0
R,,3923578,-0.100,0.989,-0.237,-16.1,-36.1,-53.9,688,905,0
R,,3923637,-0.128,1.226,-0.112,-45.2,-44.5,-70.5,686,904,0
R,,3923698,-0.111,1.574,-0.299,-104.4,-25.9,-118.7,637,901,0
R,,3923757,1.077,2.592,-0.347,-170.5,-135.2,-178.0,438,900,0
R,,3923818,-0.467,2.071,-0.624,-194.1,98.5,-367.1,271,878,0
R,,3923877,-1.119,-0.920,-0.382,11.1,-116.0,-1.0,546,718,0
R,,3923938,0.429,0.159,0.101,50.4,-59.5,204.6,477,695,0
R,,3923998,0.429,0.627,-0.155,104.9,40.4,302.6,485,669,0
R,,3924058,0.032,1.203,-0.599,130.3,93.1,367.2,490,666,0
R,,3924148,-2.236,2.826,-1.208,113.1,79.0,299.4,442,681,0
R,,3924208,-0.319,2.251,2.441,-1.4,28.5,-83.5,400,729,0
R,,3924268,-1.388,3.212,1.645,58.2,204.1,-360.5,689,794,0
R,,3924328,-0.695,0.644,0.130,-77.0,4.6,-139.2,758,871,0
R,,3924387,-0.098,0.996,-0.152,27.5,-9.5,-63.2,775,888,0
R,,3924448,-0.175,0.991,0.119,-0.2,-24.2,-34.3,776,895,0
R,,3924507,-0.008,1.067,-0.180,-4.2,-27.5,-13.5,765,898,0
R,,3924568,-0.089,0.987,-0.150,1.7,-16.8,-20.3,739,901,0
R,,3924627,-0.155,1.018,-0.011,11.9,-39.9,-32.2,712,903,0
R,,3924688,-0.124,1.080,-0.115,-15.8,-37.5,-42.7,659,905,0
R,,3924748,-0.050,1.422,-0.163,-73.4,-28.4,-81.3,607,909,0
R,,3924837,1.447,2.886,-0.362,-202.2,-61.4,-198.8,327,902,0
R,,3924898,-0.240,2.146,-1.141,-220.3,206.1,-353.9,236,873,0
R,,3924958,-1.142,-0.234,-0.769,-23.6,-48.3,41.4,561,722,0
R,,3925047,0.280,0.258,-0.234,1.1,61.4,303.6,483,703,0
R,,3925108,0.060,1.051,-0.549,48.3,139.8,349.7,513,710,0
R,,3925198,-1.240,2.554,-0.777,198.0,100.1,357.4,392,690,0
R,,3925257,-2.365,2.127,0.980,241.4,-328.7,114.2,371,728,0
R,,3925327,2.037,1.502,0.696,-134.4,213.8,-194.4,646,747,0
R,,3925377,-0.525,0.825,-0.263,21.7,-7.2,-160.5,704,809,0
R,,3925438,-0.209,1.067,0.036,-57.8,-15.7,-85.8,757,872,0
R,,3925498,-0.022,0.981,0.113,-4.4,5.6,-52.4,772,883,0
R,,3925558,-0.061,1.019,-0.054,5.8,-5.1,-28.1,772,891,0
R,,3925618,0.009,1.028,-0.081,7.7,-25.1,-31.5,755,893,0
R,,3925678,-0.161,1.051,-0.077,11.6,-43.2,-31.5,727,901,0
R,,3925738,-0.001,1.135,-0.086,-48.7,-18.5,-61.2,663,906,0
R,,3925797,-0.067,1.347,0.151,-85.4,-9.5,-85.0,669,899,0
R,,3925857,0.187,1.984,0.029,-163.1,-15.8,-141.1,652,894,0
R,,3925917,1.102,2.149,-0.794,-221.9,71.7,-278.8,264,897,0
R,,3925978,-0.256,0.812,-1.749,-119.6,168.7,-135.3,511,731,0
R,,3926038,0.565,0.477,-0.386,-34.8,38.0,139.0,515,724,0
R,,3926098,0.216,0.267,-0.248,-9.0,87.8,283.9,503,720,0
R,,3926188,-0.061,1.181,-1.222,51.2,137.9,371.7,514,699,0
R,,3926248,-0.807,2.296,-1.055,183.1,56.3,363.8,465,679,0
R,,3926337,-0.456,2.317,2.728,67.9,31.4,-42.8,406,744,0
R,,3926398,3.987,1.794,2.290,-133.9,172.9,-160.7,686,792,9
R,,3926458,0.722,0.452,-0.262,-11.4,75.9,-136.9,744,854,0
R,,3926518,-0.118,0.852,0.174,-30.0,-18.3,-88.1,773,886,0
R,,3926578,-0.105,0.948,-0.013,44.3,-26.5,-42.2,777,893,0
R,,3926681,-0.101,1.009,-0.060,9.0,-28.0,-18.0,762,898,0
R,,3926698,-0.131,1.037,-0.089,16.5,-26.5,-20.0,754,897,0
R,,3926757,-0.178,1.009,-0.107,30.5,-46.3,-14.2,726,902,0
R,,3926818,-0.016,1.173,-0.165,-24.7,-19.0,-42.9,654,908,0
R,,3926908,-0.026,1.544,-0.013,-104.5,-1.6,-105.3,625,905,0
R,,3926968,0.703,2.109,-0.323,-139.3,-100.3,-135.8,470,901,0
R,,3927028,-0.482,1.816,-1.319,-219.1,201.3,-342.5,203,888,0
R,,3927087,0.041,0.188,-0.506,-10.2,-11.0,-84.9,565,761,0
R,,3927148,0.299,0.249,-0.226,9.1,-32.7,168.9,511,710,0
R,,3927208,0.319,0.442,-0.262,37.5,22.4,304.7,487,683,0
R,,3927268,-0.005,1.032,-0.618,88.0,57.3,351.1,508,669,0
R,,3927328,-0.436,2.139,-0.685,189.7,76.7,363.5,482,664,0
R,,3927388,-2.628,2.245,0.000,163.1,41.5,249.8,446,704,0
R,,3927448,-0.929,2.064,0.863,-206.7,292.9,-300.0,596,713,0
R,,3927508,-1.036,1.523,-0.327,46.7,-19.9,-118.0,707,818,0
R,,3927568,0.033,0.674,-0.299,-21.6,55.3,-94.0,758,872,0
R,,3927627,-0.128,1.074,-0.002,27.7,-25.6,-39.8,772,887,0
R,,3927687,-0.082,1.035,-0.031,17.6,-37.1,-14.0,769,890,0
R,,3927748,0.126,0.978,-0.135,36.9,-18.7,-21.0,744,890,0
R,,3927808,-0.045,1.016,-0.186,12.6,-20.5,-31.1,731,896,0
R,,3927898,-0.148,1.179,-0.287,-36.4,-31.7,-55.1,632,907,0
R,,3927957,-0.012,1.454,-0.147,-89.8,5.0,-89.6,597,903,0
R,,3928018,0.324,2.059,-0.132,-187.7,-7.0,-154.5,500,900,0
R,,3928078,0.553,1.859,-0.601,-226.2,66.1,-281.2,242,893,0
R,,3928138,0.074,1.036,-1.132,-116.7,177.4,-162.8,500,736,0
R,,3928207,0.399,0.152,-0.314,7.4,-17.9,154.7,491,673,0
R,,3928258,0.291,0.361,-0.129,60.6,16.2,275.3,462,661,0
R,,3928318,0.211,0.851,-0.345,105.7,53.7,344.4,485,668,0
R,,3928377,-0.214,2.074,-0.518,164.3,76.0,364.6,459,670,0
R,,3928438,-2.277,2.681,-0.823,131.1,2.2,259.7,428,713,0
R,,3928498,-1.324,1.455,0.675,-48.5,110.0,-184.5,401,734,0
R,,3928587,-0.344,0.821,-0.348,-1.5,-34.0,-176.0,716,825,0
R,,3928682,-0.081,1.024,0.001,15.8,-19.4,-51.8,771,884,0
R,,3928738,-0.138,0.991,-0.122,30.2,-27.6,-31.8,775,888,0
R,,3928798,-0.072,0.980,-0.171,22.2,-44.8,-28.4,759,892,0
R,,3928858,-0.102,1.000,-0.234,10.5,-30.5,-36.7,739,900,0
R,,3928917,-0.088,1.093,-0.105,-19.0,-45.7,-53.4,664,907,0
R,,3929008,-0.040,1.452,-0.019,-77.6,-26.5,-101.4,640,904,0
R,,3929068,0.355,2.226,-0.074,-198.6,-48.7,-175.1,558,898,0
R,,3929127,-0.006,1.793,-0.300,-211.8,99.0,-351.4,251,894,0
R,,3929188,-0.019,0.292,-1.446,-51.8,26.0,-99.0,544,710,0
R,,3929248,0.596,0.041,-0.402,49.2,-53.1,155.1,489,699,0
R,,3929308,0.324,0.335,-0.074,98.5,-7.9,278.8,483,678,0
R,,3929368,0.233,0.936,-0.326,131.2,50.9,334.3,502,669,0
R,,3929428,-0.202,2.145,-0.568,191.8,86.7,370.1,482,671,0
R,,3929488,-2.623,2.472,-0.828,155.1,-20.1,262.2,435,708,0
R,,3929548,-0.915,3.429,2.079,-423.2,379.6,-337.8,594,723,9
R,,3929638,-0.385,0.294,-0.249,-51.2,72.8,-147.5,739,852,0
R,,3929698,-0.018,0.878,0.073,5.4,-29.2,-54.3,766,881,0
R,,3929758,-0.100,0.946,-0.212,40.3,-29.7,-23.1,770,886,0
R,,3929818,0.055,0.995,-0.256,14.1,-41.8,-29.0,761,890,0
R,,3929877,-0.101,1.009,-0.243,5.8,-16.9,-42.4,753,896,0
R,,3929938,-0.102,1.011,-0.214,5.3,-57.0,-49.1,725,902,0
R,,3929998,-0.131,1.198,-0.157,-37.9,-35.5,-63.5,671,904,0
R,,3930058,-0.097,1.463,-0.104,-98.4,-16.9,-103.6,636,904,0
R,,3930118,0.463,2.178,0.118,-198.6,-59.7,-166.3,540,896,0
R,,3930178,-0.486,1.691,-0.363,-179.1,118.7,-347.8,297,894,0
R,,3930238,-0.108,-0.200,-1.475,-47.1,3.2,-78.8,553,731,0
R,,3930341,0.277,0.195,-0.088,80.5,-56.7,268.8,471,672,0
R,,3930358,0.368,0.385,-0.137,98.7,-36.7,289.0,479,673,0
R,,3930417,0.241,1.015,-0.425,136.1,63.4,346.0,495,664,0
R,,3930508,-1.219,2.625,-0.306,161.9,143.0,328.5,471,713,0
R,,3930568,-2.046,2.348,1.909,119.9,-172.6,18.3,394,742,0
R,,3930658,-2.869,1.817,-1.148,-23.8,-4.5,-207.6,698,803,0
R,,3930718,-0.920,1.269,0.359,-63.9,8.4,-119.8,760,874,0
R,,3930778,-0.171,1.119,-0.181,9.6,-13.4,-52.2,775,889,0
R,,3930838,-0.183,0.971,-0.061,-4.4,-23.7,-30.9,776,894,0
R,,3930898,-0.096,1.037,0.130,16.2,-28.1,-22.6,756,897,0
R,,3930958,-0.126,0.980,-0.250,-4.6,-10.5,-28.9,736,900,0
R,,3931018,-0.087,1.064,-0.093,8.4,-37.5,-25.9,668,906,0
R,,3931078,-0.099,1.155,-0.182,-39.6,-30.9,-50.6,632,904,0
R,,3931138,-0.002,1.541,-0.005,-108.9,-8.7,-93.5,567,905,0
R,,3931198,0.474,2.244,-0.308,-142.2,-101.0,-132.0,438,899,0
R,,3931258,-0.363,1.788,-0.807,-235.3,196.2,-339.5,226,886,0
R,,3931318,0.528,0.049,-0.420,-72.5,-3.6,-60.2,552,748,0
R,,3931378,0.341,0.098,-0.279,-23.3,30.7,162.5,521,724,0
R,,3931438,0.268,0.414,-0.295,26.3,60.8,292.3,476,692,0
R,,3931498,0.093,1.004,-0.672,64.8,129.0,341.8,485,672,0
R,,3931558,-0.273,2.154,-0.808,158.6,125.0,357.7,438,680,0
R,,3931626,-3.071,2.187,-0.512,203.0,-268.3,258.6,429,712,0
R,,3931708,-0.571,0.985,0.629,-138.8,309.7,-279.0,598,710,0
R,,3931768,-0.428,1.440,-0.134,-33.2,-65.0,-158.6,714,819,0
R,,3931828,0.270,0.613,-0.203,-0.5,-1.1,-67.9,768,880,0
R,,3931918,-0.082,0.904,-0.143,37.1,-33.6,-27.4,776,889,0
R,,3931978,0.045,1.030,-0.166,7.9,-13.4,-33.9,760,894,0
R,,3932038,-0.182,1.020,-0.148,8.1,-8.6,-32.6,740,900,0
R,,3932098,-0.067,1.024,-0.123,-2.8,-38.0,-36.6,671,905,0
R,,3932158,-0.105,1.146,-0.142,-38.0,-18.7,-56.0,630,906,0
R,,3932218,-0.084,1.375,0.046,-77.1,-9.8,-88.7,620,906,0
R,,3932278,0.246,2.018,0.028,-152.8,-58.9,-141.2,536,901,0
R,,3932338,0.845,1.717,-0.129,-206.9,114.4,-283.7,257,895,0
R,,3932398,0.042,1.183,-0.825,-129.7,170.8,-173.3,523,795,0
R,,3932458,0.443,0.478,-0.528,-8.9,13.5,145.8,521,736,0
R,,3932518,0.239,0.325,-0.362,-14.7,64.5,277.2,468,735,0
R,,3932578,0.167,0.999,-0.746,2.2,183.6,334.1,484,694,0
R,,3932637,-0.327,1.861,-1.229,63.0,228.2,357.6,472,662,0
R,,3932698,-1.834,2.144,-1.859,152.6,90.3,295.9,461,686,0
R,,3932788,-0.381,1.683,1.998,-163.3,140.1,-239.8,592,698,0
R,,3932848,-1.515,2.377,-0.285,-22.6,-59.2,-181.4,707,818,0
R,,3932908,0.117,0.743,-0.071,-68.9,12.6,-82.3,764,878,0
R,,3932968,-0.098,0.936,0.040,35.0,-40.1,-35.7,775,892,0
R,,3933028,-0.097,1.039,-0.210,-3.7,-36.0,-21.9,764,894,0
R,,3933088,-0.009,1.017,-0.101,9.9,-5.3,-37.3,743,899,0
R,,3933148,-0.172,1.012,-0.218,-8.6,-24.0,-32.6,721,906,0
R,,3933208,-0.083,1.087,-0.059,-22.0,-28.0,-37.9,649,906,0
R,,3933268,-0.052,1.355,0.129,-84.4,-7.0,-64.9,632,904,0
R,,3933328,0.114,1.712,-0.061,-145.3,-5.8,-127.5,577,900,0
R,,3933388,1.541,2.522,-0.622,-207.8,16.8,-200.6,242,898,0
R,,3933448,0.686,1.666,-0.730,-132.8,219.8,-265.9,292,846,0
R,,3933508,0.592,0.151,-0.466,-1.2,-4.5,133.4,484,710,0
R,,3933568,0.073,0.074,-0.049,-11.9,59.5,239.0,526,698,0
R,,3933628,0.179,0.733,-0.618,43.1,134.9,328.7,500,689,0
R,,3933688,-0.275,1.559,-0.979,119.9,90.0,364.3,479,679,0
R,,3933749,-1.567,2.759,-0.445,154.6,83.3,325.5,447,700,0
R,,3933838,-0.818,1.698,0.525,-84.0,98.8,-189.7,404,734,0
R,,3933898,-2.712,2.144,-0.454,41.0,42.4,-224.7,696,801,0
R,,3933988,-0.301,1.096,0.132,-36.4,-45.2,-83.8,765,879,0
R,,3934048,0.026,0.938,0.025,42.1,-21.7,-34.5,773,885,0
R,,3934138,-0.048,1.032,-0.175,41.9,-24.2,-32.2,757,893,0
R,,3934198,-0.137,0.994,-0.316,24.9,-38.2,-32.1,729,901,0
R,,3934258,-0.118,1.109,-0.253,-28.0,-39.4,-58.8,688,904,0
R,,3934318,-0.092,1.304,-0.138,-70.2,-26.4,-83.9,697,903,0
R,,3934378,-0.013,1.693,-0.332,-145.1,-10.3,-136.9,704,898,0
R,,3934438,1.321,2.765,-0.534,-166.3,-99.1,-201.1,405,895,0
R,,3934499,0.565,1.169,-0.771,-154.9,192.8,-249.2,275,854,0
R,,3934567,1.160,0.375,-0.193,63.4,-42.7,114.0,527,713,0
R,,3934618,0.271,0.186,0.021,98.2,4.6,235.1,539,701,0
R,,3934678,0.322,0.620,-0.043,145.5,49.0,329.1,503,689,0
R,,3934738,0.287,1.905,-0.083,164.5,50.8,359.8,489,726,0
R,,3934798,-1.276,2.573,-0.329,148.4,53.3,333.2,479,760,0
R,,3934888,-1.309,1.058,0.319,-61.3,65.3,-183.8,524,718,0
R,,3934948,-1.138,1.103,0.211,41.1,35.6,-155.0,701,809,0
R,,3935010,-0.178,1.027,-0.166,-16.8,-14.3,-81.0,758,873,0
R,,3935068,-0.145,1.031,-0.184,38.7,-38.1,-30.6,768,883,0
R,,3935128,-0.077,0.950,-0.300,17.9,-34.5,-15.2,768,888,0
R,,3935188,-0.032,1.009,-0.341,21.4,-39.6,-16.8,748,892,0
R,,3935249,-0.039,0.944,-0.541,-31.0,-52.2,-42.7,724,896,0
R,,3935308,-0.129,1.077,-0.068,-30.8,-31.9,-60.6,724,902,0
R,,3935368,-0.123,1.293,-0.169,-63.2,-41.0,-80.8,711,901,0
R,,3935458,0.462,2.260,-0.370,-198.1,-60.1,-175.5,524,899,0
R,,3935518,-0.226,2.317,-0.197,-165.9,45.7,-374.8,265,887,0
R,,3935579,0.443,-0.097,-1.156,-74.1,10.2,-66.9,563,732,0
R,,3935638,0.380,-0.093,-0.384,41.3,-77.3,178.5,460,693,0
R,,3935698,0.362,0.320,-0.008,95.8,-16.7,294.7,494,658,0
R,,3935758,0.278,1.010,-0.484,113.5,65.8,360.8,502,663,0
R,,3935818,-0.572,2.424,-0.604,220.0,118.2,339.4,516,695,0
R,,3935908,-2.073,2.389,1.975,104.8,-106.8,-19.1,408,744,0
R,,3935968,3.826,1.789,0.921,-117.7,101.6,-123.2,674,775,9
R,,3936028,0.352,0.427,-0.334,-26.8,47.4,-143.4,735,848,0
R,,3936088,-0.162,0.912,0.187,-10.0,-23.3,-73.2,769,883,0
R,,3936148,-0.071,0.931,0.020,29.8,-25.3,-31.9,774,888,0
R,,3936208,-0.046,1.038,-0.156,11.4,-34.6,-18.3,767,892,0
R,,3936268,-0.072,0.980,-0.120,12.2,-17.2,-27.0,759,899,0
R,,3936329,-0.113,1.024,-0.273,15.0,-49.1,-25.9,735,903,0
R,,3936388,-0.079,1.142,-0.100,-37.2,-35.4,-51.7,666,908,0
R,,3936448,-0.074,1.429,-0.027,-86.5,-24.6,-85.4,641,905,0
R,,3936551,1.501,2.468,-0.500,-196.7,-40.3,-211.3,333,900,0
R,,3936568,0.806,1.543,-0.439,-205.3,80.9,-285.5,319,895,0
R,,3936628,0.138,0.711,-0.952,-136.5,176.2,-138.7,516,763,0
R,,3936688,0.604,0.441,-0.458,8.5,47.5,137.1,521,731,0
R,,3936749,0.187,0.254,-0.330,13.5,36.2,272.6,504,717,0
R,,3936837,0.047,1.259,-0.759,76.7,119.7,360.2,492,675,0
