side,stage,device_ms,ax,ay,az,gx,gy,gz,toe,heel,phase
L,,3769565,0.314,1.175,0.524,125.3,72.8,-107.3,538,759,0
L,,3769575,0.399,0.199,0.977,84.7,114.5,-68.8,568,777,0
L,,3769585,-0.133,-0.299,0.535,-32.2,166.8,-64.4,547,803,0
L,,3769595,-0.264,0.086,0.603,-16.4,146.0,-60.1,545,789,0
L,,3769605,1.099,-0.183,0.467,-20.0,171.0,18.4,526,787,0
L,,3769615,0.803,-0.021,0.159,-63.2,141.0,35.8,523,780,0
L,,3769625,0.655,-0.071,0.441,-81.1,116.5,45.2,526,776,0
L,,3769635,0.549,-0.135,0.245,-127.8,103.6,47.8,527,767,0
L,,3769645,0.531,-0.078,0.068,-143.0,84.6,55.4,522,770,0
L,,3769655,0.637,-0.011,-0.049,-158.8,65.2,73.9,529,766,0
L,,3769665,0.665,0.069,-0.155,-178.0,43.6,92.0,534,767,0
L,,3769675,0.678,0.118,-0.170,-213.7,16.1,109.8,518,752,0
L,,3769685,0.661,0.141,-0.170,-218.8,-2.7,127.6,529,758,0
L,,3769695,0.651,0.161,-0.110,-244.7,-11.5,151.1,533,760,0
L,,3769705,0.588,0.305,-0.029,-243.9,-9.8,170.3,535,761,0
L,,3769715,0.537,0.440,0.009,-253.4,-3.8,185.4,527,759,0
L,,3769725,0.487,0.583,0.086,-256.4,-0.8,197.6,524,761,0
L,,3769735,0.462,0.777,0.170,-261.1,-0.9,211.1,521,766,0
L,,3769745,0.615,0.904,0.215,-265.5,-2.4,223.3,512,765,0
L,,3769755,0.516,1.015,0.239,-272.3,2.9,239.5,510,772,0
L,,3769765,0.447,1.143,0.318,-270.7,10.9,256.2,498,770,0
L,,3769775,0.480,1.497,0.270,-293.4,26.5,266.1,484,772,0
L,,3769785,0.492,1.632,0.147,-285.7,23.7,273.4,469,773,0
L,,3769795,0.621,1.848,0.074,-307.9,30.6,280.2,472,784,0
L,,3769805,0.541,2.079,0.009,-296.4,49.7,281.4,476,771,0
L,,3769815,0.444,2.244,-0.076,-279.8,68.1,285.9,485,774,0
L,,3769825,0.298,2.359,-0.257,-267.4,69.8,284.5,482,769,0
L,,3769835,0.119,2.658,-0.350,-270.5,67.6,283.0,475,766,0
L,,3769845,-0.058,2.701,-0.451,-246.1,60.5,286.2,483,766,0
L,,3769855,-0.431,2.707,-0.423,-240.5,49.6,288.8,487,765,0
L,,3769865,-0.898,2.706,-0.259,-287.0,41.6,275.7,478,761,0
L,,3769875,-1.701,2.506,-0.138,-265.3,79.6,270.4,477,762,0
L,,3769885,-2.080,2.208,-0.185,-230.5,142.1,210.3,478,748,0
L,,3769895,-2.217,2.438,-0.532,-180.3,195.5,151.9,480,770,0
L,,3769905,-2.170,2.837,-1.597,-187.9,246.0,119.0,470,770,0
L,,3769915,-1.463,3.089,-2.335,-136.0,257.1,65.8,463,761,9
L,,3769925,-0.784,1.858,-2.554,68.0,197.1,8.9,494,774,0
L,,3769935,-0.785,1.861,-1.672,127.6,136.7,-48.9,484,778,0
L,,3769945,-0.762,1.913,-1.170,177.1,100.9,-122.2,497,773,0
L,,3769955,-0.887,0.899,-0.923,170.3,76.0,-134.3,508,773,0
L,,3769965,-0.818,1.381,-0.596,142.3,22.5,-138.3,623,774,0
L,,3769975,1.226,0.807,2.185,138.8,-85.4,-138.5,663,813,0
L,,3769985,5.501,-0.342,5.004,90.7,-198.0,105.9,671,819,0
L,,3769995,1.568,2.363,-1.239,9.8,33.0,-77.0,683,828,0
L,,3770005,-2.989,3.437,-1.423,183.8,-122.2,-248.4,697,831,0
L,,3770015,-0.719,1.022,0.478,63.7,-35.6,-159.1,707,843,0
L,,3770025,-0.287,2.314,0.657,16.1,-38.7,-115.2,713,853,0
L,,3770035,0.066,1.184,-0.134,126.6,-19.3,-106.2,720,858,0
L,,3770045,-0.714,0.329,0.499,108.9,-42.3,-105.9,731,870,0
L,,3770055,-0.902,0.795,0.309,59.9,-21.9,-121.4,737,873,0
L,,3770065,-0.091,1.276,-0.280,79.6,-9.8,-79.5,742,880,0
L,,3770075,0.001,1.071,0.123,74.4,-7.2,-71.7,744,884,0
L,,3770085,-0.415,0.955,0.196,61.2,-1.7,-74.5,748,887,0
L,,3770095,-0.241,0.911,0.249,74.0,17.5,-54.8,738,875,0
L,,3770105,-0.240,0.901,0.213,69.0,38.4,-38.9,750,891,0
L,,3770115,-0.116,0.963,0.127,56.4,32.4,-34.5,754,892,0
L,,3770125,0.021,0.960,0.164,45.2,19.3,-33.3,756,894,0
L,,3770135,-0.051,0.979,0.145,34.6,4.4,-33.9,754,893,0
L,,3770145,-0.045,1.002,0.190,25.4,1.6,-31.2,755,892,0
L,,3770155,-0.039,1.016,0.203,20.8,0.9,-31.1,756,895,0
L,,3770165,-0.024,0.987,0.210,14.4,-5.3,-30.1,756,894,0
L,,3770175,-0.073,0.946,0.240,10.1,-12.2,-25.9,756,895,0
L,,3770185,-0.110,0.914,0.263,10.3,-13.0,-23.8,756,896,0
L,,3770195,-0.122,0.925,0.274,9.8,-9.8,-21.0,756,896,0
L,,3770205,-0.114,0.954,0.276,7.9,-5.7,-17.7,756,894,0
L,,3770215,-0.110,1.003,0.312,10.7,0.0,-16.6,750,889,0
L,,3770225,-0.133,1.022,0.321,8.7,5.2,-14.3,755,894,0
L,,3770235,-0.173,0.975,0.331,10.6,10.7,-11.4,754,895,0
L,,3770245,-0.144,0.966,0.324,10.7,15.5,-11.2,754,895,0
L,,3770255,-0.142,0.943,0.306,9.6,18.4,-13.1,751,898,0
L,,3770265,-0.051,0.955,0.261,11.3,17.4,-15.6,750,895,0
L,,3770275,-0.038,0.953,0.269,10.6,10.1,-17.7,748,896,0
L,,3770285,-0.056,0.980,0.314,11.3,5.7,-20.3,747,896,0
L,,3770295,-0.075,1.000,0.312,13.0,1.4,-22.3,745,898,0
L,,3770305,-0.082,0.995,0.294,14.8,0.8,-24.3,745,898,0
L,,3770315,-0.094,1.018,0.293,22.4,0.4,-26.1,742,898,0
L,,3770325,-0.077,0.991,0.361,35.4,1.9,-28.0,741,900,0
L,,3770335,-0.105,1.021,0.309,20.6,4.4,-31.5,743,905,0
L,,3770345,-0.121,1.017,0.329,27.3,7.2,-33.5,735,901,0
L,,3770355,-0.108,1.011,0.342,31.2,11.3,-38.1,731,901,0
L,,3770365,-0.074,1.021,0.335,37.7,11.6,-42.7,726,902,0
L,,3770375,-0.054,1.027,0.332,41.1,11.2,-47.1,720,905,0
L,,3770385,-0.065,1.038,0.293,44.9,6.7,-54.3,712,906,0
L,,3770395,-0.082,1.030,0.235,47.7,3.0,-60.4,703,907,0
L,,3770405,-0.088,1.037,0.239,48.1,2.8,-60.9,691,909,0
L,,3770415,-0.110,1.053,0.181,48.4,-0.3,-65.3,672,909,0
L,,3770425,-0.216,1.083,0.224,50.4,3.5,-68.0,643,893,0
L,,3770435,-0.223,1.113,0.235,52.3,8.9,-68.5,640,910,0
L,,3770445,-0.218,1.155,0.235,55.7,12.8,-69.5,636,909,0
L,,3770455,-0.187,1.189,0.233,59.0,18.8,-71.9,634,908,0
L,,3770465,-0.168,1.214,0.182,63.4,24.1,-75.3,629,909,0
L,,3770475,-0.138,1.270,0.234,69.9,27.1,-80.9,626,907,0
L,,3770485,-0.127,1.306,0.231,74.4,29.0,-87.4,617,907,0
L,,3770497,-0.140,1.341,0.289,80.2,30.7,-94.5,608,908,0
L,,3770507,-0.182,1.386,0.337,83.6,37.5,-101.1,600,906,0
L,,3770517,-0.191,1.434,0.390,87.0,43.4,-108.5,607,908,0
L,,3770527,-0.194,1.505,0.392,92.6,52.0,-117.8,598,908,0
L,,3770537,-0.008,1.565,0.368,96.6,62.5,-129.4,597,908,0
L,,3770547,0.000,1.664,0.270,102.9,75.1,-139.7,586,905,0
L,,3770557,0.108,1.959,0.324,113.7,79.1,-147.4,581,905,0
L,,3770567,0.173,1.998,0.479,121.3,86.2,-152.8,558,909,0
L,,3770577,0.239,2.190,0.771,128.3,113.7,-152.8,529,907,0
L,,3770587,0.373,2.435,1.063,132.9,154.6,-149.3,452,910,0
L,,3770597,0.385,2.584,1.154,130.4,210.7,-141.0,385,909,0
L,,3770607,0.421,2.359,0.919,151.5,291.6,-144.3,323,908,0
L,,3770617,0.762,1.772,0.185,196.7,277.1,-173.3,297,905,0
L,,3770627,0.706,1.314,-0.455,186.0,193.2,-184.7,331,898,0
L,,3770637,-0.400,1.687,-0.232,147.5,154.1,-210.1,303,895,0
L,,3770647,-0.613,1.437,-0.006,125.8,129.7,-176.4,288,885,0
L,,3770657,-0.438,1.460,0.080,135.8,122.9,-145.1,374,851,0
L,,3770667,-0.176,1.248,0.501,104.0,119.4,-104.0,498,787,0
L,,3770677,0.288,0.588,0.703,98.4,139.2,-74.9,545,750,0
L,,3770687,0.306,0.048,0.781,12.4,149.9,-41.1,546,772,0
L,,3770697,-0.495,-0.401,0.441,-33.1,153.5,-58.3,545,777,0
L,,3770707,0.171,-0.042,0.549,-29.4,140.9,-32.9,537,767,0
L,,3770717,0.929,-0.177,0.272,-72.0,126.4,33.9,515,772,0
L,,3770727,0.604,0.006,0.568,-89.5,88.6,35.9,514,767,0
L,,3770737,0.535,-0.101,0.489,-138.4,82.0,39.5,513,766,0
L,,3770747,0.447,-0.006,0.234,-163.1,84.1,42.4,512,760,0
L,,3770757,0.494,0.041,0.067,-169.2,78.1,54.8,517,762,0
L,,3770767,0.539,0.101,-0.067,-181.3,67.2,72.3,522,761,0
L,,3770777,0.608,0.162,-0.092,-195.3,46.6,88.4,533,766,0
L,,3770787,0.657,0.191,-0.151,-211.1,20.9,101.5,533,764,0
L,,3770797,0.677,0.211,-0.136,-230.8,-4.2,113.2,535,765,0
L,,3770807,0.620,0.256,-0.062,-249.6,-17.1,132.7,534,763,0
L,,3770817,0.546,0.404,-0.037,-246.9,-16.6,153.7,536,767,0
L,,3770827,0.557,0.535,0.000,-251.0,-14.9,170.0,531,762,0
L,,3770837,0.569,0.657,0.087,-258.2,-17.9,182.8,522,759,0
L,,3770847,0.589,0.831,0.132,-264.4,-23.3,198.8,508,759,0
L,,3770857,0.632,0.950,0.155,-271.1,-28.2,212.6,503,764,0
L,,3770867,0.578,1.136,0.202,-278.4,-29.1,225.6,499,768,0
L,,3770877,0.452,1.406,0.189,-285.0,-28.4,242.2,488,771,0
L,,3770887,0.431,1.561,0.086,-286.3,-38.3,252.9,475,771,0
L,,3770897,0.592,1.732,0.097,-292.5,-30.0,264.1,471,768,0
L,,3770907,0.457,1.943,0.177,-286.3,1.2,268.5,465,773,0
L,,3770917,0.235,2.229,0.023,-274.6,52.8,269.8,469,777,0
L,,3770927,0.169,2.323,-0.157,-263.6,47.0,264.6,479,780,0
L,,3770937,-0.032,2.427,-0.318,-259.5,40.6,257.9,473,778,0
L,,3770947,-0.056,2.554,-0.368,-244.4,37.0,263.8,476,775,0
L,,3770957,-0.139,2.663,-0.397,-231.0,31.5,274.3,486,777,0
L,,3770967,-0.652,2.642,-0.319,-217.6,27.0,273.7,492,776,0
L,,3770977,-1.333,2.451,-0.069,-231.8,50.6,254.8,481,777,0
L,,3771059,-0.935,1.457,-0.988,145.6,127.1,-88.3,518,771,0
L,,3771119,-2.826,3.240,-2.012,125.1,-112.6,-210.7,706,845,0
L,,3771179,-0.082,1.079,0.019,67.8,-24.5,-62.2,745,882,0
L,,3771239,-0.051,0.956,0.137,29.4,7.7,-26.7,753,889,0
L,,3771329,-0.213,0.970,0.419,18.0,15.2,-11.0,750,891,0
L,,3771397,-0.078,0.999,0.333,27.2,8.6,-20.9,741,895,0
L,,3771449,-0.046,1.048,0.312,46.9,12.2,-43.6,732,900,0
L,,3771509,-0.145,1.162,0.091,68.4,9.8,-68.4,677,906,0
L,,3771569,-0.126,1.275,0.132,80.2,15.7,-84.4,661,907,0
L,,3771628,0.032,1.671,0.388,112.9,43.6,-126.2,656,906,0
L,,3771689,0.829,2.230,0.719,180.3,210.3,-140.9,385,910,0
L,,3771778,-0.626,-0.305,0.168,-1.4,95.3,-57.2,550,799,0
L,,3771838,0.326,-0.035,0.269,-135.3,22.6,85.4,532,769,0
L,,3771899,0.461,0.397,0.085,-218.6,8.0,197.2,529,768,0
L,,3771958,0.302,1.175,0.347,-256.0,14.4,258.1,498,769,0
L,,3772019,0.187,2.568,-0.305,-298.4,-18.6,246.8,487,775,0
L,,3772079,-2.285,2.236,-0.550,-195.3,68.8,141.6,486,785,0
L,,3772168,5.727,1.051,1.976,117.3,-81.8,4.0,692,842,9
L,,3772259,-0.360,0.982,0.088,59.7,-0.2,-82.1,747,887,0
L,,3772320,0.020,1.020,0.158,22.5,-6.5,-37.3,754,892,0
L,,3772378,-0.078,0.981,0.249,10.7,-2.3,-21.9,755,891,0
L,,3772439,-0.003,0.949,0.347,19.0,11.6,-19.8,744,892,0
L,,3772499,0.024,1.098,0.213,37.1,17.2,-41.6,726,900,0
L,,3772559,-0.089,1.083,0.142,59.0,-4.4,-66.3,632,907,0
L,,3772619,-0.131,1.199,0.151,76.2,5.6,-79.1,579,912,0
L,,3772679,-0.112,1.600,0.449,118.5,16.5,-113.4,567,910,0
L,,3772739,0.765,2.479,1.214,178.6,138.2,-114.6,391,913,0
L,,3772799,-0.244,1.827,0.674,175.0,-10.0,-159.7,326,876,0
L,,3772859,0.789,-0.020,0.689,-14.6,-1.0,48.2,511,774,0
L,,3772918,0.101,-0.049,0.313,-157.7,39.4,148.1,517,762,0
L,,3772979,0.387,0.493,0.323,-242.6,4.4,228.2,515,756,0
L,,3773039,0.511,1.710,0.283,-315.4,-13.4,255.9,468,757,0
L,,3773099,-0.264,2.562,-0.423,-278.6,-118.0,242.5,460,773,0
L,,3773202,-0.979,1.571,-0.760,142.4,74.1,-141.1,569,759,0
L,,3773219,2.405,0.667,1.060,129.9,-80.6,-81.3,657,802,0
L,,3773279,0.234,1.015,-0.059,99.1,-73.7,-138.5,727,860,0
L,,3773339,-0.231,1.090,0.192,72.1,16.9,-64.1,747,885,0
L,,3773399,0.031,1.013,0.132,14.0,-5.6,-35.8,755,892,0
L,,3773458,-0.088,1.026,0.344,12.5,0.1,-23.5,755,891,0
L,,3773519,0.036,1.039,0.259,15.6,5.9,-28.8,746,893,0
L,,3773579,-0.098,0.990,0.316,43.9,9.1,-47.1,718,900,0
L,,3773639,-0.136,1.073,0.149,64.7,5.9,-70.5,611,909,0
L,,3773699,0.016,1.318,0.069,92.3,10.3,-93.8,574,909,0
L,,3773759,0.018,1.916,0.330,142.1,42.5,-146.7,592,905,0
L,,3773819,0.536,2.415,0.979,196.8,306.3,-129.0,296,908,0
L,,3773879,0.034,0.987,0.661,137.7,-10.4,-76.9,539,732,0
L,,3773939,0.394,-0.035,0.745,-105.4,32.5,67.9,529,761,0
L,,3773999,0.414,0.207,0.075,-226.4,-5.3,135.1,544,761,0
L,,3774059,0.445,0.885,0.263,-284.9,-26.8,214.6,514,762,0
L,,3774119,0.241,2.426,0.016,-309.4,-10.6,253.9,460,774,0
L,,3774179,-1.857,2.301,-0.306,-203.7,34.7,254.8,458,774,0
L,,3774248,-0.836,1.714,-1.287,147.2,98.7,-81.9,495,765,0
L,,3774299,-1.372,3.569,-2.882,155.1,-68.0,-199.2,695,834,9
L,,3774359,-0.599,0.966,-0.127,85.0,-28.9,-111.1,741,880,0
L,,3774419,0.067,0.954,0.000,52.7,21.7,-42.6,754,894,0
L,,3774479,-0.074,0.954,0.218,6.8,-5.0,-33.5,757,895,0
L,,3774539,-0.222,0.974,0.325,14.9,13.6,-12.4,751,899,0
L,,3774599,-0.077,1.004,0.250,12.1,-1.0,-30.1,730,902,0
L,,3774663,-0.061,1.026,0.256,34.7,18.2,-50.3,660,907,0
L,,3774719,-0.226,1.147,0.298,58.1,5.1,-80.9,611,909,0
L,,3774779,-0.088,1.528,0.292,89.1,33.4,-122.5,576,908,0
L,,3774839,0.309,2.484,0.980,126.2,117.5,-166.3,466,908,0
L,,3774899,-0.065,1.443,-0.129,165.9,162.8,-221.6,313,893,0
L,,3774959,-0.245,-0.051,0.750,-37.4,117.8,-33.6,537,789,0
L,,3775049,0.854,0.321,-0.023,-241.0,7.4,149.8,519,767,0
L,,3775109,0.641,1.036,0.188,-278.8,-50.5,234.5,499,771,0
L,,3775169,0.189,2.516,-0.272,-276.5,5.1,270.7,472,774,0
L,,3775229,-2.066,1.894,0.307,-222.8,77.6,224.4,464,784,0
L,,3775289,-0.846,1.783,-1.105,152.3,157.3,-71.6,481,775,0
L,,3775349,-1.216,1.904,-0.209,123.9,-111.7,-216.5,700,838,0
L,,3775409,-0.470,1.042,0.116,71.0,-22.8,-83.3,742,878,0
L,,3775469,0.079,0.954,0.139,37.2,18.4,-32.6,754,892,0
L,,3775529,-0.095,0.931,0.269,-0.1,-12.0,-25.1,756,894,0
L,,3775589,-0.112,0.924,0.332,11.6,29.5,-12.6,752,894,0
L,,3775649,-0.017,1.037,0.324,20.7,-2.8,-33.4,744,900,0
L,,3775709,-0.024,1.009,0.282,47.1,0.0,-58.8,715,904,0
L,,3775769,-0.217,1.147,0.204,52.8,5.5,-73.4,639,905,0
L,,3775829,-0.132,1.357,0.275,74.6,34.5,-94.1,613,908,0
L,,3775889,0.175,1.909,0.349,115.4,81.9,-147.5,578,906,0
L,,3775949,0.952,1.638,-0.129,187.6,205.5,-189.7,332,903,0
L,,3776009,0.608,0.596,0.887,98.3,82.6,-71.8,532,739,0
L,,3776069,0.404,-0.166,0.599,-129.0,107.5,67.8,501,757,0
L,,3776129,0.785,0.307,-0.055,-217.8,53.4,142.4,512,750,0
L,,3776189,0.562,1.018,0.253,-288.1,-7.2,219.3,510,772,0
L,,3776250,0.154,2.427,-0.432,-283.8,6.6,248.9,491,776,0
L,,3776339,-1.549,2.477,-1.118,-144.9,262.6,112.3,480,774,0
L,,3776399,-0.746,1.364,-0.388,121.4,115.2,-90.8,595,775,0
L,,3776459,-0.817,1.444,0.612,46.4,-42.9,-129.5,708,846,0
L,,3776519,-0.382,0.909,0.279,61.8,17.6,-63.2,745,884,0
L,,3776579,-0.051,0.999,0.191,24.1,-2.8,-33.8,753,890,0
L,,3776639,-0.150,0.981,0.320,8.7,4.6,-22.1,753,894,0
L,,3776699,-0.038,0.959,0.329,17.7,10.9,-10.9,741,898,0
L,,3776759,-0.100,1.026,0.305,26.5,5.4,-30.9,722,903,0
L,,3776819,-0.131,1.026,0.282,44.6,12.7,-55.3,664,907,0
L,,3776879,-0.210,1.166,0.267,56.0,30.5,-74.1,631,908,0
L,,3776939,-0.163,1.444,0.345,82.3,42.2,-104.3,613,908,0
L,,3777000,0.296,2.226,0.781,126.2,120.8,-143.7,561,909,0
L,,3777059,-0.735,1.911,0.139,175.4,97.4,-214.1,306,894,0
L,,3777119,-0.888,-0.105,0.527,-37.3,118.5,-80.6,546,782,0
L,,3777179,0.455,-0.036,0.115,-181.2,94.2,81.9,521,763,0
L,,3777239,0.592,0.437,-0.011,-255.3,-13.0,176.3,520,768,0
L,,3777299,0.616,1.498,-0.009,-283.2,-66.5,261.2,476,768,0
L,,3777359,-0.048,2.485,-0.610,-210.8,-12.9,291.4,478,776,0
L,,3777419,-1.908,2.518,-0.692,-175.2,114.8,109.2,499,766,0
L,,3777479,-0.956,1.291,-0.313,117.8,92.8,-99.8,631,773,0
L,,3777578,-0.383,0.980,0.045,80.9,-10.2,-98.2,741,879,0
L,,3777629,-0.059,0.954,0.141,53.8,4.2,-46.8,753,891,0
L,,3777689,-0.086,0.982,0.241,16.3,-12.9,-32.1,759,898,0
L,,3777750,-0.075,0.984,0.291,16.5,18.5,-16.1,752,897,0
L,,3777809,-0.059,1.049,0.245,19.2,6.0,-24.0,729,902,0
L,,3777869,-0.041,1.012,0.236,36.8,15.8,-40.5,662,908,0
L,,3777929,-0.084,1.140,0.137,52.2,9.7,-60.9,605,907,0
L,,3777989,-0.012,1.257,0.101,85.8,15.8,-85.4,571,910,0
L,,3778049,0.138,1.841,0.337,132.4,40.2,-133.7,521,911,0
L,,3778109,0.855,2.029,0.443,212.3,231.9,-158.3,290,905,0
L,,3778169,0.202,1.004,0.671,128.8,10.5,-80.9,497,769,0
L,,3778229,0.432,0.082,0.659,-61.8,31.5,82.7,515,772,0
L,,3778290,0.436,0.254,0.043,-186.8,17.2,162.9,523,770,0
L,,3778349,0.403,0.849,0.456,-235.5,1.7,244.9,484,770,0
L,,3778409,-0.060,2.153,-0.133,-281.4,2.7,232.0,463,758,0
L,,3778469,-1.488,2.220,-0.216,-243.8,-18.4,225.0,471,774,0
L,,3778529,-0.861,1.674,-1.399,73.2,92.3,-51.3,480,774,0
L,,3778589,1.359,1.916,0.354,70.0,-67.6,-71.1,692,831,0
L,,3778649,-0.374,0.672,0.154,69.3,-25.1,-118.6,737,874,0
L,,3778709,-0.152,1.003,0.159,54.7,-2.5,-47.1,750,888,0
L,,3778769,-0.007,0.949,0.216,17.9,-14.9,-36.8,760,897,0
L,,3778830,-0.089,0.991,0.268,15.4,5.1,-16.7,754,895,0
L,,3778889,0.000,1.036,0.237,16.1,-0.4,-24.3,743,899,0
L,,3778949,0.015,1.026,0.233,38.8,12.6,-42.7,709,905,0
L,,3779009,-0.085,1.102,0.117,60.5,2.1,-57.7,597,909,0
L,,3779099,-0.125,1.506,0.353,116.3,6.3,-99.6,560,910,0
L,,3779159,0.434,2.174,0.823,174.0,48.5,-122.2,385,909,0
L,,3779219,0.162,1.705,-0.221,231.3,35.1,-201.2,284,892,0
L,,3779279,-0.611,-0.419,0.367,14.7,6.8,-17.3,542,767,0
L,,3779339,0.118,-0.185,0.384,-125.7,1.5,114.7,532,756,0
L,,3779399,0.193,0.318,0.261,-219.7,-10.7,196.8,539,753,0
L,,3779459,0.319,1.469,0.243,-262.7,-20.3,235.1,492,758,0
L,,3779519,-0.029,2.559,-0.311,-291.9,-93.5,212.2,495,782,0
L,,3779580,-1.825,2.395,-0.653,-189.5,-9.7,118.9,486,785,0
L,,3779639,-0.620,1.836,-0.258,107.5,99.5,-103.7,604,764,0
L,,3779699,-0.155,1.345,-0.050,104.3,-54.0,-121.8,707,842,0
L,,3779790,-0.074,1.007,0.185,67.9,25.6,-47.9,750,890,0
L,,3779849,0.008,0.990,0.175,10.6,-12.7,-40.1,761,897,0
L,,3779910,-0.093,1.011,0.270,7.9,7.2,-16.1,760,895,0
L,,3779969,0.001,0.997,0.238,4.0,-5.4,-21.0,753,895,0
L,,3780029,-0.051,0.988,0.282,27.2,1.0,-35.4,741,900,0
L,,3780120,-0.143,1.099,0.225,55.6,7.3,-72.9,635,911,0
L,,3780179,-0.177,1.369,0.268,84.9,27.7,-95.8,578,907,0
L,,3780239,0.142,1.919,0.355,133.3,59.5,-145.9,546,907,0
L,,3780299,1.032,1.737,0.503,187.6,245.0,-174.1,260,906,0
L,,3780359,0.410,0.406,0.855,98.8,59.1,-66.4,559,755,0
L,,3780427,0.486,-0.084,0.355,-143.5,91.2,68.9,526,760,0
L,,3780479,0.487,0.270,-0.101,-224.5,11.4,136.9,544,761,0
L,,3780540,0.691,0.963,0.317,-277.8,-64.8,226.6,488,766,0
L,,3780599,0.252,2.285,-0.132,-283.6,-1.4,266.4,449,774,0
L,,3780660,-1.969,1.823,0.039,-196.9,168.4,232.1,483,772,0
L,,3780719,-0.658,1.823,-1.371,109.6,196.2,-33.3,545,768,0
L,,3780779,-1.096,2.530,-0.387,141.5,-119.3,-182.9,698,836,0
L,,3780872,-0.233,0.909,0.265,78.8,71.7,-35.3,754,889,0
L,,3780929,0.000,1.032,0.225,8.3,-15.7,-33.8,761,899,0
L,,3780989,-0.204,0.991,0.351,5.8,9.1,-6.5,756,897,0
L,,3781049,-0.040,0.972,0.336,9.1,-0.6,-13.8,737,901,0
L,,3781109,-0.090,0.942,0.313,21.4,16.8,-29.1,719,903,0
L,,3781169,-0.119,1.065,0.297,41.7,7.4,-59.3,690,905,0
L,,3781259,-0.148,1.401,0.245,80.7,29.9,-99.2,637,907,0
L,,3781349,0.452,2.551,1.115,126.0,164.6,-146.8,483,906,0
L,,3781410,-0.561,1.310,0.025,137.9,134.3,-165.2,279,879,0
L,,3781469,1.128,-0.389,0.592,-45.1,127.6,30.1,530,780,0
L,,3781529,0.567,0.167,-0.024,-198.2,72.2,111.1,530,758,0
L,,3781620,0.483,1.210,0.436,-265.5,-35.5,242.0,471,769,0
L,,3781679,0.117,2.467,-0.399,-270.8,22.0,254.5,461,770,0
L,,3781740,-1.538,1.732,-0.061,-191.3,127.3,178.7,490,773,0
L,,3781830,0.583,0.992,0.098,119.8,18.4,-84.4,642,781,0
L,,3781919,-0.849,0.827,0.084,40.5,-34.0,-100.0,734,870,0
L,,3782022,-0.068,0.984,0.228,15.6,-10.4,-32.3,754,892,0
L,,3782040,-0.123,0.942,0.266,12.3,-13.5,-24.2,756,894,0
L,,3782099,-0.127,0.969,0.296,16.1,17.0,-13.3,754,897,0
L,,3782160,-0.085,0.954,0.314,13.8,0.2,-21.5,744,895,0
L,,3782219,-0.052,1.075,0.361,34.3,11.4,-40.5,727,905,0
L,,3782280,-0.180,1.073,0.251,55.3,9.2,-68.8,656,909,0
L,,3782339,-0.137,1.279,0.211,84.7,30.3,-92.2,626,907,0
L,,3782399,0.106,1.956,0.363,123.8,69.8,-153.2,600,905,0
L,,3782458,0.821,1.850,0.243,168.4,225.3,-185.7,300,903,0
L,,3782549,1.040,-0.415,0.734,-49.2,125.3,28.7,552,791,0
L,,3782609,0.631,0.145,-0.023,-186.2,52.7,116.2,541,766,0
L,,3782669,0.565,0.759,0.169,-255.9,-15.1,206.7,518,770,0
L,,3782759,0.028,2.355,-0.297,-220.8,29.7,276.0,476,775,0
L,,3782849,-1.467,2.306,-1.420,-66.0,145.6,100.5,478,770,0
L,,3782910,-0.715,1.237,-0.497,113.6,94.9,-92.5,574,758,0
L,,3782969,-0.568,1.417,0.414,52.0,-0.3,-110.6,713,847,0
L,,3783030,-0.241,0.878,0.236,47.9,-14.9,-60.2,746,884,0
L,,3783089,-0.019,1.031,0.220,18.9,-5.0,-34.5,755,890,0
L,,3783149,-0.125,0.970,0.342,11.6,7.4,-18.3,759,896,0
L,,3783209,0.079,0.996,0.264,18.6,13.6,-10.9,745,898,0
L,,3783269,-0.081,0.975,0.369,29.8,20.2,-29.7,712,900,0
L,,3783330,-0.066,1.059,0.122,47.2,3.7,-56.0,655,908,0
L,,3783389,-0.164,1.160,0.216,55.5,19.9,-69.0,633,909,0
L,,3783450,-0.107,1.354,0.328,90.3,23.7,-98.7,611,908,0
L,,3783540,0.611,2.492,0.856,158.9,211.6,-130.2,342,912,0
L,,3783599,-0.197,1.462,0.397,126.2,66.2,-117.3,423,849,0
L,,3783660,0.873,-0.009,0.467,-57.1,100.5,75.1,507,789,0
L,,3783719,0.540,0.239,0.102,-189.6,49.0,152.8,520,764,0
L,,3783780,0.425,0.798,0.401,-252.0,9.7,238.0,502,773,0
L,,3783839,0.200,2.245,-0.071,-277.9,6.7,241.7,492,770,0
L,,3783943,-1.658,2.388,-1.529,-94.9,70.9,75.7,498,781,0
L,,3783967,-1.060,1.593,-1.065,64.8,76.8,-29.1,516,783,0
L,,3784019,1.437,0.917,0.610,117.3,-89.3,-79.4,653,796,0
L,,3784080,0.040,1.287,-0.113,105.6,24.4,-108.2,724,860,0
L,,3784139,-0.225,0.926,0.232,51.6,-0.2,-61.8,745,887,0
L,,3784200,0.019,1.001,0.132,10.3,11.9,-29.5,752,891,0
L,,3784289,-0.056,0.995,0.263,15.4,9.1,-15.8,754,892,0
L,,3784349,-0.049,1.018,0.275,18.8,4.6,-31.0,746,895,0
L,,3784410,-0.005,1.035,0.276,43.6,8.4,-53.4,721,903,0
L,,3784469,-0.077,1.212,0.081,60.4,7.4,-71.1,622,912,0
L,,3784530,-0.073,1.367,0.239,89.8,12.9,-93.3,577,909,0
L,,3784589,0.233,1.764,0.186,136.9,72.3,-132.4,474,912,0
L,,3784650,1.153,2.136,0.083,252.0,102.2,-165.9,270,906,0
L,,3784709,0.505,0.674,0.904,130.4,-24.2,-61.3,521,754,0
L,,3784769,0.380,0.037,0.617,-83.5,50.6,93.3,509,768,0
L,,3784860,0.294,0.429,0.224,-246.8,16.1,219.6,516,761,0
L,,3784950,0.336,2.392,-0.405,-294.0,-23.2,212.8,477,775,0
L,,3785009,-1.400,2.150,-0.218,-251.1,-48.6,198.3,485,783,0
L,,3785099,3.499,0.938,1.793,158.1,-53.0,-49.2,681,826,9
L,,3785160,-0.127,0.166,0.101,41.3,-77.0,-125.9,730,867,0
L,,3785219,0.087,1.008,0.183,67.3,8.8,-57.4,748,888,0
L,,3785280,-0.001,0.956,0.150,15.4,-20.1,-44.8,755,896,0
L,,3785339,-0.060,1.015,0.223,14.1,5.9,-18.6,762,900,0
L,,3785400,-0.030,1.000,0.209,9.1,-2.0,-19.8,750,900,0
L,,3785459,-0.043,0.990,0.203,25.6,17.0,-30.3,725,900,0
L,,3785519,-0.064,1.067,0.159,42.1,0.8,-55.2,638,909,0
L,,3785580,-0.067,1.221,0.081,67.1,6.3,-75.1,596,909,0
L,,3785639,-0.181,1.494,0.383,106.1,25.9,-104.0,576,909,0
L,,3785700,0.407,2.299,0.877,165.9,60.5,-124.7,394,911,0
L,,3785759,0.118,1.786,-0.036,222.2,11.7,-216.5,325,894,0
L,,3785820,-0.532,-0.916,0.124,35.2,47.1,-24.7,547,781,0
L,,3785879,0.389,-0.182,0.199,-138.7,55.4,104.7,529,764,0
L,,3785940,0.552,0.358,0.182,-240.4,-17.9,189.9,515,758,0
L,,3786030,0.024,2.257,-0.024,-322.9,-19.1,239.0,481,770,0
L,,3786120,-2.238,2.610,-1.273,-166.1,159.0,113.7,469,773,0
L,,3786179,0.659,0.754,0.545,146.1,41.5,-106.8,661,808,0
L,,3786240,0.157,1.027,-0.054,94.0,-44.0,-121.6,723,860,0
L,,3786330,0.033,0.943,0.122,45.7,1.7,-40.8,754,892,0
L,,3786419,-0.119,0.982,0.272,10.3,1.7,-19.8,761,901,0
L,,3786480,-0.034,1.004,0.264,4.2,11.7,-18.9,753,899,0
L,,3786540,-0.122,1.057,0.341,10.9,11.4,-23.7,743,899,0
L,,3786629,-0.063,1.051,0.188,47.6,-4.7,-64.8,681,910,0
L,,3786690,-0.091,1.301,0.134,82.1,20.2,-84.4,618,909,0
L,,3786750,-0.072,1.652,0.294,117.5,59.2,-128.4,592,906,0
L,,3786809,0.514,2.537,1.219,163.3,188.3,-115.2,375,909,0
L,,3786870,-0.563,1.372,0.394,135.6,53.3,-138.9,393,853,0
L,,3786929,0.811,-0.225,0.381,-66.0,88.1,63.9,534,782,0
L,,3786998,0.618,0.196,-0.058,-222.4,30.5,134.6,545,771,0
L,,3787080,0.585,1.323,0.049,-276.8,-30.1,245.2,497,777,0
L,,3787169,-0.681,2.651,-0.598,-207.0,64.9,285.1,479,769,0
L,,3787230,-1.075,2.319,-1.944,-47.6,245.1,48.9,471,755,0
L,,3787290,2.735,1.066,1.068,92.7,-32.2,-19.3,674,816,0
L,,3787349,-0.039,0.579,0.299,97.7,-73.5,-113.2,732,867,0
L,,3787410,-0.020,1.059,0.158,73.5,37.9,-41.4,750,888,0
L,,3787473,-0.022,0.988,0.218,12.1,-6.6,-36.6,757,895,0
L,,3787530,-0.149,0.963,0.320,15.8,12.1,-8.9,758,895,0
L,,3787589,0.000,0.957,0.279,12.0,3.5,-19.8,753,897,0
L,,3787650,-0.095,1.033,0.272,31.5,6.0,-31.2,742,899,0
L,,3787709,-0.029,1.014,0.221,44.4,-9.8,-52.5,727,907,0
L,,3787770,-0.209,1.150,0.304,76.0,0.9,-75.5,641,909,0
L,,3787830,-0.068,1.700,0.285,115.7,39.9,-124.8,615,907,0
L,,3787919,0.329,1.937,0.572,167.0,324.1,-174.7,291,900,0
L,,3787980,0.413,-0.120,0.972,52.5,105.0,-55.7,568,786,0
L,,3788040,0.785,-0.052,0.035,-163.8,78.0,40.8,554,774,0
L,,3788129,0.497,0.760,0.139,-266.7,-50.6,200.4,533,777,0
L,,3788190,0.542,2.239,-0.020,-271.1,35.2,265.3,475,787,0
L,,3788250,-0.346,2.297,-0.205,-228.4,14.0,265.0,491,784,0
L,,3788310,-0.965,2.322,-1.632,-51.9,188.1,83.0,473,773,0
L,,3788370,0.846,0.654,0.797,107.4,3.9,-66.1,654,799,0
L,,3788429,-0.164,1.519,0.131,103.0,12.8,-97.3,724,859,0
L,,3788489,-0.309,1.003,0.251,72.1,4.4,-66.1,750,886,0
L,,3788549,-0.056,0.990,0.213,20.5,-12.0,-37.5,757,892,0
L,,3788610,-0.151,0.991,0.321,15.4,4.4,-20.0,758,898,0
L,,3788669,-0.015,1.000,0.260,12.1,6.0,-17.9,751,898,0
L,,3788730,-0.153,0.941,0.306,14.2,6.3,-24.7,734,904,0
L,,3788820,-0.169,1.030,0.256,41.3,9.0,-64.6,669,909,0
L,,3788879,-0.101,1.231,0.193,60.8,32.9,-84.5,630,907,0
L,,3788940,-0.083,1.752,0.396,96.8,65.6,-144.1,608,906,0
L,,3789000,0.786,2.552,0.802,139.7,228.6,-166.5,327,912,0
L,,3789060,0.005,1.206,0.424,112.7,148.1,-101.3,483,827,0
L,,3789150,0.507,-0.006,0.043,-173.8,108.2,75.3,526,774,0
L,,3789209,0.368,0.321,0.233,-263.8,55.0,176.9,505,777,0
L,,3789270,0.885,1.570,-0.274,-274.2,13.7,221.8,490,803,0
L,,3789330,0.090,2.216,-0.297,-236.3,-14.0,277.4,498,816,0
L,,3789389,-1.903,2.407,-0.184,-181.4,58.6,164.7,492,806,0
L,,3789480,1.432,0.464,1.289,105.7,-21.9,-56.0,654,797,0
L,,3789540,-0.070,1.271,0.162,111.4,15.3,-99.4,728,862,0
L,,3789600,-0.285,0.967,0.188,57.8,-28.2,-67.4,751,888,0
L,,3789690,-0.098,0.952,0.229,14.9,-7.4,-24.4,760,895,0
L,,3789779,-0.038,0.965,0.284,14.8,8.4,-12.7,753,896,0
L,,3789839,-0.107,0.991,0.256,25.2,10.5,-24.7,736,900,0
L,,3789900,-0.059,1.066,0.186,47.2,6.7,-54.3,690,909,0
L,,3789959,-0.117,1.186,0.142,63.2,15.0,-68.4,630,910,0
L,,3790020,-0.135,1.492,0.294,95.2,25.6,-100.7,599,910,0
L,,3790110,1.116,2.120,0.678,195.9,159.3,-148.2,318,909,0
L,,3790200,-0.558,-0.692,0.590,-1.9,21.3,-24.7,550,799,0
L,,3790259,0.368,-0.054,0.213,-136.6,80.2,128.3,499,756,0
L,,3790320,0.433,0.523,0.219,-224.0,-7.8,212.7,473,752,0
L,,3790379,0.408,1.604,0.189,-277.4,-54.5,258.3,472,782,0
L,,3790440,-0.554,2.565,-0.132,-243.1,-182.5,268.0,491,788,0
L,,3790500,-2.220,2.236,-1.048,-92.6,111.9,97.5,507,785,0
L,,3790611,-1.558,1.962,-0.140,18.6,-31.6,-207.6,714,850,0
L,,3790621,-0.345,1.764,0.018,32.3,13.8,-114.9,718,852,0
L,,3790679,-0.309,0.958,0.092,38.4,-42.9,-79.2,743,883,0
L,,3790740,0.039,1.032,0.105,27.9,5.3,-36.1,751,893,0
L,,3790799,-0.050,0.962,0.202,11.6,0.0,-22.6,758,894,0
L,,3790890,0.015,1.005,0.198,20.1,0.7,-25.0,754,895,0
L,,3790980,0.007,1.057,0.172,39.9,-1.1,-49.1,737,905,0
L,,3791040,-0.129,1.145,0.130,57.7,3.9,-68.5,627,910,0
L,,3791100,-0.092,1.474,0.258,99.6,14.1,-94.0,580,910,0
L,,3791190,0.686,2.487,1.165,189.6,137.2,-102.1,344,912,0
L,,3791280,0.640,0.320,0.926,78.8,-26.9,-30.5,570,760,0
L,,3791339,0.216,-0.160,0.739,-123.8,22.0,111.9,532,770,0
L,,3791430,0.369,0.565,0.352,-248.2,-9.3,227.5,505,757,0
L,,3791490,0.170,1.843,0.009,-293.9,-72.1,246.9,490,754,0
L,,3791549,-1.072,2.905,-0.266,-235.6,-157.4,246.2,445,758,0
L,,3791610,-1.896,2.430,-1.570,-68.1,161.4,0.7,458,772,0
L,,3791669,3.333,0.519,1.342,133.0,-84.8,-35.4,663,812,0
L,,3791730,-0.209,1.058,-0.184,62.0,-60.0,-134.3,732,870,0
L,,3791820,0.199,0.998,0.093,27.3,-4.4,-39.4,752,893,0
L,,3791879,-0.038,0.977,0.270,9.5,-21.0,-30.4,757,896,0
L,,3791940,0.068,0.992,0.232,15.7,18.2,-23.3,754,895,0
L,,3792000,-0.040,1.022,0.291,32.4,-1.0,-38.9,742,900,0
L,,3792060,-0.040,1.041,0.167,54.3,0.1,-61.6,703,906,0
L,,3792120,-0.095,1.182,0.100,65.9,4.7,-77.4,602,913,0
L,,3792180,-0.136,1.455,0.268,103.3,10.5,-104.7,561,911,0
L,,3792240,0.377,2.313,0.779,157.6,59.1,-149.3,442,911,0
L,,3792330,-0.084,1.243,0.448,134.1,16.1,-105.6,409,831,0
L,,3792390,0.541,-0.061,0.269,-34.2,78.7,39.4,513,756,0
L,,3792480,0.358,0.139,0.066,-233.5,-58.8,144.0,537,769,0
L,,3792540,0.402,0.886,0.347,-268.8,-45.4,228.7,502,766,0
L,,3792600,-0.058,2.253,-0.199,-268.0,34.9,243.0,468,770,0
L,,3792660,-1.709,1.894,-0.016,-226.5,123.0,213.3,471,782,0
L,,3792720,-0.696,1.719,-1.305,114.1,108.0,-52.2,489,775,0
L,,3792780,-0.585,2.602,-1.244,132.0,-70.8,-152.3,696,834,0
L,,3792839,-0.448,0.818,0.135,46.7,-41.1,-93.8,735,874,0
L,,3792900,0.020,1.031,0.156,48.5,22.8,-47.8,750,888,0
L,,3792959,-0.081,0.959,0.256,17.3,-14.3,-32.5,758,896,0
L,,3793020,-0.099,0.960,0.271,14.9,9.7,-17.2,756,899,0
L,,3793080,-0.052,1.002,0.266,20.0,-2.7,-25.4,746,901,0
L,,3793140,-0.059,0.998,0.278,32.6,8.3,-42.2,720,903,0
L,,3793230,-0.181,1.185,0.182,60.1,17.2,-77.7,620,908,0
L,,3793290,-0.213,1.470,0.357,90.3,28.9,-112.5,584,908,0
L,,3793350,0.229,2.342,0.763,125.3,103.1,-156.2,506,908,0
L,,3793410,0.018,1.501,-0.488,152.8,182.0,-213.2,317,894,0
L,,3793470,-0.049,-0.324,0.655,-43.7,149.9,-46.8,555,791,0
L,,3793530,0.635,0.049,0.128,-188.5,89.9,78.3,533,772,0
L,,3793641,0.569,1.746,-0.020,-305.7,-27.8,242.5,508,775,0
L,,3793651,0.387,1.918,-0.027,-294.0,-0.7,252.7,482,772,0
L,,3793709,-0.234,2.566,-0.519,-207.5,36.1,277.1,500,785,0
L,,3793770,-1.345,2.400,-1.501,-85.5,161.9,88.8,488,764,0
L,,3793830,0.249,1.167,0.063,136.4,83.7,-75.1,651,802,0
L,,3793890,0.440,1.153,-0.240,116.9,-11.4,-108.5,719,854,0
L,,3793950,-0.280,0.882,0.240,53.1,-22.3,-54.0,751,889,0
L,,3794011,0.016,1.025,0.147,24.3,-4.6,-33.7,754,892,0
L,,3794070,-0.125,0.997,0.272,8.7,-1.1,-18.5,758,895,0
L,,3794129,-0.018,0.987,0.242,7.2,14.4,-13.7,751,897,0
L,,3794190,-0.129,0.965,0.292,22.3,11.4,-26.2,735,901,0
L,,3794250,-0.041,1.027,0.219,48.0,-0.8,-52.0,686,908,0
L,,3794310,-0.083,1.151,0.154,63.7,12.6,-70.2,623,910,0
L,,3794370,-0.177,1.502,0.358,98.8,37.0,-109.6,588,909,0
L,,3794430,0.309,2.196,0.811,136.1,93.5,-148.6,481,911,0
L,,3794490,0.040,1.622,-0.259,177.0,138.7,-212.9,322,895,0
L,,3794580,0.693,-0.066,0.418,-71.6,69.3,35.1,524,773,0
L,,3794640,0.650,0.235,0.056,-219.0,25.4,117.3,531,761,0
L,,3794743,0.545,1.759,0.299,-322.7,-35.4,250.1,476,781,0
L,,3794760,0.166,2.186,0.088,-289.4,37.3,245.7,479,780,0
L,,3794850,-1.360,2.391,-1.107,-177.5,172.2,104.5,501,787,0
L,,3794910,0.095,1.260,-0.958,144.5,30.2,-95.5,641,790,0
L,,3794970,-0.291,1.297,0.508,41.5,-60.2,-113.3,723,857,0
L,,3795030,-0.313,1.010,0.305,74.9,39.2,-43.6,751,889,0
L,,3795090,0.048,0.970,0.155,12.6,-6.6,-35.3,755,893,0
L,,3795150,-0.173,0.945,0.319,14.7,1.8,-10.0,759,893,0
L,,3795209,0.032,0.977,0.283,17.8,12.9,-15.1,758,893,0
L,,3795270,-0.131,0.949,0.321,14.4,5.0,-18.1,752,899,0
L,,3795360,-0.137,1.038,0.329,52.9,4.5,-66.6,711,906,0
L,,3795419,-0.073,1.330,0.175,88.5,22.8,-90.7,643,908,0
L,,3795510,0.321,2.350,0.792,136.5,113.5,-159.8,568,908,0
L,,3795570,-0.135,1.427,-0.454,149.4,162.3,-216.0,367,893,0
L,,3795630,-0.027,-0.247,0.782,-36.6,117.8,-52.1,550,791,0
L,,3795690,0.522,0.081,0.040,-182.6,79.3,90.3,537,762,0
L,,3795750,0.320,0.599,0.228,-276.4,62.6,184.3,538,766,0
L,,3795809,0.702,1.690,0.028,-312.3,6.2,228.6,508,778,0
L,,3795870,-0.027,2.614,-0.687,-247.9,-55.4,240.2,514,786,0
L,,3795930,-2.139,2.377,-1.143,-90.2,98.9,72.9,511,783,0
L,,3795990,1.182,0.458,0.972,145.3,1.4,-55.5,658,803,0
L,,3796080,-0.915,1.094,0.322,45.7,-20.5,-110.1,731,865,0
L,,3796169,-0.017,0.993,0.140,27.1,-8.9,-36.0,752,890,0
L,,3796273,-0.049,0.959,0.284,16.9,5.1,-14.9,752,892,0
L,,3796290,-0.014,0.988,0.280,18.2,4.6,-20.0,750,890,0
L,,3796350,-0.068,1.005,0.293,31.9,11.4,-31.7,737,897,0
L,,3796410,-0.077,1.070,0.234,48.3,10.9,-55.7,704,906,0
L,,3796500,-0.115,1.457,0.189,88.4,17.0,-85.6,615,913,0
L,,3796590,0.474,2.361,0.938,148.6,114.4,-129.1,480,912,0
L,,3796680,0.407,0.840,0.682,132.0,2.6,-73.1,528,790,0
L,,3796740,0.475,0.029,0.796,-94.3,42.2,105.7,519,781,0
L,,3796800,0.550,0.315,0.174,-201.2,40.6,198.1,516,782,0
L,,3796860,0.330,1.100,0.325,-263.0,32.6,245.3,500,784,0
L,,3796920,0.215,2.476,-0.224,-303.5,-54.1,220.9,483,762,0
L,,3796980,-1.343,2.269,-0.248,-233.1,-44.6,151.2,493,769,0
L,,3797040,-0.911,1.569,-0.874,98.4,63.1,-87.0,490,765,0
L,,3797108,1.197,1.286,-0.348,88.6,-167.0,-86.9,692,836,0
L,,3797160,-0.035,0.688,0.264,62.0,-76.4,-128.2,733,870,0
L,,3797220,-0.199,1.098,0.077,73.8,60.3,-46.2,747,887,0
L,,3797280,0.070,1.000,0.158,8.1,-11.5,-37.3,751,889,0
L,,3797340,-0.067,1.017,0.319,14.0,3.6,-18.6,752,893,0
L,,3797400,0.086,1.026,0.211,20.3,9.3,-28.5,748,894,0
L,,3797460,-0.006,1.041,0.245,37.9,0.5,-46.2,734,900,0
L,,3797520,-0.075,1.117,0.095,59.4,6.0,-66.5,633,910,0
L,,3797580,0.041,1.371,-0.009,91.2,6.6,-86.6,574,910,0
L,,3797670,0.445,2.295,0.708,160.1,44.7,-134.8,364,913,0
L,,3797730,0.397,1.708,-0.334,219.6,74.2,-200.7,312,899,0
L,,3797790,-0.363,-0.474,0.395,16.8,25.8,-24.5,549,813,0
L,,3797850,0.297,-0.154,0.371,-137.2,35.9,111.5,534,767,0
L,,3797910,0.363,0.496,0.235,-235.2,-20.5,200.2,527,763,0
L,,3797970,0.486,1.521,0.342,-299.3,-35.0,245.0,489,759,0
L,,3798060,-1.221,2.304,-0.399,-236.3,-62.4,202.0,488,780,0
L,,3798120,-1.057,1.843,-1.255,44.0,144.1,-19.8,492,787,0
L,,3798180,0.308,2.340,0.036,131.6,-108.9,-118.9,690,829,0
L,,3798240,-0.557,0.673,0.139,33.6,-77.3,-124.4,737,875,0
L,,3798300,-0.055,1.019,0.114,62.0,49.7,-42.7,751,889,0
L,,3798360,-0.032,0.948,0.223,14.9,-18.2,-35.9,755,897,0
L,,3798450,0.021,0.977,0.242,11.4,5.1,-22.9,751,897,0
L,,3798510,-0.088,0.995,0.227,28.0,8.2,-34.1,719,904,0
L,,3798570,-0.102,1.070,0.220,46.1,5.1,-55.7,620,909,0
L,,3798630,-0.114,1.176,0.137,64.0,9.8,-72.3,565,910,0
L,,3798690,-0.117,1.556,0.378,105.9,21.9,-112.4,527,913,0
L,,3798750,0.410,2.458,0.976,164.2,88.2,-141.1,352,911,0
L,,3798810,-0.304,1.577,-0.048,214.9,51.1,-209.0,291,888,0
L,,3798870,-0.446,-0.404,0.725,-27.9,87.1,-34.3,532,780,0
L,,3798960,0.599,0.278,0.392,-278.8,-46.1,167.9,491,759,0
L,,3799020,0.287,1.150,0.282,-266.9,-48.3,236.7,471,757,0
L,,3799110,-0.528,2.447,-0.236,-223.5,17.6,259.2,490,780,0
L,,3799170,-1.507,2.305,-1.548,-78.4,129.7,74.5,460,776,0
L,,3799230,0.419,1.280,-0.635,129.9,10.5,-98.9,652,803,0
L,,3799291,0.220,1.259,0.200,87.6,-9.7,-115.9,719,857,0
L,,3799350,-0.196,0.987,0.155,79.9,-7.7,-66.8,749,887,0
L,,3799454,-0.121,0.954,0.225,14.7,-12.6,-30.5,760,898,0
L,,3799469,-0.142,0.998,0.255,14.4,-6.0,-22.5,761,898,0
L,,3799530,-0.013,1.004,0.184,9.5,3.8,-18.2,755,900,0
L,,3799590,-0.111,1.040,0.236,19.5,-3.3,-29.8,739,901,0
L,,3799650,-0.019,1.057,0.172,29.3,4.1,-50.5,686,907,0
L,,3799710,-0.146,1.197,0.208,59.2,12.8,-73.5,592,911,0
L,,3799770,-0.079,1.489,0.332,97.0,28.7,-115.3,577,911,0
L,,3799860,0.206,2.478,1.160,145.1,330.6,-144.2,309,906,0
L,,3799920,-0.422,0.875,0.384,93.8,139.2,-105.0,519,814,0
L,,3799980,0.754,-0.035,0.437,-102.6,49.6,39.7,549,783,0
L,,3800048,0.587,0.353,0.139,-248.3,-59.5,151.6,549,771,0
L,,3800100,0.463,1.062,0.377,-264.5,-10.7,221.5,508,773,0
L,,3800160,0.061,2.136,-0.174,-264.8,23.0,240.1,492,769,0
L,,3800250,-1.651,2.292,-0.931,-132.5,107.8,112.5,506,776,0
L,,3800310,0.277,1.405,-0.477,137.2,51.2,-100.3,663,815,0
L,,3800370,0.313,0.962,0.172,84.5,-45.9,-113.6,722,857,0
L,,3800460,-0.095,0.973,0.142,55.0,26.6,-36.7,750,890,0
L,,3800524,-0.121,0.919,0.237,13.3,-18.1,-30.2,755,894,0
L,,3800610,-0.022,0.997,0.266,9.6,9.3,-16.0,756,899,0
L,,3800670,-0.142,1.003,0.333,18.0,6.5,-28.7,741,902,0
L,,3800730,-0.019,1.050,0.238,42.0,4.4,-50.8,703,906,0
L,,3800791,-0.184,1.086,0.174,60.9,12.1,-66.9,607,910,0
L,,3800850,-0.160,1.466,0.325,99.5,23.2,-103.3,571,910,0
L,,3800940,0.265,2.593,1.276,138.1,165.6,-144.4,364,911,0
L,,3801030,0.659,-0.047,0.737,41.3,118.3,-40.6,557,785,0
L,,3801090,0.652,-0.009,0.159,-169.4,48.5,44.4,544,771,0
L,,3801180,0.499,0.801,0.232,-271.8,-55.2,204.5,512,778,0
L,,3801240,0.040,1.917,-0.133,-258.7,44.6,245.6,484,784,0
L,,3801299,-0.726,2.176,-0.393,-237.2,107.3,216.0,499,789,0
L,,3801360,-1.093,2.141,-1.448,-56.9,106.5,60.4,512,796,0
L,,3801420,3.134,0.603,1.975,123.8,-79.5,-31.9,674,823,0
L,,3801480,0.260,0.434,0.283,88.2,-50.4,-96.5,722,857,0
L,,3801541,-0.324,1.109,0.128,78.6,22.4,-53.3,750,887,0
L,,3801600,-0.024,0.960,0.260,19.4,-2.3,-40.8,757,894,0
L,,3801660,-0.172,0.959,0.314,16.8,4.4,-15.5,758,899,0
L,,3801720,-0.016,0.998,0.274,11.9,13.2,-17.2,746,900,0
L,,3801780,-0.096,0.961,0.379,24.9,13.0,-24.1,720,904,0
L,,3801871,-0.179,1.091,0.234,49.3,-0.9,-66.7,643,908,0
L,,3801930,-0.169,1.267,0.244,66.2,34.9,-83.1,613,904,0
L,,3801990,0.047,1.731,0.357,100.1,76.7,-134.7,554,906,0
L,,3802050,0.931,1.885,0.391,177.6,218.8,-146.0,289,906,0
L,,3802110,0.534,1.206,0.581,118.5,125.9,-84.0,506,785,0
L,,3802170,0.485,-0.105,0.526,-98.2,117.5,76.3,515,787,0
L,,3802230,0.534,0.151,0.168,-220.6,91.0,147.2,510,773,0
L,,3802291,0.674,1.199,0.297,-275.3,70.0,200.0,502,776,0
L,,3802380,-0.130,2.275,-0.387,-254.3,-13.5,209.3,491,789,0
L,,3802440,-1.845,2.523,-1.727,-112.3,47.9,98.0,497,779,0
L,,3802500,2.124,0.624,1.134,143.2,-48.0,-75.2,672,824,0
L,,3802560,0.000,0.847,0.153,73.2,-52.8,-115.7,732,867,0
L,,3802621,-0.225,1.023,0.255,79.5,37.8,-45.2,749,889,0
L,,3802680,0.012,0.955,0.223,15.8,-9.2,-37.8,756,893,0
L,,3802770,-0.061,1.016,0.204,14.6,10.8,-17.3,751,896,0
L,,3802831,-0.111,1.027,0.347,22.8,0.1,-28.2,739,900,0
L,,3802890,-0.015,1.031,0.252,46.1,5.3,-51.4,703,909,0
L,,3802951,-0.145,1.169,0.199,65.6,6.4,-70.9,612,909,0
L,,3803010,-0.077,1.450,0.314,99.1,25.2,-108.7,575,909,0
L,,3803070,0.360,2.221,0.694,141.9,83.9,-150.9,445,910,0
L,,3803130,0.141,1.717,-0.373,179.3,101.2,-214.5,334,897,0
L,,3803190,-0.719,-0.490,0.557,-22.7,52.1,-51.2,555,796,0
L,,3803250,0.361,-0.009,0.157,-160.3,74.2,111.3,529,771,0
L,,3803310,0.493,0.391,0.026,-235.2,-3.3,205.0,531,771,0
L,,3803371,0.608,1.573,0.133,-279.7,-38.3,269.8,473,772,0
L,,3803430,-0.197,2.505,-0.496,-224.2,-60.8,268.2,485,781,0
L,,3803490,-2.000,2.328,-0.954,-103.3,137.5,88.9,491,767,0
L,,3803559,0.598,1.150,0.089,123.1,53.0,-86.3,637,777,0
L,,3803610,-0.439,1.420,-0.029,53.4,-16.4,-107.9,716,852,0
L,,3803670,-0.215,1.045,0.130,60.2,-16.4,-69.7,746,885,0
L,,3803730,0.052,1.013,0.128,44.2,-4.2,-33.9,755,893,0
L,,3803820,-0.081,1.042,0.266,19.8,6.4,-17.8,754,897,0
L,,3803880,-0.045,1.035,0.296,22.1,7.1,-25.3,739,901,0
L,,3803940,-0.003,1.087,0.190,41.6,10.9,-38.7,692,907,0
L,,3804000,0.001,1.142,0.090,66.6,6.7,-55.1,602,909,0
L,,3804060,-0.019,1.377,0.148,100.1,-4.4,-82.5,559,910,0
L,,3804121,0.214,1.877,0.203,149.6,36.6,-127.2,464,912,0
L,,3804180,1.109,1.425,0.164,255.1,138.4,-170.7,270,907,0
L,,3804241,0.268,0.763,1.002,100.4,-51.4,-60.5,527,735,0
L,,3804300,0.117,-0.109,0.835,-90.7,21.0,95.9,538,770,0
L,,3804360,0.235,0.317,0.234,-193.2,33.1,171.7,525,760,0
L,,3804419,0.300,0.964,0.504,-241.7,-16.9,233.5,505,757,0
L,,3804480,-0.150,2.259,-0.076,-310.7,-47.5,199.7,507,766,0
L,,3804570,-2.740,2.777,-1.529,-150.0,75.4,78.4,467,774,9
L,,3804630,2.855,0.467,0.962,142.1,-116.3,-80.5,666,813,0
L,,3804690,0.099,0.827,0.116,81.4,-57.6,-153.0,730,868,0
L,,3804750,-0.041,1.044,0.133,86.1,27.5,-64.6,751,893,0
L,,3804810,0.015,1.005,0.101,29.8,-26.3,-54.6,760,899,0
L,,3804900,-0.128,0.989,0.231,12.6,17.6,-23.3,744,904,0
L,,3804960,-0.081,1.008,0.159,15.9,13.9,-28.9,670,908,0
L,,3805020,-0.101,1.067,0.202,36.9,10.7,-44.3,578,910,0
L,,3805081,-0.120,1.154,0.155,57.8,15.8,-69.5,530,909,0
L,,3805140,-0.125,1.532,0.423,102.5,24.2,-104.0,445,911,0
L,,3805201,0.529,2.415,1.033,168.0,112.4,-118.7,330,914,0
L,,3805260,-0.474,1.802,0.076,199.3,14.9,-191.1,320,891,0
L,,3805320,-0.653,-0.104,0.678,-11.9,47.6,-8.7,547,780,0
L,,3805380,0.284,-0.075,0.144,-170.5,40.5,118.0,531,773,0
L,,3805470,0.345,1.015,0.508,-268.7,-8.6,241.7,480,762,0
L,,3805531,-0.058,2.595,-0.218,-297.5,-38.1,220.2,495,768,0
L,,3805590,-1.318,1.944,-0.359,-245.3,27.5,152.3,489,784,0
L,,3805650,-0.966,1.605,-1.067,79.0,114.6,-73.7,519,786,0
L,,3805710,-1.834,2.430,-0.909,123.1,-140.6,-197.6,704,842,0
L,,3805770,-0.568,0.909,0.011,54.3,-52.5,-107.2,742,880,0
L,,3805831,0.076,1.002,0.017,41.3,-6.3,-53.6,754,891,0
L,,3805920,-0.154,0.989,0.264,12.6,3.3,-23.1,760,901,0
L,,3805980,-0.029,1.025,0.231,5.4,5.8,-22.8,747,902,0
L,,3806041,-0.122,0.996,0.289,12.9,9.1,-29.6,716,904,0
L,,3806100,-0.079,1.037,0.247,32.4,9.1,-54.5,644,907,0
L,,3806161,-0.160,1.214,0.203,55.3,20.8,-78.8,597,910,0
L,,3806220,-0.143,1.504,0.422,90.9,57.1,-119.2,546,907,0
L,,3806281,0.687,2.507,0.998,144.6,148.4,-137.2,349,912,0
L,,3806340,-0.679,1.361,0.459,139.6,96.5,-171.8,302,879,0
L,,3806400,0.781,-0.266,0.550,-17.2,164.6,13.3,538,781,0
L,,3806468,0.673,0.166,-0.128,-200.9,43.3,108.2,529,761,0
L,,3806520,0.547,0.517,0.072,-258.5,-41.8,190.4,518,768,0
L,,3806581,0.605,1.853,0.077,-303.1,-33.5,263.2,471,775,0
L,,3806640,-0.381,2.521,-0.401,-191.2,57.3,293.2,488,777,0
L,,3806701,-1.231,2.429,-1.522,-106.6,214.4,105.1,471,771,0
L,,3806790,-0.385,2.683,-0.797,106.5,-67.3,-139.7,696,836,0
L,,3806850,-0.431,0.673,0.152,56.1,-60.4,-91.8,740,878,0
L,,3806915,-0.009,0.997,0.157,42.9,8.1,-39.0,751,889,0
L,,3807000,-0.127,0.964,0.300,13.9,7.7,-21.9,755,896,0
L,,3807060,-0.052,0.949,0.295,5.0,7.7,-14.8,747,897,0
L,,3807121,-0.085,0.991,0.327,24.9,9.6,-28.0,726,903,0
L,,3807180,-0.100,1.032,0.205,41.5,0.0,-57.8,681,909,0
L,,3807241,-0.196,1.189,0.234,56.1,15.9,-89.5,623,909,0
L,,3807331,0.014,1.583,0.170,99.3,66.5,-136.5,571,906,0
L,,3807390,0.326,2.485,0.908,137.3,218.4,-130.6,340,907,0
L,,3807451,-0.266,1.263,0.489,111.0,108.1,-121.7,428,842,0
L,,3807510,0.823,-0.029,0.325,-71.2,135.1,44.3,527,785,0
L,,3807571,0.670,0.217,-0.049,-214.4,36.3,109.6,535,767,0
L,,3807630,0.498,0.724,0.272,-283.7,2.8,198.1,520,769,0
L,,3807690,0.461,2.282,0.165,-316.6,37.8,248.2,477,776,0
L,,3807750,-0.708,2.721,-1.157,-169.0,165.6,257.0,600,801,0
L,,3807810,-0.558,2.028,-1.266,-14.7,140.0,-12.8,612,796,0
L,,3807871,-0.447,2.529,-0.567,126.4,-12.6,-109.9,704,842,0
L,,3807930,-1.137,0.601,0.104,87.5,-63.0,-106.1,743,881,0
L,,3808020,0.007,1.058,0.148,27.4,-10.9,-36.6,761,900,0
L,,3808081,-0.267,0.981,0.275,9.9,6.3,-12.6,759,901,0
L,,3808140,-0.053,1.022,0.254,5.6,12.6,-11.5,739,900,0
L,,3808201,-0.160,0.874,0.290,23.7,11.4,-23.1,698,906,0
L,,3808260,-0.097,1.011,0.182,34.1,7.2,-42.9,630,907,0
L,,3808321,-0.220,1.139,0.288,48.5,14.2,-63.0,614,910,0
L,,3808380,-0.163,1.311,0.321,80.2,25.9,-91.7,581,911,0
L,,3808470,0.214,2.401,1.016,125.1,211.4,-117.6,391,913,0
L,,3808531,-0.498,1.439,0.224,140.2,123.2,-147.7,351,877,0
L,,3808590,0.397,-0.117,0.373,-31.8,183.4,-16.1,532,767,0
L,,3808651,0.798,0.189,0.049,-214.6,88.7,51.3,515,759,0
L,,3808710,0.659,0.570,-0.033,-271.3,-45.7,148.7,536,766,0
L,,3808770,0.542,1.687,0.117,-293.8,-71.1,250.1,472,774,0
L,,3808831,-0.039,2.495,-0.308,-228.5,4.8,271.8,480,779,0
L,,3808890,-1.728,2.453,-1.022,-173.7,125.0,85.5,492,780,0
L,,3808951,-0.304,1.076,-0.627,133.8,-13.5,-121.1,647,793,0
L,,3809010,-0.036,1.441,0.290,63.4,-40.1,-104.1,720,857,0
L,,3809100,-0.038,1.012,0.122,45.7,26.9,-37.2,750,890,0
L,,3809161,-0.086,0.981,0.244,12.5,-17.5,-27.9,755,893,0
L,,3809220,-0.087,0.982,0.269,12.7,22.1,-9.0,757,892,0
L,,3809281,-0.052,0.993,0.253,11.6,-2.3,-19.1,753,894,0
L,,3809340,0.026,1.044,0.288,31.5,9.1,-33.6,738,899,0
L,,3809401,-0.055,1.090,0.217,50.6,0.1,-59.9,704,906,0
L,,3809460,-0.083,1.322,0.205,82.6,10.2,-75.8,614,911,0
L,,3809520,-0.013,1.512,0.259,111.1,34.5,-114.5,577,907,0
L,,3809581,0.507,2.330,1.053,161.6,150.5,-114.9,363,914,0
L,,3809640,-0.360,1.600,0.201,156.7,25.9,-163.4,343,884,0
L,,3809701,-0.506,-0.114,0.706,-15.5,33.6,19.8,553,787,0
L,,3809760,0.263,-0.041,0.342,-161.4,64.9,134.7,522,767,0
L,,3809821,0.331,0.523,0.223,-243.8,10.2,213.9,520,764,0
L,,3809918,-0.018,2.559,-0.447,-298.9,-67.0,212.2,488,774,0
L,,3809970,-1.438,2.033,-0.477,-203.8,-21.0,143.9,494,785,0
L,,3810031,-0.916,1.606,-0.955,96.0,40.1,-90.3,556,769,0
L,,3810121,-0.055,0.873,0.160,69.0,-28.0,-126.6,730,864,0
L,,3810180,-0.044,1.023,0.203,77.0,9.0,-53.8,751,890,0
L,,3810241,0.050,0.989,0.159,17.0,-13.4,-43.3,758,895,0
L,,3810300,-0.055,1.010,0.282,17.2,5.1,-20.2,758,898,0
L,,3810390,-0.103,1.016,0.288,26.1,9.9,-27.7,733,899,0
L,,3810450,-0.025,1.039,0.210,43.8,6.3,-47.7,672,905,0
L,,3810510,-0.066,1.152,0.126,59.2,8.3,-62.7,598,908,0
L,,3810571,-0.039,1.389,0.172,92.6,8.4,-87.0,556,909,0
L,,3810630,0.293,1.901,0.385,141.8,42.3,-125.2,450,911,0
L,,3810691,0.968,1.399,0.025,236.3,97.1,-175.7,303,904,0
L,,3810750,0.407,0.595,0.909,90.7,-17.5,-53.6,530,745,0
L,,3810811,0.242,-0.054,0.704,-85.3,16.7,90.3,521,775,0
L,,3810871,0.356,0.264,0.128,-193.0,32.6,173.1,525,762,0
L,,3810930,0.285,0.937,0.546,-238.4,24.8,244.5,493,770,0
L,,3810990,0.115,2.346,-0.270,-296.1,-3.6,210.9,510,786,0
L,,3811050,-1.024,2.090,-0.345,-244.2,19.1,190.1,496,784,0
L,,3811154,2.002,0.608,1.082,130.9,-110.8,-47.3,657,806,0
L,,3811170,1.152,1.737,0.486,62.5,-82.8,-73.6,677,824,0
L,,3811231,-0.739,0.771,0.316,65.3,-34.6,-127.2,733,871,0
L,,3811291,-0.116,0.984,0.101,63.9,26.5,-45.9,752,893,0
L,,3811350,-0.025,0.965,0.217,15.4,-12.4,-40.9,756,896,0
L,,3811411,-0.103,1.004,0.235,14.0,6.3,-18.9,758,898,0
L,,3811470,-0.029,0.984,0.263,3.0,4.4,-18.5,750,901,0
L,,3811531,-0.055,1.015,0.237,34.9,12.1,-26.2,735,903,0
L,,3811590,-0.041,1.068,0.226,40.1,-1.6,-50.7,689,907,0
L,,3811651,-0.098,1.187,0.161,63.0,8.2,-66.7,600,911,0
L,,3811710,-0.164,1.439,0.336,102.5,24.0,-100.4,555,910,0
L,,3811771,0.377,2.193,0.527,148.1,61.6,-131.9,420,910,0
L,,3811831,0.446,1.674,-0.255,207.0,72.4,-198.7,323,899,0
L,,3811890,0.289,-0.329,0.561,29.6,65.5,-7.7,536,785,0
L,,3811951,0.336,-0.121,0.323,-132.5,27.3,84.7,525,765,0
L,,3812010,0.525,0.256,0.103,-239.4,-13.1,183.8,542,772,0
L,,3812071,0.562,1.285,0.216,-262.9,-19.3,255.7,492,774,0
L,,3812130,-0.156,2.504,-0.367,-269.6,10.7,252.5,496,776,0
L,,3812220,-1.352,2.550,-2.162,-55.7,177.8,33.5,483,767,0
L,,3812281,1.858,1.510,0.788,78.4,-16.0,-49.3,676,820,0
L,,3812340,-0.412,0.583,0.312,61.1,-54.6,-121.4,732,871,0
L,,3812401,-0.099,1.000,0.126,79.2,43.2,-41.2,752,890,0
L,,3812460,-0.021,1.009,0.227,14.9,-16.4,-38.3,760,896,0
L,,3812521,-0.139,1.000,0.266,15.9,7.4,-14.0,761,900,0
L,,3812581,-0.032,0.991,0.223,8.8,2.2,-19.6,754,904,0
L,,3812641,-0.117,0.970,0.299,15.5,8.6,-24.7,736,901,0
L,,3812701,-0.059,1.046,0.235,37.1,0.4,-50.4,695,909,0
L,,3812769,-0.129,1.222,0.196,67.2,22.1,-71.1,612,910,0
L,,3812820,-0.159,1.431,0.324,93.0,35.3,-103.3,581,908,0
L,,3812880,0.229,2.221,0.596,130.2,81.2,-148.1,486,910,0
L,,3812941,0.627,1.546,-0.295,183.2,181.5,-216.0,342,897,0
L,,3813000,0.185,-0.382,0.515,-5.8,140.7,-19.3,549,783,0
L,,3813061,0.526,-0.029,0.197,-168.4,60.0,51.8,529,763,0
L,,3813121,0.595,0.366,-0.010,-249.4,-43.4,153.0,542,770,0
L,,3813182,0.447,1.388,0.274,-274.1,-48.7,243.9,482,776,0
L,,3813286,-1.489,2.124,-0.135,-212.0,91.5,228.1,496,773,0
L,,3813300,-1.536,2.116,-0.225,-210.0,138.3,142.0,498,778,0
L,,3813361,-1.033,1.396,-0.616,117.5,114.1,-79.3,571,767,0
L,,3813420,-0.588,1.929,-0.529,111.1,-74.1,-162.3,700,838,0
L,,3813481,-0.221,1.111,-0.025,80.2,-25.9,-73.4,739,877,0
L,,3813541,0.006,0.973,0.165,37.5,27.7,-36.1,752,889,0
L,,3813601,-0.127,0.965,0.252,7.9,-9.2,-24.7,755,895,0
L,,3813661,-0.050,0.934,0.283,14.4,7.7,-11.4,756,892,0
L,,3813720,-0.079,0.983,0.283,12.8,-4.4,-26.2,753,896,0
L,,3813781,0.000,1.059,0.288,34.4,10.7,-41.2,739,902,0
L,,3813840,-0.116,1.010,0.256,61.3,5.6,-64.7,686,910,0
L,,3813901,-0.177,1.362,0.249,89.0,13.7,-96.5,620,910,0
L,,3813960,0.024,1.969,0.430,120.5,52.5,-152.4,617,903,0
L,,3814021,0.503,2.092,0.899,161.0,375.8,-157.7,327,901,0
L,,3814081,0.173,0.378,0.715,76.8,126.0,-78.5,573,784,0
L,,3814141,0.847,-0.185,0.399,-167.5,49.5,30.4,560,777,0
L,,3814201,0.705,0.404,-0.075,-246.2,-75.1,144.2,552,759,0
L,,3814260,0.431,1.195,0.199,-263.7,-51.4,245.5,504,776,0
L,,3814321,-0.081,2.139,-0.184,-216.5,32.9,282.2,485,766,0
L,,3814380,-1.355,1.959,-0.161,-187.1,140.0,182.1,494,775,0
L,,3814441,-0.852,1.539,-1.021,109.7,139.4,-54.7,508,781,0
L,,3814500,-0.995,2.597,-1.180,119.0,-142.8,-182.6,700,837,0
L,,3814561,-0.308,1.020,0.060,64.6,-27.0,-72.4,745,884,0
L,,3814621,0.092,0.956,0.176,23.7,-6.0,-40.6,759,897,0
L,,3814681,-0.145,0.985,0.336,7.8,-5.7,-21.0,757,898,0
L,,3814741,0.036,0.962,0.297,14.7,14.6,-15.3,749,897,0
L,,3814800,-0.080,0.981,0.380,33.9,8.7,-35.4,730,900,0
L,,3814861,-0.062,1.001,0.192,46.7,-2.8,-59.1,683,907,0
L,,3814920,-0.159,1.172,0.226,53.5,13.9,-74.3,635,907,0
L,,3814981,-0.148,1.470,0.400,86.9,41.1,-110.9,602,910,0
L,,3815041,0.406,2.511,0.868,126.3,134.0,-161.0,528,908,0
L,,3815101,-0.673,1.498,-0.047,150.3,135.4,-204.7,359,891,0
L,,3815161,-0.018,-0.126,0.575,-28.4,123.1,-44.6,552,799,0
L,,3815221,0.488,-0.033,-0.005,-182.6,108.1,82.4,534,777,0
L,,3815281,0.653,0.640,-0.069,-244.7,-56.2,173.1,521,778,0
L,,3815340,0.256,1.551,0.080,-258.8,-43.4,265.8,497,780,0
L,,3815401,-0.050,2.314,-0.016,-214.4,17.4,272.2,471,779,0
L,,3815459,-1.504,2.348,-1.080,-157.3,98.6,93.4,504,768,0
L,,3815521,0.228,1.428,-0.484,168.8,-15.4,-128.9,663,817,0
L,,3815581,0.124,1.112,0.109,63.5,-94.5,-132.2,722,861,0
L,,3815641,-0.048,1.011,0.219,81.9,39.5,-64.8,747,886,0
L,,3815701,0.027,0.909,0.186,26.8,-24.2,-45.5,757,896,0
L,,3815761,-0.155,0.997,0.269,24.9,5.2,-20.2,759,899,0
L,,3815821,0.000,1.028,0.214,16.3,0.5,-21.6,742,900,0
L,,3815880,-0.098,0.998,0.228,25.7,9.4,-36.4,698,903,0
L,,3815941,-0.040,1.103,0.176,53.2,7.6,-58.5,610,912,0
L,,3816009,-0.050,1.295,0.064,80.3,8.2,-89.5,584,909,0
L,,3816090,0.266,2.071,0.448,148.1,59.4,-148.1,518,908,0
L,,3816181,-0.054,1.423,0.653,160.4,45.5,-102.9,330,860,0
L,,3816241,0.912,-0.117,0.272,-32.6,26.8,74.9,520,777,0
L,,3816301,0.331,0.083,0.215,-190.9,62.0,145.0,523,763,0
L,,3816361,0.451,0.564,0.191,-264.3,-31.0,216.8,521,762,0
L,,3816420,0.526,1.870,0.271,-319.9,-83.3,263.1,480,771,0
L,,3816480,-0.760,2.985,0.039,-256.4,-211.7,263.1,473,784,0
L,,3816541,-1.615,2.610,-1.543,-39.9,208.2,-0.9,471,788,0
L,,3816601,3.056,0.691,1.132,135.6,-129.4,-49.9,660,810,0
L,,3816661,-0.128,0.838,-0.100,58.8,7.3,-121.9,730,863,0
L,,3816721,0.011,1.036,0.266,75.4,-9.1,-52.2,747,887,0
L,,3816781,0.102,1.042,0.134,22.3,-15.7,-43.1,759,898,0
L,,3816840,-0.044,1.005,0.265,24.1,1.4,-25.2,754,896,0
L,,3816901,0.127,1.011,0.210,30.3,-1.2,-30.8,747,901,0
L,,3816960,0.012,1.046,0.180,43.1,-0.9,-48.5,709,905,0
L,,3817021,0.044,1.174,0.022,68.8,-1.8,-71.4,608,909,0
L,,3817081,0.034,1.448,0.149,105.2,-6.9,-93.8,625,907,0
L,,3817141,0.300,2.069,0.419,167.3,15.8,-143.8,603,904,0
L,,3817201,0.967,1.606,0.044,262.1,193.7,-172.9,320,903,0
L,,3817261,0.521,0.561,0.896,65.9,-31.2,-38.4,577,775,0
L,,3817321,0.178,-0.157,0.484,-140.0,5.3,114.2,566,768,0
L,,3817380,0.187,0.290,0.214,-228.6,-26.9,182.9,554,759,0
L,,3817441,0.361,1.279,0.567,-263.6,10.0,240.1,526,766,0
L,,3817500,-0.004,2.532,-0.454,-298.6,-34.0,217.2,516,785,0
L,,3817561,-1.241,2.168,-0.716,-241.1,3.5,129.2,508,787,0
L,,3817621,-0.985,1.837,-0.637,123.6,109.6,-125.7,641,785,0
L,,3817710,-0.549,0.508,-0.023,46.9,-77.1,-116.8,741,881,0
L,,3817771,-0.082,0.978,0.153,47.1,2.8,-43.1,753,895,0
L,,3817831,-0.123,0.922,0.210,2.8,-3.3,-34.5,761,898,0
L,,3817891,-0.067,0.975,0.330,7.0,19.9,-13.9,755,900,0
L,,3817951,-0.020,1.028,0.265,18.1,-1.8,-30.6,736,899,0
L,,3818011,0.032,1.015,0.198,41.8,-7.4,-54.9,686,907,0
L,,3818071,-0.094,1.143,0.148,52.2,3.2,-73.7,599,911,0
L,,3818131,-0.106,1.421,0.302,88.4,9.8,-105.9,549,909,0
L,,3818191,0.132,2.104,0.503,139.3,61.3,-161.1,409,911,0
L,,3818250,0.871,1.477,-0.322,212.6,256.6,-202.7,299,899,0
L,,3818310,0.530,-0.038,0.757,43.4,101.2,-39.1,565,793,0
L,,3818371,0.459,-0.195,0.342,-167.5,78.9,55.1,544,770,0
L,,3818431,0.506,0.320,0.036,-257.7,35.4,141.5,535,754,0
L,,3818491,0.610,1.231,0.198,-309.0,33.6,216.7,537,759,0
L,,3818551,0.374,2.776,-0.400,-295.6,18.6,253.6,477,754,0
L,,3818611,-2.389,1.733,0.159,-208.7,30.1,134.7,487,765,0
L,,3818671,-0.946,0.701,-0.078,155.8,61.8,-135.0,664,811,0
L,,3818731,0.035,1.095,0.111,69.8,-81.2,-121.3,720,857,0
L,,3818791,-0.210,0.965,0.212,74.4,42.5,-50.1,750,889,0
L,,3818859,-0.005,1.027,0.214,13.7,-16.3,-34.8,759,898,0
L,,3818911,-0.188,1.007,0.308,8.6,3.9,-15.4,758,900,0
L,,3818971,0.023,0.992,0.289,11.2,6.3,-18.5,747,900,0
L,,3819031,-0.101,1.015,0.327,25.6,4.4,-35.1,726,903,0
L,,3819091,-0.093,1.054,0.211,42.7,0.0,-57.8,664,909,0
L,,3819151,-0.141,1.194,0.194,57.6,12.7,-76.4,601,912,0
L,,3819210,-0.167,1.513,0.371,96.1,30.1,-121.4,573,909,0
L,,3819275,0.282,2.465,0.985,136.8,126.1,-150.6,408,910,0
L,,3819331,-0.347,1.514,-0.344,175.8,137.6,-219.7,334,889,0
L,,3819421,0.665,-0.154,0.456,-111.8,76.9,46.7,529,760,0
L,,3819481,0.603,0.162,-0.127,-233.6,-22.7,116.4,549,766,0
L,,3819541,0.522,0.871,0.227,-268.7,-59.0,220.9,511,774,0
L,,3819601,0.134,2.265,-0.142,-260.6,36.8,259.6,470,770,0
L,,3819661,-1.639,2.138,-0.091,-209.2,75.2,234.2,487,774,0
L,,3819721,-0.982,1.669,-1.566,70.4,164.2,-2.2,517,780,0
L,,3819781,-1.138,2.868,-1.339,153.0,-26.0,-176.7,700,840,0
L,,3819841,-0.442,0.673,0.078,52.6,-45.0,-88.4,741,878,0
L,,3819901,0.016,0.970,0.117,42.4,-6.8,-44.1,756,896,0
L,,3819991,-0.159,0.981,0.345,20.5,14.9,-20.6,752,897,0
L,,3820051,-0.027,1.020,0.269,20.3,8.1,-20.0,733,901,0
L,,3820141,-0.039,1.029,0.209,33.3,13.1,-43.0,657,906,0
L,,3820201,-0.184,1.126,0.231,47.3,7.9,-64.4,621,907,0
L,,3820261,-0.135,1.302,0.227,78.8,29.0,-93.5,586,907,0
L,,3820351,0.718,2.471,0.950,135.4,135.5,-136.4,402,912,0
L,,3820411,-0.757,1.448,0.237,134.3,100.9,-174.3,298,886,0
L,,3820471,0.035,-0.146,0.526,-21.1,123.2,-15.6,536,789,0
L,,3820531,0.500,0.122,0.011,-180.4,60.3,97.7,515,774,0
L,,3820591,0.509,0.494,0.092,-245.2,-19.6,195.0,517,768,0
L,,3820651,0.366,1.689,0.228,-276.9,1.3,256.6,483,782,0
L,,3820711,-0.327,2.431,-0.217,-228.9,24.8,273.7,482,784,0
L,,3820771,-1.630,2.481,-1.617,-118.7,150.0,95.4,476,775,0
L,,3820861,-0.936,2.531,-1.007,141.8,-102.6,-184.0,709,848,0
L,,3820921,-0.367,0.988,0.022,81.4,-34.3,-79.5,741,879,0
L,,3820981,0.061,0.995,0.159,39.9,-10.5,-45.4,754,893,0
L,,3821041,-0.171,0.956,0.278,15.7,-14.4,-28.4,758,898,0
L,,3821131,-0.021,1.020,0.248,9.2,0.0,-24.1,743,900,0
L,,3821191,-0.163,0.981,0.292,19.8,10.2,-32.3,715,908,0
L,,3821281,-0.157,1.162,0.226,48.5,9.1,-69.9,592,910,0
L,,3821341,-0.113,1.414,0.309,80.0,36.8,-94.5,550,910,0
L,,3821401,0.326,1.968,0.484,127.8,82.8,-143.3,434,912,0
L,,3821461,0.641,1.630,-0.373,182.4,166.9,-203.6,318,903,0
L,,3821521,0.308,-0.286,0.812,14.9,133.0,-29.8,568,796,0
L,,3821581,0.357,-0.167,0.313,-150.1,94.7,66.5,543,777,0
L,,3821684,0.430,0.945,0.267,-251.7,7.3,211.0,497,771,0
L,,3821701,0.594,1.261,0.101,-280.0,-45.5,232.1,492,780,0
L,,3821761,-0.017,2.294,-0.410,-242.5,0.9,244.7,478,790,0
L,,3821821,-1.041,1.944,-0.419,-196.4,51.4,148.5,508,796,0
L,,3821881,-0.820,1.618,-1.036,102.2,87.1,-58.5,541,773,0
L,,3821971,0.249,0.840,0.156,106.6,-35.7,-112.4,720,858,0
L,,3822031,-0.087,1.075,0.124,62.3,-5.6,-56.4,743,885,0
L,,3822091,0.000,0.981,0.190,13.5,-2.1,-31.5,751,891,0
L,,3822151,-0.058,0.999,0.294,15.9,13.0,-9.3,754,892,0
L,,3822211,0.023,0.984,0.261,12.4,2.0,-16.6,751,890,0
L,,3822271,-0.071,0.983,0.334,37.0,8.8,-34.7,743,898,0
L,,3822370,-0.135,1.064,0.183,61.8,7.9,-70.6,629,912,0
L,,3822421,-0.021,1.384,0.122,89.0,13.5,-88.9,610,911,0
L,,3822481,0.068,1.782,0.324,124.6,48.0,-145.5,624,908,0
L,,3822541,0.566,2.604,1.222,190.2,307.2,-113.0,309,912,0
L,,3822601,-0.209,1.144,0.596,135.0,4.4,-78.8,484,825,0
L,,3822661,0.406,0.018,0.721,-75.8,19.1,80.0,536,774,0
L,,3822721,0.313,0.233,0.196,-209.2,37.1,154.9,542,767,0
L,,3822781,0.508,0.830,0.405,-265.3,-0.2,226.5,492,764,0
L,,3822871,-0.223,2.414,-0.410,-267.9,-110.5,234.0,492,783,0
L,,3822931,-2.164,2.539,-0.909,-128.5,53.7,95.7,487,783,0
L,,3822991,-0.135,1.314,-0.272,126.3,53.1,-103.4,636,777,0
L,,3823051,0.046,1.565,0.196,78.4,-6.4,-106.7,714,851,0
L,,3823111,-0.227,0.918,0.178,63.2,-15.4,-67.8,743,885,0
L,,3823171,0.025,1.045,0.124,27.7,1.0,-32.7,751,892,0
L,,3823231,-0.075,0.992,0.238,13.5,-0.7,-19.8,756,891,0
L,,3823291,-0.013,0.981,0.311,13.8,15.2,-16.3,750,894,0
L,,3823351,-0.046,1.024,0.260,25.2,-2.3,-30.8,742,899,0
L,,3823411,-0.030,1.065,0.240,46.2,-1.5,-52.9,711,905,0
L,,3823471,-0.056,1.165,0.112,63.5,2.5,-70.3,601,909,0
L,,3823531,-0.090,1.479,0.268,104.3,22.1,-105.7,556,911,0
L,,3823591,0.516,2.343,0.649,167.1,60.5,-136.4,414,910,0
L,,3823651,0.144,1.732,-0.314,208.0,46.0,-214.4,324,894,0
L,,3823741,0.557,0.035,0.603,-54.6,66.2,67.4,519,776,0
L,,3823832,0.393,0.345,0.107,-236.6,-29.4,192.7,536,764,0
L,,3823891,0.579,1.480,0.142,-294.5,-45.2,262.3,467,759,0
L,,3823951,-0.228,2.505,-0.365,-253.7,-43.1,266.6,486,780,0
L,,3824011,-1.886,2.569,-0.935,-161.3,83.7,91.0,486,782,0
L,,3824071,-0.244,1.428,-0.519,137.4,65.3,-112.6,640,782,0
L,,3824131,-0.073,1.304,0.255,61.3,-22.6,-108.9,715,853,0
L,,3824191,-0.220,0.954,0.194,59.3,5.8,-61.5,745,884,0
L,,3824251,0.072,1.029,0.081,17.1,3.5,-38.0,752,890,0
L,,3824311,-0.078,0.982,0.284,7.9,-4.3,-22.4,757,897,0
L,,3824372,-0.031,0.965,0.281,14.3,18.2,-14.7,753,894,0
L,,3824431,-0.081,0.932,0.321,22.0,3.0,-27.0,744,896,0
L,,3824491,0.016,1.052,0.237,43.5,3.2,-52.8,728,902,0
L,,3824582,-0.086,1.314,0.117,84.7,11.4,-81.9,607,909,0
L,,3824641,-0.076,1.652,0.251,120.4,42.8,-122.1,547,909,0
L,,3824701,0.784,2.400,1.136,179.6,155.0,-111.8,325,911,0
L,,3824791,0.641,0.104,0.866,73.0,31.0,-20.1,558,775,0
L,,3824851,0.304,-0.250,0.527,-130.6,65.9,91.3,515,764,0
L,,3824912,0.500,0.216,0.121,-231.9,-7.0,162.8,511,764,0
L,,3824971,0.490,1.220,0.542,-277.5,-9.4,232.6,492,762,0
L,,3825061,-0.573,2.600,-0.415,-254.9,-2.2,248.5,500,785,0
L,,3825122,-1.661,2.569,-1.964,-63.7,151.6,37.0,479,788,0
L,,3825181,1.542,2.032,-0.328,97.3,18.2,-47.0,692,834,0
L,,3825241,-0.442,0.306,0.398,62.0,-90.0,-126.7,732,871,0
L,,3825309,-0.054,0.965,0.146,48.8,21.0,-45.5,751,892,0
L,,3825361,-0.040,0.973,0.215,15.4,-20.3,-41.9,757,898,0
L,,3825421,-0.154,0.998,0.270,8.4,8.4,-14.5,756,897,0
L,,3825481,-0.016,1.059,0.261,4.6,0.3,-22.4,744,901,0
L,,3825541,-0.099,0.970,0.283,23.5,13.0,-29.6,717,904,0
L,,3825601,-0.111,1.075,0.214,38.9,9.7,-57.4,660,909,0
L,,3825662,-0.179,1.232,0.210,63.1,21.9,-79.8,607,908,0
L,,3825723,-0.029,1.661,0.307,102.9,59.2,-126.0,565,908,0
L,,3825781,0.542,2.477,1.082,144.0,192.2,-125.7,329,910,0
L,,3825872,0.327,-0.223,0.741,47.9,119.5,-31.2,567,794,0
L,,3825931,0.437,-0.184,0.352,-170.9,83.7,67.1,529,773,0
L,,3825992,0.710,0.377,-0.025,-236.6,-8.2,169.8,526,760,0
L,,3826051,0.600,1.436,0.165,-270.9,-51.7,250.7,473,777,0
L,,3826111,-0.133,2.596,-0.410,-236.1,31.4,263.6,484,782,0
L,,3826170,-1.296,2.034,-0.499,-172.5,105.5,122.7,517,790,0
L,,3826231,-0.978,1.379,-0.827,101.2,108.0,-74.4,516,781,0
L,,3826291,-0.806,1.727,-0.226,107.0,-66.0,-146.8,708,846,0
L,,3826351,-0.181,0.891,0.153,63.7,-37.5,-71.4,737,876,0
L,,3826412,-0.009,1.001,0.120,33.1,0.0,-38.9,747,885,0
L,,3826471,-0.089,0.956,0.304,4.9,-15.8,-28.9,754,892,0
L,,3826561,-0.005,0.976,0.311,3.5,7.6,-18.5,750,891,0
L,,3826622,-0.094,0.972,0.404,27.5,11.9,-31.1,745,898,0
L,,3826681,-0.009,1.025,0.249,38.7,-5.1,-59.9,732,907,0
L,,3826742,-0.174,1.179,0.203,60.2,17.2,-79.5,654,908,0
L,,3826801,-0.163,1.403,0.365,85.7,38.1,-108.2,619,907,0
L,,3826891,0.617,2.542,0.887,154.7,258.3,-138.3,350,910,0
L,,3826952,-0.300,1.215,0.360,113.5,123.1,-113.5,431,842,0
L,,3827011,0.653,-0.102,0.176,-76.9,96.5,78.7,526,789,0
L,,3827101,0.590,0.483,0.043,-241.8,38.2,179.0,518,766,0
L,,3827162,0.656,1.548,0.077,-289.3,-16.8,236.8,504,774,0
L,,3827221,-0.126,2.492,-0.416,-235.7,19.6,265.4,487,785,0
L,,3827282,-1.835,2.185,-0.841,-137.2,165.6,116.6,510,786,0
L,,3827341,0.369,1.099,0.034,155.2,71.3,-82.4,670,825,0
L,,3827401,0.200,0.957,0.152,78.7,-62.7,-112.5,728,870,0
L,,3827461,-0.414,1.000,0.277,72.2,37.7,-57.1,750,889,0
L,,3827521,-0.033,0.958,0.173,22.1,-14.4,-47.3,756,897,0
L,,3827582,-0.162,0.975,0.308,16.5,2.3,-23.1,758,900,0
L,,3827641,-0.040,1.019,0.250,9.8,5.3,-21.6,750,900,0
L,,3827702,-0.254,0.985,0.330,16.2,1.1,-29.4,732,904,0
L,,3827761,-0.112,1.031,0.247,33.4,11.6,-50.8,686,910,0
L,,3827822,-0.184,1.205,0.281,48.2,13.7,-68.6,633,909,0
L,,3827881,-0.146,1.400,0.478,84.8,40.8,-97.7,604,908,0
L,,3827971,0.422,2.431,0.967,135.6,242.0,-130.1,338,911,0
L,,3828032,-0.219,1.431,0.427,117.1,125.6,-126.4,328,871,0
L,,3828091,1.016,0.024,0.284,-59.6,128.7,49.2,536,801,0
L,,3828151,0.641,0.197,-0.160,-194.2,80.0,116.1,535,769,0
L,,3828211,0.518,0.859,0.166,-263.1,16.8,206.7,510,759,0
L,,3828271,0.174,1.834,-0.126,-263.2,53.7,256.4,493,769,0
L,,3828332,-0.530,2.413,-0.325,-251.5,46.2,233.8,497,776,0
L,,3828391,-1.538,2.220,-1.681,-51.9,94.8,37.8,519,780,0
L,,3828452,3.351,0.994,0.897,110.8,-138.9,-49.9,675,825,0
L,,3828511,-0.025,0.376,0.314,62.5,-56.2,-123.4,733,870,0
L,,3828572,0.007,1.056,0.114,79.5,12.6,-48.6,748,888,0
L,,3828631,0.040,0.980,0.165,21.9,-17.0,-41.4,752,893,0
L,,3828700,-0.062,1.011,0.298,24.7,8.6,-17.1,752,899,0
L,,3828751,-0.041,1.026,0.193,24.8,6.2,-22.4,731,901,0
L,,3828811,-0.109,0.991,0.232,35.9,16.5,-35.0,663,906,0
L,,3828872,-0.019,1.126,0.117,55.2,10.1,-56.1,604,908,0
L,,3828931,-0.026,1.345,0.123,87.7,-6.1,-77.9,564,910,0
L,,3829021,0.614,2.173,0.730,174.6,60.0,-138.8,420,913,0
L,,3829082,-0.108,1.870,-0.074,225.1,-11.7,-213.2,315,894,0
L,,3829141,-0.797,-0.609,0.362,10.8,36.6,-37.1,548,781,0
L,,3829202,0.108,-0.114,0.252,-133.9,16.6,122.5,528,761,0
L,,3829261,0.341,0.302,0.325,-246.4,-16.3,208.2,510,756,0
L,,3829322,0.704,1.591,0.274,-317.3,-3.3,241.3,475,754,0
L,,3829381,-0.284,2.394,-0.392,-264.1,-80.7,229.8,501,783,0
L,,3829441,-1.911,2.506,-0.750,-154.7,9.5,110.8,490,776,0
L,,3829501,-0.261,1.778,-0.550,107.7,57.9,-117.7,603,764,0
L,,3829561,-0.054,1.528,0.076,49.7,-29.0,-112.0,713,853,0
L,,3829622,-0.107,0.916,0.237,60.2,-18.2,-67.1,743,883,0
L,,3829681,0.107,1.031,0.197,26.0,-14.7,-46.8,753,895,0
L,,3829742,-0.107,0.988,0.278,18.8,-14.9,-29.6,758,898,0
L,,3829801,-0.008,0.988,0.215,17.7,8.2,-22.8,753,903,0
L,,3829862,-0.132,1.025,0.265,16.5,1.3,-29.8,736,901,0
L,,3829921,-0.018,1.042,0.203,43.8,7.8,-48.4,705,905,0
L,,3829981,-0.126,1.126,0.178,61.9,4.6,-66.2,603,910,0
L,,3830072,-0.085,1.694,0.305,129.7,30.8,-121.6,441,913,0
L,,3830131,0.717,2.849,1.129,178.0,148.8,-133.1,299,913,0
L,,3830192,-0.136,1.082,0.282,130.2,17.6,-113.1,281,869,0
L,,3830251,0.797,-0.218,0.358,-33.6,50.8,88.4,535,783,0
L,,3830311,0.243,0.157,0.174,-189.1,29.1,135.5,540,764,0
L,,3830371,0.242,0.583,0.330,-259.0,-5.3,216.0,499,756,0
L,,3830431,-0.215,1.888,-0.100,-282.3,42.5,207.6,529,778,0
L,,3830492,-0.616,2.448,-0.306,-258.1,0.9,180.3,523,789,0
L,,3830551,-1.704,2.422,-1.530,-42.1,87.4,25.0,550,782,0
L,,3830612,0.196,2.242,-0.012,93.1,-47.6,-101.3,692,835,0
L,,3830671,-0.352,0.588,0.199,45.3,-71.3,-121.1,737,877,0
L,,3830731,-0.049,1.037,0.116,64.9,42.9,-45.5,750,893,0
L,,3830791,-0.033,0.951,0.225,14.8,-21.3,-40.1,757,896,0
L,,3830851,-0.127,1.016,0.288,8.8,11.4,-17.9,757,900,0
L,,3830912,-0.024,1.006,0.307,8.0,-2.9,-27.4,743,901,0
L,,3830971,-0.070,0.980,0.248,22.8,5.7,-37.6,707,904,0
L,,3831075,-0.166,1.198,0.204,52.8,17.5,-77.2,607,910,0
L,,3831091,-0.128,1.249,0.234,63.7,24.6,-84.2,584,910,0
L,,3831152,-0.120,1.605,0.364,95.2,67.7,-130.8,535,908,0
L,,3831211,0.886,2.804,0.808,131.4,165.2,-132.6,333,910,0
L,,3831271,-0.308,1.270,0.535,105.7,106.1,-131.8,404,837,0
L,,3831332,0.846,-0.130,-0.082,-57.6,125.3,45.7,539,780,0
L,,3831391,0.485,0.118,-0.057,-199.1,72.5,126.9,538,762,0
L,,3831452,0.548,0.687,0.152,-253.6,2.9,207.4,512,764,0
L,,3831520,0.105,2.164,-0.097,-274.9,87.7,239.2,487,772,0
L,,3831572,-0.405,2.506,-0.579,-207.1,41.0,270.2,490,785,0
L,,3831631,-1.180,2.531,-1.794,-87.2,202.3,37.4,440,751,0
L,,3831692,1.336,0.391,2.226,123.7,-30.5,-67.6,656,800,0
L,,3831751,-0.159,1.380,-0.065,102.6,-27.0,-105.3,724,861,0
L,,3831811,-0.370,0.964,0.291,68.1,12.5,-53.5,749,889,0
L,,3831872,-0.007,1.001,0.216,25.4,1.5,-34.7,755,894,0
L,,3831965,-0.093,0.943,0.283,17.0,15.4,-13.0,754,896,0
L,,3832022,-0.101,0.989,0.346,11.9,1.4,-21.1,747,898,0
L,,3832082,-0.050,1.040,0.296,35.9,8.4,-40.5,729,905,0
L,,3832171,-0.171,1.212,0.221,60.5,18.4,-75.5,634,908,0
L,,3832232,-0.056,1.499,0.322,93.9,39.8,-115.7,618,907,0
L,,3832291,0.424,2.590,0.977,132.0,126.8,-153.7,511,909,0
L,,3832351,-0.494,1.407,-0.078,145.3,137.8,-205.5,347,891,0
L,,3832412,-0.522,-0.325,0.493,-39.6,154.0,-61.9,552,780,0
L,,3832471,0.467,0.078,0.130,-215.3,61.4,66.0,535,763,0
L,,3832532,0.527,0.525,0.130,-258.1,-36.7,166.7,515,764,0
L,,3832622,0.051,2.128,-0.299,-242.7,35.5,255.7,498,780,0
L,,3832681,-1.199,2.012,-0.225,-223.6,69.3,220.7,508,780,0
L,,3832742,-1.308,1.865,-1.504,27.8,123.4,-6.7,504,767,0
L,,3832801,3.166,-0.143,3.479,93.2,-165.7,-21.2,671,822,9
L,,3832862,-0.194,0.669,0.041,74.3,-48.0,-101.3,728,868,0
L,,3832921,-0.208,1.024,0.211,62.9,35.5,-39.3,743,887,0
L,,3832982,0.008,0.971,0.250,9.8,-7.2,-28.9,751,891,0
L,,3833041,-0.153,0.976,0.358,16.3,4.8,-20.6,752,894,0
L,,3833101,-0.021,0.963,0.308,21.7,6.2,-26.3,743,895,0
L,,3833192,-0.030,1.029,0.239,46.5,9.0,-52.5,713,903,0
L,,3833251,-0.179,1.190,0.259,59.5,17.3,-69.0,634,913,0
L,,3833312,-0.091,1.395,0.262,87.2,36.7,-104.9,602,907,0
L,,3833372,0.217,2.078,0.590,127.5,81.7,-143.3,504,908,0
L,,3833431,0.519,1.554,-0.126,166.6,127.4,-211.7,323,900,0
L,,3833492,0.131,-0.443,0.651,18.9,145.4,-34.2,562,792,0
L,,3833551,0.392,-0.016,0.290,-171.0,59.5,60.6,541,776,0
L,,3833641,0.499,0.794,0.126,-249.2,-29.4,214.6,520,767,0
L,,3833702,0.140,2.038,0.207,-278.4,8.9,262.7,484,776,0
L,,3833791,-1.671,2.039,-0.527,-188.4,155.9,142.3,500,786,0
L,,3833852,-0.634,1.731,-0.698,162.8,84.7,-152.9,622,770,0
L,,3833912,-0.520,1.504,0.244,64.2,-64.3,-111.5,718,857,0
L,,3833971,-0.491,0.946,0.346,75.1,21.0,-57.7,749,888,0
L,,3834032,0.073,0.986,0.188,18.8,-14.9,-34.9,755,896,0
L,,3834091,-0.164,1.002,0.351,16.5,1.1,-19.2,758,898,0
L,,3834152,0.018,0.993,0.263,18.3,12.1,-20.6,747,899,0
L,,3834242,-0.030,0.992,0.292,34.1,20.5,-37.5,700,906,0
L,,3834301,-0.096,1.080,0.134,50.0,8.5,-57.0,628,909,0
L,,3834362,-0.046,1.314,0.196,85.2,11.4,-81.6,595,909,0
L,,3834421,-0.031,1.603,0.337,117.1,52.2,-125.5,551,911,0
L,,3834482,0.747,2.439,0.887,192.7,219.0,-113.6,337,909,0
L,,3834541,-0.206,1.321,0.582,141.8,45.4,-110.6,296,859,0
L,,3834602,0.659,-0.028,0.313,-25.7,50.7,95.4,537,784,0
L,,3834662,0.319,0.316,0.144,-174.0,65.5,158.1,512,759,0
L,,3834721,0.383,0.664,0.269,-235.1,-8.9,232.8,505,760,0
L,,3834782,0.198,2.073,0.224,-305.9,-18.1,236.8,479,765,0
L,,3834841,-1.086,2.550,-0.552,-236.1,-71.9,236.3,489,779,0
L,,3834902,-1.627,2.145,-1.367,-19.1,160.0,-5.8,473,769,0
L,,3834970,-1.498,2.984,-1.362,109.6,-36.2,-211.8,694,835,0
L,,3835022,-0.473,0.676,0.223,56.4,-97.7,-133.1,732,870,0
L,,3835082,-0.052,0.995,0.043,72.8,49.3,-40.1,750,894,0
L,,3835142,0.000,0.959,0.217,11.7,-16.0,-36.4,754,895,0
L,,3835202,-0.158,1.015,0.272,15.3,14.2,-16.4,755,896,0
L,,3835291,-0.095,0.999,0.205,30.0,2.3,-28.9,735,902,0
L,,3835352,-0.052,1.049,0.171,53.6,0.4,-58.3,696,907,0
L,,3835412,-0.082,1.244,0.108,68.3,3.3,-73.6,637,909,0
L,,3835471,-0.030,1.554,0.289,110.8,13.5,-112.0,651,908,0
L,,3835532,0.341,2.488,1.102,161.7,87.6,-140.0,463,907,0
L,,3835591,0.022,1.688,0.000,219.5,73.2,-195.3,322,889,0
L,,3835652,-1.191,-0.244,0.333,-8.4,62.3,-63.0,558,785,0
L,,3835711,0.265,-0.139,0.282,-154.8,3.5,108.5,549,775,0
L,,3835772,0.324,0.453,0.159,-239.9,-43.4,186.4,549,771,0
L,,3835832,0.290,1.512,0.323,-282.3,-52.2,241.7,492,762,0
L,,3835892,-0.290,2.584,-0.284,-282.3,-59.4,236.1,490,778,0
L,,3835952,-2.208,2.616,-0.910,-140.9,116.1,100.6,509,790,0
L,,3836011,0.688,1.083,-0.465,146.5,32.3,-103.3,647,794,0
L,,3836072,0.025,1.243,0.107,71.1,-43.5,-112.0,715,853,0
L,,3836131,-0.275,0.980,0.358,70.4,11.2,-58.0,744,886,0
L,,3836192,0.062,0.987,0.101,18.1,2.0,-41.0,753,891,0
L,,3836251,-0.103,0.955,0.348,8.4,-8.4,-23.0,754,895,0
L,,3836341,-0.011,1.043,0.232,11.2,-4.9,-31.0,748,895,0
L,,3836401,-0.006,1.056,0.229,40.7,-0.4,-44.7,741,900,0
L,,3836492,-0.161,1.145,0.217,77.6,10.1,-73.7,636,910,0
L,,3836551,-0.015,1.697,0.287,122.3,34.3,-125.8,641,906,0
L,,3836612,0.263,2.581,1.239,167.8,93.1,-162.1,452,906,0
L,,3836671,0.180,1.296,-0.201,129.7,96.6,-216.5,326,882,0
L,,3836732,0.919,-0.230,0.554,-19.4,155.7,13.2,569,784,0
L,,3836791,0.466,0.144,0.152,-220.5,28.0,69.7,561,771,0
L,,3836852,0.435,0.684,0.151,-292.9,-51.8,153.3,551,774,0
L,,3836912,0.574,2.031,-0.008,-317.3,-63.1,234.2,503,793,0
L,,3837001,-1.869,1.523,0.458,-204.6,113.0,171.4,504,787,0
L,,3837062,-0.795,1.747,-1.005,128.7,163.1,-82.7,626,777,0
L,,3837122,0.091,1.316,0.219,94.8,-72.0,-107.7,706,844,0
L,,3837182,-0.081,0.968,0.305,92.1,26.3,-59.0,743,881,0
L,,3837242,0.052,0.964,0.193,34.6,-12.9,-47.0,755,896,0
L,,3837301,-0.189,0.986,0.269,19.4,-6.5,-29.4,759,900,0
L,,3837392,-0.048,1.017,0.233,20.9,3.0,-23.5,738,903,0
L,,3837452,-0.136,1.009,0.260,31.3,14.7,-32.8,696,908,0
L,,3837512,-0.104,1.091,0.159,44.8,13.3,-50.4,610,908,0
L,,3837572,-0.122,1.156,0.136,67.2,18.6,-73.2,583,908,0
L,,3837662,-0.106,2.015,0.555,121.8,47.2,-150.4,533,909,0
L,,3837722,0.454,1.652,0.066,206.0,432.4,-133.2,325,899,0
L,,3837782,0.569,0.319,0.820,76.6,92.5,-58.3,557,762,0
L,,3837841,0.625,-0.174,0.381,-137.2,38.4,36.4,533,762,0
L,,3837910,0.545,0.362,0.095,-269.1,-90.5,133.1,541,769,0
L,,3837961,0.520,1.075,0.287,-280.9,-71.2,221.7,509,774,0
L,,3838022,0.081,2.408,-0.030,-261.8,40.9,263.7,470,779,0
L,,3838082,-1.733,1.836,-0.112,-202.0,114.6,208.1,504,793,0
L,,3838142,-0.752,2.118,-0.854,117.5,98.5,-75.8,597,798,0
L,,3838202,-0.428,2.016,-0.680,133.3,-91.7,-152.8,708,847,0
L,,3838262,-0.266,1.194,-0.088,91.0,12.7,-71.8,743,881,0
L,,3838326,0.047,0.952,0.172,36.5,-1.5,-43.4,754,893,0
L,,3838381,-0.184,0.982,0.286,20.4,-13.5,-32.9,758,898,0
L,,3838442,-0.093,0.990,0.287,8.8,14.0,-17.9,746,900,0
L,,3838501,-0.180,0.921,0.303,11.9,7.0,-25.4,713,904,0
L,,3838562,-0.155,1.010,0.238,15.8,10.3,-32.1,678,907,0
L,,3838622,-0.157,1.118,0.332,32.0,2.8,-60.9,634,907,0
L,,3838682,-0.117,1.226,0.283,70.6,41.2,-91.4,593,907,0
L,,3838742,-0.027,1.719,0.410,98.8,76.5,-133.2,543,910,0
L,,3838802,0.822,1.631,0.421,152.5,254.9,-134.2,334,905,0
L,,3838862,0.000,1.025,0.602,85.1,161.8,-114.1,513,778,0
L,,3838921,0.608,-0.070,0.558,-119.4,96.6,35.0,523,770,0
L,,3838982,0.776,0.344,-0.094,-207.1,49.3,127.4,517,756,0
L,,3839041,0.583,0.988,0.284,-259.5,23.3,220.2,499,770,0
L,,3839102,0.239,2.056,-0.119,-280.0,54.2,246.6,483,766,0
L,,3839162,-1.089,2.296,-0.206,-230.2,59.4,244.0,485,775,0
L,,3839222,-0.820,1.848,-1.772,4.2,146.1,4.1,494,782,0
L,,3839282,2.705,0.581,2.058,71.4,-96.9,-26.3,680,830,0
L,,3839342,-0.420,0.797,0.144,84.3,-54.2,-118.7,735,873,0
L,,3839402,-0.195,1.013,0.188,56.6,37.0,-40.6,751,889,0
L,,3839461,0.016,0.885,0.257,12.6,-15.6,-30.1,756,893,0
L,,3839522,-0.117,0.978,0.333,11.3,15.6,-12.3,751,893,0
L,,3839582,-0.035,0.994,0.324,13.4,16.4,-16.3,741,894,0
L,,3839642,0.024,1.008,0.325,33.1,17.5,-37.7,734,895,0
L,,3839702,-0.075,1.092,0.226,42.4,-1.3,-65.8,710,903,0
L,,3839762,-0.101,1.240,0.173,67.2,29.0,-78.6,658,906,0
L,,3839822,-0.199,1.401,0.396,86.6,62.7,-108.4,625,903,0
L,,3839882,0.778,2.239,0.650,146.6,136.9,-126.5,485,906,0
L,,3839942,-0.523,1.785,0.427,179.5,29.6,-165.2,346,889,0
L,,3840001,-0.665,0.283,0.503,-20.4,83.1,-21.4,555,790,0
L,,3840061,0.364,0.020,0.276,-138.4,109.3,121.5,520,764,0
L,,3840122,0.449,0.602,0.167,-231.7,58.8,214.1,514,757,0
L,,3840182,0.437,1.506,0.349,-290.5,17.5,234.0,482,763,0
L,,3840242,-0.078,2.307,-0.424,-281.5,-31.5,250.4,490,786,0
L,,3840302,-2.552,2.684,-1.464,-177.9,33.8,104.5,474,787,0
L,,3840362,-0.924,0.977,-0.681,131.7,-66.6,-146.3,576,758,0
L,,3840421,-0.780,1.452,0.777,14.9,-13.2,-100.1,727,865,0
L,,3840482,0.013,0.865,0.299,48.3,-39.3,-71.8,748,890,0
L,,3840541,0.047,1.093,0.208,18.4,-12.4,-36.4,753,894,0
L,,3840602,-0.050,0.946,0.271,20.9,1.3,-23.2,755,894,0
L,,3840662,-0.021,1.004,0.281,23.0,7.2,-20.3,744,899,0
L,,3840722,-0.018,0.987,0.209,33.7,12.5,-33.4,716,902,0
L,,3840782,-0.049,1.045,0.157,43.4,5.1,-53.5,636,905,0
L,,3840842,-0.110,1.184,0.148,59.7,9.7,-63.7,569,910,0
L,,3840902,-0.128,1.365,0.310,100.6,19.2,-91.7,480,912,0
L,,3840961,0.477,2.207,0.418,158.2,48.8,-115.7,288,915,0
L,,3841022,0.254,1.812,-0.032,217.7,-40.1,-211.9,281,898,0
L,,3841082,0.563,-0.085,0.717,67.0,24.7,-12.7,547,772,0
L,,3841150,0.096,-0.148,0.443,-124.3,11.8,120.1,532,764,0
L,,3841202,0.216,0.349,0.212,-192.7,32.4,199.6,522,757,0
L,,3841262,0.257,1.213,0.546,-241.8,32.9,246.1,487,751,0
L,,3841322,0.262,2.517,-0.163,-326.3,-61.6,207.2,488,766,0
L,,3841382,-1.939,2.273,-0.409,-202.6,-39.7,146.3,474,778,0
L,,3841442,-0.977,1.534,-0.778,142.1,58.3,-125.2,490,765,0
L,,3841501,-1.850,2.205,-0.573,81.6,-51.3,-226.1,707,845,0
L,,3841562,-0.127,0.837,0.063,31.1,-35.9,-79.7,747,886,0
L,,3841622,0.134,1.037,0.101,27.9,-16.0,-44.1,756,895,0
L,,3841682,-0.068,0.944,0.234,13.4,-6.9,-28.7,758,897,0
L,,3841742,-0.034,0.982,0.280,20.6,19.8,-21.9,748,899,0
L,,3841802,-0.013,1.027,0.195,24.7,0.7,-31.6,721,901,0
L,,3841862,-0.043,1.023,0.178,36.4,2.7,-48.0,648,912,0
L,,3841922,-0.071,1.149,0.136,47.3,10.5,-61.4,576,908,0
L,,3841982,-0.051,1.313,0.192,76.0,25.9,-85.1,491,910,0
L,,3842041,0.257,1.802,0.263,131.1,49.9,-130.7,362,913,0
L,,3842102,0.997,1.647,0.245,220.9,136.9,-181.1,279,905,0
L,,3842162,0.079,1.024,0.723,133.1,-5.5,-89.8,460,782,0
L,,3842222,0.306,0.181,0.398,-67.9,15.2,81.4,510,771,0
L,,3842282,0.230,0.183,0.030,-168.3,33.5,156.1,521,756,0
L,,3842342,0.388,0.695,0.365,-224.0,-15.2,242.6,509,760,0
L,,3842402,-0.171,2.160,0.054,-278.4,4.7,246.8,464,762,0
L,,3842462,-1.256,2.424,-0.313,-216.3,139.0,248.7,475,783,0
L,,3842522,-0.617,2.210,-1.798,-29.9,197.0,10.2,471,775,0
L,,3842612,-0.710,1.345,0.134,63.2,-63.0,-123.5,711,850,0
L,,3842672,-0.194,0.915,0.298,64.1,-1.4,-58.8,746,885,0
L,,3842732,0.056,0.992,0.166,26.9,-3.6,-39.6,756,892,0
L,,3842791,-0.100,0.962,0.311,10.5,-9.9,-25.6,758,896,0
L,,3842852,-0.041,0.995,0.237,13.3,8.1,-17.7,751,899,0
L,,3842912,-0.104,1.029,0.340,22.6,5.4,-28.2,733,901,0
L,,3843002,-0.070,1.062,0.125,38.0,1.4,-59.0,649,908,0
L,,3843062,-0.181,1.155,0.257,50.7,14.5,-71.7,616,907,0
L,,3843122,-0.129,1.394,0.359,78.1,50.2,-98.4,576,905,0
L,,3843182,0.613,2.236,0.662,131.3,127.3,-128.8,408,911,0
L,,3843242,-0.532,1.639,-0.070,153.0,36.6,-200.6,339,895,0
L,,3843302,-0.718,-0.721,0.370,-50.9,82.6,-54.1,567,804,0
L,,3843362,0.217,-0.053,0.269,-175.3,84.2,90.4,533,769,0
L,,3843422,0.552,0.508,0.137,-216.6,57.9,197.7,519,771,0
L,,3843482,0.369,1.526,0.063,-271.5,69.8,231.2,507,783,0
L,,3843542,-0.060,2.136,-0.467,-245.3,4.7,248.6,507,788,0
L,,3843602,-1.646,2.163,-0.505,-165.0,23.4,135.5,511,792,0
L,,3843662,-0.960,1.403,-0.657,116.8,109.6,-80.5,527,771,0
L,,3843721,-0.392,1.920,-0.123,96.4,-30.0,-158.4,699,837,0
L,,3843782,-0.224,1.080,0.097,56.0,-51.4,-86.7,742,881,0
L,,3843872,0.020,0.994,0.159,11.0,4.6,-38.7,756,895,0
L,,3843932,-0.073,1.017,0.286,5.6,3.2,-21.0,760,895,0
L,,3844000,0.018,1.007,0.288,13.2,16.3,-19.2,749,899,0
L,,3844052,-0.089,1.022,0.283,18.9,9.8,-28.8,737,899,0
L,,3844112,-0.059,1.007,0.230,34.0,8.9,-51.3,704,905,0
L,,3844202,-0.109,1.167,0.184,57.3,21.1,-74.6,639,907,0
L,,3844262,-0.086,1.586,0.324,96.8,52.0,-117.7,599,905,0
L,,3844352,0.854,1.509,-0.081,166.4,121.0,-192.2,297,905,0
L,,3844412,0.589,0.273,0.406,103.8,140.6,-51.8,584,788,0
L,,3844474,0.267,-0.246,0.693,-188.5,56.5,84.1,528,772,0
L,,3844532,0.637,0.423,-0.049,-200.2,42.5,168.0,512,764,0
L,,3844622,0.261,1.807,-0.003,-248.3,25.2,241.0,483,783,0
L,,3844682,-0.476,2.251,-0.222,-238.6,-3.2,234.1,505,800,0
L,,3844742,-1.657,2.078,-0.815,-79.1,168.2,105.2,491,797,0
L,,3844802,-0.061,1.006,-0.057,124.3,92.7,-96.1,625,777,0
L,,3844862,-0.082,1.565,0.160,69.3,-54.8,-101.4,708,849,0
L,,3844952,-0.061,0.997,0.051,84.0,63.5,-36.4,750,892,0
L,,3845012,-0.002,0.962,0.176,1.5,-20.3,-32.6,756,893,0
L,,3845072,-0.169,1.005,0.285,11.9,16.4,-8.8,755,896,0
L,,3845132,0.055,0.994,0.282,7.1,6.0,-20.0,749,897,0
L,,3845192,-0.101,1.012,0.301,23.0,2.3,-30.8,741,900,0
L,,3845252,-0.029,1.052,0.185,38.0,-3.7,-57.7,716,904,0
L,,3845342,-0.144,1.370,0.231,81.2,28.4,-95.4,608,910,0
L,,3845402,0.045,2.003,0.483,123.0,64.6,-155.3,548,907,0
L,,3845462,0.596,1.770,0.071,181.3,330.6,-183.6,271,899,0
L,,3845522,0.599,0.122,1.008,102.3,177.1,-57.6,561,765,0
L,,3845583,0.475,-0.216,0.284,-152.8,90.3,29.0,537,763,0
L,,3845642,0.572,0.184,-0.164,-256.9,-38.1,114.3,546,767,0
L,,3845702,0.538,1.075,0.299,-262.5,-52.0,227.4,495,763,0
L,,3845762,0.116,2.114,-0.266,-242.0,51.6,247.5,467,772,0
L,,3845822,-1.309,1.980,-0.140,-185.0,80.5,215.8,498,772,0
L,,3845913,-0.791,1.307,-0.586,108.3,103.1,-75.0,536,753,0
L,,3845972,-0.717,1.801,-0.187,99.1,-39.9,-160.5,705,844,0
L,,3846032,-0.310,1.131,-0.124,60.9,-40.5,-77.7,742,883,0
L,,3846092,-0.086,1.000,0.195,33.0,11.2,-37.1,753,894,0
L,,3846152,-0.103,0.987,0.289,14.8,-9.3,-22.4,755,896,0
L,,3846212,-0.020,0.954,0.278,10.2,15.5,-7.4,753,897,0
L,,3846272,-0.126,0.994,0.314,14.5,7.0,-22.7,737,898,0
L,,3846333,-0.011,1.050,0.221,34.5,13.3,-43.5,703,903,0
L,,3846392,-0.138,1.128,0.185,49.9,1.0,-64.4,638,909,0
L,,3846482,-0.128,1.452,0.339,93.2,39.6,-102.1,584,909,0
L,,3846542,0.531,2.225,0.693,142.1,93.9,-131.9,425,912,0
L,,3846602,-0.396,1.963,0.015,175.9,20.2,-216.9,338,898,0
L,,3846663,-1.088,-0.452,0.275,-26.2,97.3,-62.2,554,800,0
L,,3846722,0.292,-0.092,0.322,-158.7,85.3,98.2,523,767,0
L,,3846782,0.459,0.460,0.060,-224.7,20.0,196.0,520,751,0
L,,3846842,0.485,1.408,0.149,-283.6,-24.2,239.6,481,759,0
L,,3846902,-0.085,2.435,-0.408,-269.5,-78.3,241.3,490,781,0
L,,3846962,-2.220,2.395,-0.923,-119.7,62.2,110.4,485,778,0
L,,3847022,-0.501,1.758,-0.269,116.6,45.5,-125.0,618,769,0
L,,3847125,-0.095,0.915,0.132,50.1,-46.2,-85.1,742,880,0
L,,3847142,-0.301,0.964,0.199,64.7,-11.8,-71.9,747,888,0
L,,3847232,-0.014,0.952,0.236,22.4,-20.0,-39.1,756,895,0
L,,3847292,-0.110,0.996,0.233,24.7,7.0,-20.0,751,899,0
L,,3847352,0.004,1.042,0.194,11.8,2.5,-23.3,742,901,0
L,,3847413,-0.047,1.043,0.229,29.9,17.2,-35.4,708,904,0
L,,3847481,-0.028,1.132,0.096,60.9,3.0,-59.9,600,909,0
L,,3847532,-0.026,1.250,0.062,82.3,10.2,-76.8,552,911,0
L,,3847592,0.048,1.673,0.310,124.0,28.8,-113.6,452,911,0
L,,3847652,0.694,2.477,0.905,194.8,155.3,-100.7,283,912,0
L,,3847712,-0.134,1.390,0.435,152.6,-17.1,-112.7,301,863,0
L,,3847772,0.747,-0.041,0.430,16.3,20.0,71.5,525,776,0
L,,3847862,0.321,0.340,0.242,-200.9,-3.1,190.8,512,756,0
L,,3847922,0.234,1.063,0.452,-250.7,8.6,243.5,501,767,0
L,,3847982,0.096,2.477,-0.205,-313.0,-34.4,218.0,507,787,0
L,,3848042,-1.120,2.474,-0.501,-242.2,-11.9,143.5,483,784,0
L,,3848102,-0.949,2.000,-0.791,121.3,27.3,-133.7,592,760,0
L,,3848163,0.014,1.544,0.018,80.2,-7.4,-120.6,715,853,0
L,,3848222,-0.362,1.009,0.115,66.4,-5.1,-84.7,746,887,0
L,,3848282,0.093,0.988,0.140,34.3,-10.2,-46.2,752,894,0
L,,3848342,-0.110,0.981,0.246,18.8,-12.9,-30.1,757,898,0
L,,3848402,-0.043,1.011,0.193,16.7,7.4,-21.4,750,899,0
L,,3848505,-0.073,0.986,0.225,29.6,7.8,-41.1,689,907,0
L,,3848522,-0.032,1.034,0.212,36.2,7.6,-47.9,658,907,0
L,,3848583,-0.106,1.156,0.130,51.7,5.6,-69.1,567,909,0
L,,3848672,-0.118,1.586,0.397,106.3,58.5,-113.4,417,910,0
L,,3848732,0.764,2.170,1.002,187.6,143.8,-77.4,310,914,0
L,,3848792,-0.519,1.455,0.187,144.7,23.7,-143.5,296,880,0
L,,3848852,-0.071,-0.205,0.392,-4.0,90.2,15.4,549,783,0
L,,3848942,0.449,0.257,0.119,-220.5,40.9,154.1,518,766,0
L,,3849033,0.394,1.666,0.250,-309.3,-11.2,223.7,473,763,0
L,,3849092,-0.210,2.254,-0.256,-277.6,-12.4,234.9,496,782,0
L,,3849182,-1.018,1.765,-1.131,107.6,55.0,-91.6,506,786,0
L,,3849243,-0.507,2.562,-1.092,127.2,-92.4,-168.6,695,839,0
L,,3849302,-0.508,0.776,0.223,48.9,-58.8,-110.0,736,874,0
L,,3849362,-0.070,1.058,0.101,57.8,20.7,-42.9,751,892,0
L,,3849422,-0.041,0.966,0.230,12.5,-16.5,-32.5,757,893,0
L,,3849482,-0.108,0.975,0.330,16.3,20.0,-13.7,754,897,0
L,,3849542,-0.010,0.987,0.309,15.0,5.3,-22.6,735,900,0
L,,3849602,-0.026,1.015,0.235,33.3,5.8,-40.6,710,903,0
L,,3849663,-0.123,1.066,0.179,46.4,3.7,-61.6,640,908,0
L,,3849722,-0.155,1.255,0.182,75.8,25.2,-79.8,599,909,0
L,,3849783,-0.016,1.525,0.221,105.9,51.1,-116.5,553,907,0
L,,3849842,0.366,2.412,1.159,144.7,137.1,-120.8,340,913,0
L,,3849902,-0.561,1.513,0.000,142.0,91.1,-162.4,297,880,0
L,,3849993,0.435,-0.157,0.532,-122.3,47.6,62.5,533,771,0
L,,3850052,0.584,0.244,0.038,-232.6,-13.3,143.9,537,764,0
L,,3850112,0.279,1.109,0.391,-256.6,-21.7,222.3,490,774,0
L,,3850172,0.231,2.239,-0.181,-291.7,56.6,241.2,507,783,0
L,,3850232,-1.055,2.120,-0.134,-247.8,149.3,223.3,511,783,0
L,,3850292,-0.956,1.710,-1.368,125.3,47.1,-91.7,492,775,0
L,,3850352,0.370,2.042,-0.743,121.9,-115.9,-104.7,685,827,0
L,,3850420,-0.539,1.056,-0.033,75.9,-28.3,-88.2,739,877,0
L,,3850472,-0.182,1.039,0.116,60.5,15.4,-42.7,750,889,0
L,,3850533,-0.033,0.971,0.214,18.4,-4.5,-32.7,755,894,0
L,,3850592,-0.105,0.986,0.265,15.3,4.1,-13.8,758,898,0
L,,3850652,-0.038,0.991,0.277,6.7,5.4,-18.2,754,896,0
L,,3850712,-0.108,0.957,0.283,18.7,4.3,-26.9,743,902,0
L,,3850772,-0.108,1.069,0.272,43.6,-5.2,-58.1,719,907,0
L,,3850836,-0.139,1.255,0.174,68.9,15.8,-76.0,611,910,0
L,,3850892,-0.172,1.461,0.310,94.8,43.4,-107.8,579,909,0
L,,3850953,0.296,2.352,0.769,135.4,101.4,-151.0,432,911,0
L,,3851042,-0.098,1.164,0.559,88.1,80.0,-98.7,484,803,0
L,,3851102,0.658,-0.171,0.500,-90.3,93.4,40.1,533,776,0
L,,3851163,0.577,0.193,-0.018,-239.1,11.4,114.1,549,766,0
L,,3851222,0.473,1.122,0.395,-274.1,-32.4,207.2,483,764,0
L,,3851283,0.142,2.346,-0.192,-267.1,24.4,233.6,485,775,0
L,,3851342,-0.935,2.003,-0.166,-211.1,85.3,209.2,513,785,0
L,,3851432,-0.873,1.772,-0.611,85.9,130.9,-66.3,579,766,0
L,,3851493,-0.818,1.666,-0.023,93.3,-67.2,-146.9,708,847,0
L,,3851552,-0.331,0.985,0.148,75.6,-14.0,-72.3,747,883,0
L,,3851613,0.026,0.963,0.136,37.9,13.1,-37.0,752,893,0
L,,3851672,-0.120,0.958,0.301,11.2,-15.6,-24.4,755,894,0
L,,3851732,-0.050,0.933,0.265,14.8,16.1,-8.1,756,895,0
L,,3851792,-0.084,0.987,0.343,13.8,-8.3,-22.8,747,898,0
L,,3851852,0.007,1.050,0.226,37.6,5.6,-43.6,730,904,0
L,,3851913,-0.143,1.085,0.161,50.7,5.1,-66.0,654,909,0
L,,3852002,-0.180,1.541,0.366,96.1,36.1,-113.1,585,908,0
L,,3852092,0.405,2.507,0.969,149.0,297.2,-151.5,313,911,0
L,,3852153,-0.412,0.953,0.566,80.7,145.6,-110.1,529,822,0
L,,3852212,0.634,-0.143,0.495,-114.6,104.1,41.2,523,771,0
L,,3852272,0.637,0.273,-0.059,-220.0,14.9,105.1,535,759,0
L,,3852333,0.423,1.024,0.395,-273.0,-32.0,197.7,507,773,0
L,,3852392,0.055,2.125,-0.123,-255.0,40.1,219.5,481,780,0
L,,3852453,-0.630,2.034,-0.316,-226.5,67.5,192.8,519,785,0
L,,3852512,-1.114,1.756,-1.058,-49.9,129.1,44.7,520,784,0
L,,3852573,1.959,0.456,1.057,122.5,-55.0,-47.2,661,809,0
L,,3852632,0.189,1.026,0.148,94.7,-42.2,-99.1,714,851,0
L,,3852693,-0.321,1.126,0.179,81.1,13.5,-54.2,744,883,0
L,,3852752,-0.028,0.963,0.175,23.3,9.0,-35.1,752,891,0
L,,3852842,-0.061,0.948,0.262,21.9,13.6,-10.9,759,897,0
L,,3852903,-0.080,0.996,0.352,27.1,1.5,-24.5,746,900,0
L,,3852962,0.003,1.074,0.209,46.7,8.0,-48.9,719,905,0
L,,3853022,-0.190,1.044,0.179,58.7,7.4,-67.2,617,909,0
L,,3853113,-0.201,1.537,0.357,105.6,29.9,-120.2,590,910,0
L,,3853172,0.351,2.623,1.015,147.8,97.4,-146.5,424,911,0
L,,3853233,-0.449,1.492,-0.305,154.0,103.2,-212.2,352,886,0
L,,3853292,-0.060,-0.077,0.588,-25.9,132.1,-22.8,562,783,0
L,,3853352,0.526,0.109,0.014,-177.5,34.2,93.5,520,752,0
L,,3853413,0.458,0.507,0.075,-243.3,-56.2,190.1,526,758,0
L,,3853472,0.583,1.633,0.107,-278.3,-42.9,258.6,481,762,0
L,,3853533,-0.090,2.340,-0.317,-216.8,-14.3,283.7,482,762,0
L,,3853592,-2.005,2.596,-1.057,-146.0,98.4,106.4,492,770,0
L,,3853653,-0.058,0.993,-0.131,145.8,-4.2,-119.7,643,792,0
L,,3853712,-0.043,1.579,0.108,78.1,4.0,-114.3,720,858,0
L,,3853772,-0.115,0.966,0.225,67.5,0.7,-68.2,747,888,0
L,,3853840,0.035,1.000,0.145,13.3,-15.8,-35.9,757,894,0
L,,3853922,-0.074,0.994,0.308,21.2,15.1,-15.4,753,900,0
L,,3853983,-0.008,1.011,0.270,21.1,8.1,-26.3,724,898,0
L,,3854042,-0.069,1.007,0.199,44.0,15.6,-45.5,661,903,0
L,,3854102,-0.027,1.139,0.052,56.7,5.1,-60.3,599,906,0
L,,3854193,-0.105,1.534,0.353,112.5,32.0,-95.7,505,909,0
L,,3854252,0.856,2.515,1.025,192.5,109.0,-100.4,358,913,0
L,,3854312,-0.647,2.005,0.470,204.8,-65.0,-184.3,327,889,0
L,,3854373,-1.254,-0.050,0.493,9.3,13.9,-48.0,550,776,0
L,,3854432,0.109,-0.139,0.434,-103.8,51.2,136.7,517,752,0
L,,3854493,0.250,0.145,0.354,-220.6,9.4,231.7,509,755,0
L,,3854552,0.487,1.568,0.336,-288.0,33.6,241.8,494,757,0
L,,3854642,-1.122,2.104,-0.242,-258.3,-100.2,170.4,496,782,0
L,,3854702,-1.514,1.944,-1.298,-3.0,59.9,-62.1,518,785,0
L,,3854762,-2.741,2.917,-0.528,136.8,-93.4,-234.8,706,848,9
L,,3854823,-0.521,0.807,0.050,54.8,-54.6,-115.8,740,880,0
L,,3854913,0.092,1.025,0.129,17.6,-18.1,-43.5,756,895,0
L,,3854972,-0.073,1.032,0.217,14.6,5.6,-19.1,756,900,0
L,,3855062,-0.072,1.023,0.226,24.7,1.6,-32.2,721,902,0
L,,3855123,-0.034,1.015,0.161,40.3,4.7,-48.9,640,907,0
L,,3855212,0.011,1.182,0.083,68.5,4.6,-72.7,534,911,0
L,,3855302,0.349,2.058,0.383,156.2,36.2,-135.1,340,914,0
L,,3855363,0.831,1.376,0.120,238.7,164.0,-187.4,286,901,0
L,,3855422,0.447,0.868,1.016,83.6,4.4,-43.6,467,748,0
L,,3855483,0.174,-0.187,0.697,-111.5,30.4,105.9,498,766,0
L,,3855542,0.288,0.390,0.160,-230.3,45.3,151.2,499,754,0
L,,3855602,0.390,1.159,0.436,-279.2,-40.4,213.3,486,760,0
L,,3855693,-0.428,2.504,-0.260,-266.9,-70.7,241.9,482,785,0
L,,3855752,-2.191,2.950,-1.827,-102.5,133.9,66.7,459,791,0
L,,3855813,3.630,0.392,1.613,125.8,-76.8,-29.8,666,818,0
L,,3855873,0.078,0.892,0.156,70.0,-74.8,-131.3,727,864,0
L,,3855962,0.055,0.980,0.135,48.7,15.0,-35.7,755,894,0
L,,3856052,-0.088,0.977,0.268,15.7,-6.3,-18.2,755,897,0
L,,3856113,-0.023,1.008,0.248,11.5,8.1,-22.6,748,900,0
L,,3856172,-0.101,0.997,0.218,21.0,-3.3,-33.0,734,902,0
L,,3856276,-0.150,1.110,0.188,53.7,8.9,-69.3,600,911,0
L,,3856323,-0.171,1.378,0.328,92.4,30.0,-93.0,535,911,0
L,,3856382,0.167,2.138,0.458,136.6,62.3,-158.0,387,911,0
L,,3856472,-0.636,0.855,-0.113,102.9,102.2,-152.1,302,880,0
L,,3856532,0.793,-0.409,0.651,-52.4,146.3,21.0,542,788,0
L,,3856592,0.577,0.310,0.033,-212.8,28.2,70.1,532,749,0
L,,3856682,0.521,1.303,0.049,-269.3,-38.0,228.6,503,765,0
L,,3856743,0.129,2.242,-0.476,-215.5,38.4,267.9,460,766,0
L,,3856802,-1.441,1.741,-0.189,-168.7,132.7,149.9,498,774,0
L,,3856863,-0.692,1.519,-0.858,83.7,125.7,-27.0,506,776,0
L,,3856953,0.109,1.206,0.108,82.1,-66.0,-116.5,723,860,0
L,,3857021,-0.129,1.062,0.145,77.5,56.2,-42.6,750,889,0
L,,3857073,0.015,1.005,0.135,10.9,-0.1,-35.1,756,894,0
L,,3857163,-0.085,0.941,0.289,9.1,16.3,-9.3,758,898,0
L,,3857222,-0.056,1.026,0.296,6.8,-3.6,-19.9,752,896,0
L,,3857313,-0.037,1.048,0.267,34.7,3.5,-47.3,729,903,0
L,,3857373,-0.214,1.154,0.303,49.1,16.0,-69.8,651,910,0
L,,3857476,0.015,1.625,0.213,91.0,67.4,-131.4,582,906,0
L,,3857495,0.156,1.863,0.449,110.1,72.9,-148.5,562,904,0
L,,3857552,0.873,1.830,0.318,127.0,280.7,-167.4,319,902,0
L,,3857613,0.333,0.605,0.606,93.9,175.8,-75.9,570,787,0
L,,3857703,0.499,0.166,0.209,-193.6,107.8,108.2,531,766,0
L,,3857762,0.554,0.700,0.193,-270.6,-2.8,189.3,512,759,0
L,,3857823,0.290,1.969,0.155,-292.7,-9.8,227.1,487,772,0
L,,3857882,-0.443,2.388,-0.381,-233.5,-3.6,234.7,514,788,0
L,,3857943,-1.477,2.315,-1.588,-124.1,174.8,28.5,490,765,0
L,,3858045,-0.271,1.296,0.436,68.1,-51.8,-109.5,717,851,0
L,,3858063,0.106,0.825,0.025,64.9,-73.8,-129.7,731,869,0
L,,3858123,-0.152,1.001,0.227,87.1,42.2,-48.8,753,892,0
L,,3858183,0.013,0.996,0.212,24.9,-15.2,-38.3,758,896,0
L,,3858243,-0.158,0.983,0.271,12.6,10.0,-19.6,760,898,0
L,,3858302,-0.002,0.981,0.253,12.1,1.8,-18.4,753,901,0
L,,3858393,-0.101,1.041,0.241,32.2,-8.4,-45.0,725,903,0
L,,3858453,-0.234,1.051,0.219,41.7,-4.2,-66.3,639,910,0
L,,3858542,-0.161,1.429,0.365,77.9,45.8,-99.4,553,906,0
L,,3858603,0.246,2.115,0.468,108.5,90.6,-146.2,334,911,0
L,,3858663,-0.002,1.731,-0.553,168.2,176.8,-205.0,301,899,0
L,,3858722,-0.002,-0.268,0.618,-21.9,174.3,-43.8,543,794,0
L,,3858783,0.380,-0.012,0.252,-168.7,138.3,49.9,546,785,0
L,,3858873,0.662,0.926,0.275,-278.3,-26.0,176.3,535,792,0
L,,3858933,0.293,1.882,-0.136,-283.6,3.7,218.5,494,785,0
L,,3858993,-0.395,2.421,-0.423,-213.7,31.4,248.0,507,789,0
L,,3859052,-1.349,2.224,-1.685,-68.8,123.2,53.7,483,759,0
L,,3859156,-0.005,1.125,0.177,81.3,-15.4,-114.8,725,862,0
L,,3859203,-0.180,0.991,0.205,74.3,6.8,-67.2,748,887,0
L,,3859262,0.043,0.978,0.205,30.1,-6.8,-33.8,755,895,0
L,,3859323,-0.167,0.960,0.281,17.5,-0.2,-17.0,758,900,0
L,,3859382,-0.012,1.004,0.269,17.7,11.6,-16.8,744,901,0
L,,3859473,-0.101,0.976,0.218,35.9,7.6,-37.1,667,907,0
L,,3859533,-0.114,1.095,0.173,47.5,0.5,-56.1,596,906,0
L,,3859592,-0.066,1.261,0.159,75.1,13.1,-75.5,561,912,0
L,,3859653,0.049,1.779,0.268,129.4,42.2,-124.6,517,909,0
L,,3859712,0.490,2.340,0.953,172.9,239.1,-90.2,307,912,0
L,,3859802,0.300,-0.395,0.752,43.9,94.3,-3.4,520,785,0
L,,3859863,0.333,-0.004,0.411,-141.8,46.9,72.5,513,757,0
L,,3859922,0.449,0.342,0.215,-245.3,-50.6,158.8,511,761,0
L,,3860013,0.102,1.847,0.181,-288.3,-1.4,220.8,495,768,0
L,,3860073,-0.525,2.652,-0.718,-209.8,-41.7,257.1,488,783,0
L,,3860132,-1.673,2.033,-1.653,-57.1,30.5,19.3,498,762,0
L,,3860192,2.902,0.311,2.334,116.9,-183.3,-51.6,661,809,0
L,,3860252,0.174,1.044,-0.036,66.5,-1.7,-120.4,720,857,0
L,,3860313,-0.078,1.020,0.084,59.1,-19.3,-67.6,746,887,0
L,,3860373,0.031,1.004,0.105,14.0,-9.4,-38.8,755,894,0
L,,3860433,-0.058,1.023,0.220,10.2,6.9,-20.9,757,898,0
L,,3860493,0.008,1.016,0.222,6.7,8.6,-18.8,753,901,0
L,,3860561,0.002,0.976,0.291,26.7,19.6,-37.5,718,904,0
L,,3860613,-0.064,1.061,0.132,41.5,-4.4,-57.2,641,909,0
L,,3860672,-0.086,1.161,0.124,57.4,7.3,-71.4,597,912,0
L,,3860733,-0.107,1.437,0.355,95.5,19.7,-103.0,552,910,0
L,,3860792,0.426,2.215,0.583,148.8,50.1,-131.2,383,914,0
L,,3860882,-0.344,1.519,0.467,146.3,19.6,-95.9,291,860,0
L,,3860943,0.708,-0.010,0.479,-29.1,51.6,93.6,533,781,0
L,,3861002,0.172,0.271,0.264,-173.6,55.7,150.7,515,756,0
L,,3861063,0.302,0.752,0.317,-247.1,16.3,223.3,507,756,0
L,,3861123,0.369,1.936,0.269,-305.7,0.9,233.4,495,768,0
L,,3861183,-0.655,2.524,-0.339,-275.8,-116.5,223.0,498,776,0
L,,3861243,-1.831,1.990,-1.469,21.8,173.4,1.6,489,782,0
L,,3861303,4.360,0.644,1.591,139.2,-74.0,-3.5,669,817,9
L,,3861363,-0.109,0.595,0.170,75.1,-49.2,-127.7,731,871,0
L,,3861422,-0.156,0.965,0.245,70.5,19.3,-49.2,752,890,0
L,,3861483,0.010,0.971,0.181,7.9,-11.9,-41.8,756,895,0
L,,3861542,-0.113,0.993,0.368,12.2,14.1,-16.7,757,893,0
L,,3861603,0.064,1.026,0.274,12.8,9.1,-21.3,743,895,0
L,,3861663,-0.072,0.963,0.323,30.5,11.0,-39.6,719,899,0
L,,3861723,-0.116,1.101,0.141,46.6,-5.0,-65.8,659,906,0
L,,3861813,-0.139,1.386,0.313,90.0,29.1,-92.4,561,907,0
L,,3861903,0.873,2.465,0.906,167.0,144.9,-107.9,358,910,0
L,,3861962,-0.291,1.453,0.402,169.1,30.2,-138.3,320,877,0
L,,3862023,0.606,-0.111,0.632,-0.2,52.8,51.3,541,791,0
L,,3862083,0.377,0.050,0.207,-179.4,64.4,149.0,515,768,0
L,,3862172,0.437,1.193,0.390,-257.1,-1.5,254.4,487,764,0
L,,3862233,0.092,2.598,-0.376,-287.5,-58.3,249.7,476,769,0
L,,3862292,-2.155,2.300,-0.458,-201.8,82.3,128.8,501,781,0
L,,3862353,-0.590,1.796,-0.645,136.1,137.3,-135.1,626,769,0
L,,3862413,-0.303,1.574,0.144,48.9,-38.5,-105.1,719,857,0
L,,3862473,-0.265,0.944,0.302,71.8,11.9,-74.3,747,888,0
L,,3862562,-0.040,0.961,0.251,13.4,-17.2,-35.5,758,900,0
L,,3862623,-0.140,1.013,0.340,21.3,23.9,-18.2,746,898,0
L,,3862683,-0.030,1.008,0.221,19.3,8.8,-28.2,712,904,0
L,,3862743,-0.066,0.971,0.182,35.0,12.6,-41.8,635,908,0
L,,3862803,-0.147,1.103,0.156,47.2,6.3,-62.2,603,907,0
L,,3862863,-0.119,1.278,0.252,82.6,15.9,-87.0,553,909,0
L,,3862922,0.110,1.861,0.360,131.7,42.9,-138.8,429,912,0
L,,3862983,0.290,2.212,0.843,179.2,237.7,-147.5,285,905,0
L,,3863042,0.295,0.630,0.766,102.6,73.2,-91.8,528,762,0
L,,3863103,0.547,-0.147,0.442,-83.9,80.5,58.5,537,769,0
L,,3863163,0.412,0.134,0.060,-222.3,7.5,136.0,537,765,0
L,,3863223,0.550,0.937,0.464,-280.0,-18.3,224.1,479,771,0
L,,3863283,0.114,2.342,-0.205,-275.3,-11.9,215.6,484,767,0
L,,3863343,-1.189,2.151,-0.245,-228.9,-9.6,207.2,500,788,0
L,,3863403,-1.220,1.786,-0.944,-28.4,194.8,27.5,502,779,0
L,,3863471,1.725,0.659,0.767,107.7,-51.5,-62.0,658,806,0
L,,3863553,-0.210,0.589,0.403,66.0,-59.2,-103.3,736,876,0
L,,3863613,0.003,1.019,0.118,61.9,18.5,-51.5,755,893,0
L,,3863673,-0.045,0.972,0.185,17.1,-13.7,-38.7,760,899,0
L,,3863733,-0.168,0.986,0.272,8.1,11.7,-12.4,755,901,0
L,,3863792,-0.073,0.959,0.214,1.0,3.8,-13.3,738,902,0
L,,3863853,-0.130,0.996,0.272,5.0,5.3,-22.6,714,906,0
L,,3863916,-0.045,1.083,0.263,31.6,10.7,-53.3,662,905,0
L,,3863973,-0.168,1.163,0.159,53.2,23.0,-74.1,636,907,0
L,,3864033,-0.184,1.459,0.378,77.2,46.7,-110.2,595,906,0
L,,3864093,0.394,2.247,0.784,120.2,124.7,-139.7,477,911,0
L,,3864153,-0.741,1.444,0.081,147.0,98.1,-209.2,304,893,0
L,,3864213,-0.758,-0.316,0.381,-45.0,173.6,-79.5,557,798,0
L,,3864273,0.422,-0.032,0.130,-187.0,97.5,67.8,520,763,0
L,,3864363,0.851,0.954,0.086,-262.6,-44.5,224.4,505,773,0
L,,3864466,-0.938,2.732,0.045,-191.3,-81.5,286.7,465,751,0
L,,3864483,-2.594,2.203,0.625,-228.0,6.0,237.3,552,755,0
L,,3864542,-1.052,1.775,-0.722,108.7,140.4,-25.3,617,774,0
L,,3864603,-0.403,1.578,-0.201,145.2,-82.6,-158.4,702,840,0
L,,3864663,-0.043,0.865,0.283,57.6,-43.8,-90.9,740,880,0
L,,3864752,-0.018,1.018,0.143,29.4,-12.8,-38.6,753,893,0
L,,3864813,-0.101,0.976,0.189,15.8,-3.2,-16.5,753,894,0
L,,3864903,-0.011,0.977,0.177,0.6,-11.4,-22.6,758,896,0
L,,3864963,-0.081,0.987,0.205,15.6,-12.6,-34.3,755,896,0
L,,3865053,-0.147,1.132,0.279,50.4,-3.2,-65.1,734,904,0
L,,3865143,0.037,1.852,0.258,103.2,49.6,-156.4,599,903,0
L,,3865203,0.230,2.555,1.305,121.8,205.1,-162.4,331,908,0
L,,3865263,-0.230,0.533,-0.253,15.4,132.2,-145.3,542,853,0
L,,3865323,1.363,-0.138,0.403,-135.3,107.9,19.5,559,793,0
L,,3865383,0.849,0.499,0.001,-236.3,-62.4,125.5,558,772,0
L,,3865473,0.763,1.722,-0.062,-256.5,16.3,265.0,473,762,0
L,,3865533,-0.303,2.761,-0.421,-216.2,-52.7,275.3,470,774,0
L,,3865593,-2.106,2.210,-0.915,-82.8,288.4,101.7,451,767,0
L,,3865683,-1.732,2.912,-1.368,105.6,-44.3,-180.6,697,835,0
L,,3865743,-0.436,0.770,0.244,65.1,-47.8,-97.9,741,880,0
L,,3865803,0.135,0.971,0.275,47.3,-19.5,-53.9,758,899,0
L,,3865863,-0.179,0.955,0.244,19.9,-18.4,-37.4,756,904,0
L,,3865923,-0.108,0.973,0.182,21.3,24.7,-22.4,728,907,0
L,,3865983,-0.111,0.979,0.205,17.9,-1.1,-25.9,648,912,0
L,,3866043,-0.142,0.992,0.224,24.5,7.4,-36.7,622,910,0
L,,3866103,-0.119,1.059,0.194,36.9,3.2,-60.7,552,911,0
L,,3866193,-0.160,1.283,0.188,60.9,41.5,-88.9,441,916,0
L,,3866253,0.061,1.916,0.405,78.2,92.6,-111.5,309,914,0
L,,3866313,0.381,1.323,-0.491,141.1,174.3,-162.6,302,902,0
L,,3866373,-0.040,-0.188,0.631,39.4,155.6,-48.2,563,790,0
L,,3866433,0.323,-0.047,0.646,-177.1,181.8,75.6,527,766,0
L,,3866493,0.583,0.625,0.161,-239.6,105.1,159.8,519,751,0
L,,3866553,0.539,1.667,0.173,-305.4,39.0,184.6,495,769,0
L,,3866613,0.319,2.233,-0.245,-250.4,-16.3,197.7,509,781,0
L,,3866673,-1.244,1.823,-0.475,-126.2,29.8,92.0,502,774,0
L,,3866733,-0.431,1.115,-0.544,81.7,29.7,-60.9,533,787,0
L,,3866793,2.854,1.053,1.354,83.7,-124.5,-32.2,693,845,0
L,,3866853,-0.180,0.577,0.486,62.5,-94.7,-104.3,733,873,0
L,,3866913,-0.145,1.109,0.081,81.0,35.2,-43.4,741,883,0
L,,3866981,-0.049,0.940,0.101,14.5,-15.3,-12.2,748,885,0
L,,3867033,-0.111,0.991,0.344,8.6,14.8,20.3,745,879,0
L,,3867093,0.112,1.013,0.213,14.0,25.4,23.1,746,883,0
L,,3867153,0.143,0.992,0.309,37.4,-36.4,-29.0,747,892,0
L,,3867213,-0.036,1.166,0.096,68.6,-28.7,-56.9,743,904,0
L,,3867273,-0.072,1.243,0.128,91.0,-23.7,-58.2,667,911,0
L,,3867363,0.143,1.522,0.218,132.3,-12.5,-104.5,668,904,0
L,,3867423,0.542,2.397,1.095,206.0,91.9,-73.2,321,909,0
L,,3867483,0.303,1.494,0.808,185.0,-76.7,-127.6,309,884,0
L,,3867543,0.897,0.052,0.650,-6.0,-83.4,63.2,545,783,0
L,,3867603,0.321,0.013,0.305,-138.4,-15.8,172.8,561,785,0
L,,3867663,0.412,0.805,0.267,-215.8,-35.7,249.2,552,780,0
L,,3867723,0.481,1.877,0.327,-290.9,-71.1,280.9,516,771,0
L,,3867783,-1.351,2.806,0.068,-281.1,-177.3,256.4,489,771,0
L,,3867843,-1.438,1.672,-1.022,87.2,210.7,-35.2,504,788,0
L,,3867903,-0.936,3.079,-0.694,182.4,-102.8,-216.2,697,839,0
L,,3867963,-0.291,0.573,0.101,39.5,-84.4,-133.2,738,882,0
L,,3868023,0.001,0.986,-0.006,40.6,-26.1,-63.0,753,898,0
L,,3868083,-0.134,0.902,0.087,18.9,-6.3,-40.3,757,904,0
L,,3868143,-0.089,1.029,0.133,2.1,4.0,-15.3,747,904,0
L,,3868203,-0.061,1.038,0.154,5.2,11.2,-26.0,706,904,0
L,,3868263,0.005,1.012,0.107,31.6,4.6,-45.0,591,909,0
L,,3868323,-0.032,1.190,0.075,53.8,0.7,-69.0,564,911,0
L,,3868383,-0.050,1.497,0.243,93.0,2.9,-92.5,567,909,0
L,,3868443,0.486,2.024,0.566,152.3,37.5,-137.2,401,908,0
L,,3868503,0.778,1.801,-0.232,251.0,98.7,-189.4,334,899,0
L,,3868563,0.497,0.386,0.959,70.3,-0.2,-47.2,561,788,0
L,,3868624,0.143,-0.182,0.582,-119.9,9.8,99.6,540,777,0
L,,3868683,0.494,0.284,0.123,-218.8,12.3,169.6,531,778,0
L,,3868743,0.473,1.132,0.420,-264.5,-32.9,245.9,506,773,0
L,,3868833,-0.487,2.814,-0.414,-254.3,-56.0,263.5,478,785,0
L,,3868893,-1.588,2.806,-2.443,-27.6,213.7,12.8,471,793,9
L,,3868953,4.066,1.104,1.731,117.0,-96.2,-35.7,676,826,0
L,,3869013,-0.277,0.561,0.232,105.0,-92.8,-149.2,735,876,0
L,,3869073,0.000,0.922,0.089,71.9,54.2,-41.9,751,895,0
L,,3869164,-0.181,0.961,0.245,12.3,-9.7,-28.5,754,902,0
L,,3869223,-0.049,0.977,0.235,17.0,16.6,-24.0,733,899,0
L,,3869283,-0.198,0.920,0.229,14.4,5.4,-30.5,705,905,0
L,,3869343,-0.039,1.069,0.148,25.2,19.7,-39.7,633,908,0
L,,3869403,-0.108,1.171,0.236,53.0,9.9,-70.0,584,909,0
L,,3869493,0.067,1.736,0.240,119.3,76.8,-149.5,514,907,0
L,,3869553,0.606,2.318,0.933,187.6,384.0,-125.9,287,906,0
L,,3869613,-0.162,1.281,0.567,135.6,163.7,-110.5,516,767,0
L,,3869673,0.458,-0.190,0.570,-122.0,-15.9,36.3,541,772,0
L,,3869733,0.725,0.200,-0.002,-229.0,40.9,102.1,547,768,0
L,,3869793,0.766,0.812,0.116,-300.7,-53.2,192.0,520,768,0
L,,3869891,-0.003,2.825,-0.156,-236.9,15.4,305.2,466,767,0
L,,3869943,-2.167,2.827,-1.145,-151.8,431.7,173.8,407,762,0
L,,3870003,-0.539,1.260,-0.007,130.7,23.9,-98.2,613,774,0
L,,3870063,-0.699,1.844,0.491,80.5,-17.1,-114.8,713,852,0
L,,3870153,-0.090,0.939,0.122,38.7,3.5,-41.3,751,892,0
L,,3870213,-0.216,0.924,0.313,13.6,-8.5,-30.2,757,902,0
L,,3870273,-0.162,0.986,0.319,8.8,11.6,-12.0,743,903,0
L,,3870337,-0.222,0.981,0.313,16.0,2.8,-22.3,715,908,0
L,,3870393,-0.153,1.070,0.339,33.4,21.1,-33.8,677,908,0
L,,3870454,-0.172,1.061,0.197,47.1,8.0,-61.7,644,908,0
L,,3870513,-0.215,1.198,0.167,46.4,35.0,-76.3,615,907,0
L,,3870573,-0.135,1.559,0.453,70.3,77.4,-105.5,586,905,0
L,,3870633,0.913,1.872,0.596,151.8,277.2,-121.1,322,907,0
L,,3870723,-0.384,-0.759,0.942,-11.9,140.2,-75.6,558,793,0
L,,3870783,0.265,-0.065,0.366,-189.4,89.1,66.0,526,773,0
L,,3870843,0.772,0.523,-0.079,-230.0,38.0,158.4,526,755,0
L,,3870933,0.095,2.033,-0.082,-262.8,44.1,220.0,471,794,0
L,,3870994,-0.373,2.166,-0.489,-242.4,136.3,212.2,486,788,0
L,,3871053,-1.237,2.427,-1.388,-109.0,83.7,60.1,487,778,0
L,,3871113,-0.164,1.112,-0.260,114.1,35.3,-83.7,644,798,0
L,,3871173,-0.331,1.442,0.287,85.2,-38.2,-104.7,726,859,0
L,,3871233,-0.321,0.949,0.266,61.1,-2.8,-65.3,749,890,0
L,,3871293,-0.028,0.994,0.203,25.6,12.8,-31.6,756,894,0
L,,3871353,-0.172,0.973,0.311,7.9,-0.9,-16.6,757,894,0
L,,3871414,-0.036,0.977,0.358,13.2,4.2,-13.7,751,896,0
L,,3871473,-0.136,1.001,0.352,27.7,10.8,-30.9,737,902,0
L,,3871534,-0.040,1.035,0.151,46.4,21.7,-57.9,692,904,0
L,,3871593,-0.190,1.237,0.254,62.6,23.3,-77.3,647,903,0
L,,3871653,-0.053,1.503,0.341,89.5,56.0,-113.7,623,904,0
L,,3871713,0.515,2.476,0.992,136.9,186.3,-121.8,458,912,0
L,,3871773,-0.308,1.627,0.479,171.6,107.8,-149.3,351,880,0
L,,3871833,0.812,0.055,0.648,-5.9,81.5,28.2,533,798,0
L,,3871893,0.446,-0.020,0.235,-205.2,83.0,124.3,515,771,0
L,,3871983,0.525,1.112,0.244,-268.3,-25.4,241.7,497,768,0
L,,3872043,0.169,2.528,-0.427,-268.7,-27.6,258.1,492,783,0
L,,3872103,-2.055,2.253,-0.272,-203.7,58.0,158.9,495,786,0
L,,3872164,-0.928,1.506,-0.861,142.1,73.4,-109.2,539,739,0
L,,3872223,-0.478,1.424,-0.079,68.4,-30.8,-144.1,716,854,0
L,,3872284,-0.302,1.016,0.102,65.7,2.3,-79.8,744,887,0
L,,3872343,0.067,0.986,0.134,33.0,-7.9,-34.4,753,895,0
L,,3872403,-0.116,0.987,0.285,17.1,-9.5,-25.9,757,895,0
L,,3872463,-0.018,0.949,0.264,22.9,6.6,-20.7,741,896,0
L,,3872523,-0.052,1.063,0.197,24.9,5.0,-35.0,716,902,0
L,,3872583,-0.061,1.034,0.194,51.5,-2.4,-59.0,615,908,0
L,,3872643,-0.090,1.195,0.116,67.5,3.7,-74.5,575,910,0
L,,3872704,-0.115,1.603,0.440,111.6,23.6,-107.7,534,909,0
L,,3872793,1.166,1.760,0.015,248.0,207.5,-173.3,306,904,0
L,,3872853,0.389,0.970,0.883,127.6,-34.2,-50.9,521,783,0
L,,3872914,0.116,0.047,0.786,-96.5,-17.7,117.3,538,778,0
L,,3872973,0.387,0.317,0.268,-195.7,63.7,196.0,504,761,0
L,,3873063,0.537,1.742,0.227,-308.3,9.0,260.2,460,752,0
L,,3873124,-0.387,2.720,-0.569,-278.9,-82.1,251.0,463,769,0
L,,3873183,-2.350,2.688,-1.820,-105.9,134.2,2.2,457,775,9
L,,3873244,3.783,0.665,0.723,157.4,-80.0,-39.5,664,813,0
L,,3873312,-0.431,0.672,0.030,68.8,-66.3,-133.0,738,879,0
L,,3873364,-0.096,1.042,0.176,70.1,32.6,-52.0,750,889,0
L,,3873423,0.034,0.997,0.158,21.2,-12.7,-39.4,757,892,0
L,,3873483,-0.044,1.015,0.280,16.8,-6.4,-20.0,754,898,0
L,,3873543,0.004,1.011,0.128,13.4,-4.9,-26.6,745,899,0
L,,3873603,-0.080,0.990,0.298,26.6,3.0,-36.2,723,904,0
L,,3873664,-0.094,1.040,0.167,54.8,4.1,-62.3,617,911,0
L,,3873723,-0.059,1.294,0.141,84.1,4.5,-80.9,576,909,0
L,,3873784,0.032,1.780,0.244,133.2,34.5,-130.3,534,908,0
L,,3873843,0.470,2.665,1.378,179.1,207.1,-117.9,328,911,0
L,,3873904,0.083,1.131,0.394,124.1,11.5,-91.3,367,846,0
L,,3873963,0.661,-0.010,0.426,-55.8,48.7,64.1,519,775,0
L,,3874023,0.264,0.163,0.144,-210.0,3.9,127.5,538,777,0
L,,3874114,0.476,1.334,0.372,-287.9,-75.3,239.2,478,772,0
L,,3874173,0.018,2.654,-0.316,-271.8,-85.8,245.4,497,770,0
L,,3874233,-1.995,2.501,-0.414,-178.8,124.4,130.7,503,785,0
L,,3874293,-0.952,1.447,-0.701,130.2,149.2,-121.4,560,760,0
L,,3874353,-0.325,1.320,0.274,75.2,-50.4,-150.9,706,843,0
L,,3874414,-0.226,0.975,0.075,60.8,-24.1,-77.4,745,888,0
L,,3874473,0.071,0.975,0.139,38.3,0.9,-36.6,755,894,0
L,,3874534,-0.109,0.962,0.267,10.2,-10.3,-23.8,758,897,0
L,,3874593,-0.068,0.987,0.283,12.3,13.2,-14.7,754,901,0
L,,3874654,-0.115,1.002,0.301,23.3,4.4,-28.0,732,902,0
L,,3874713,-0.050,1.054,0.245,45.2,1.4,-56.0,688,907,0
L,,3874773,-0.167,1.147,0.195,60.8,11.9,-72.6,595,909,0
L,,3874833,-0.111,1.537,0.312,98.9,22.7,-112.3,546,910,0
L,,3874893,0.336,2.245,0.740,134.8,67.8,-161.1,391,912,0
L,,3874954,0.532,1.625,-0.476,205.3,191.6,-215.3,324,897,0
L,,3875013,0.028,-0.695,0.443,3.6,98.7,-24.0,536,784,0
L,,3875074,0.299,-0.142,0.300,-173.6,17.7,77.9,528,758,0
L,,3875164,0.600,0.856,0.085,-278.2,-13.7,209.1,500,760,0
L,,3875223,0.540,1.985,-0.130,-288.2,-72.3,287.0,435,737,0
L,,3875284,-1.940,2.681,0.103,-124.5,60.1,324.5,427,753,0
L,,3875343,-0.617,1.793,-1.679,55.3,241.3,0.6,444,773,0
L,,3875404,3.329,1.281,1.217,81.2,-70.4,-42.0,669,818,0
L,,3875463,-0.609,0.848,0.229,90.6,-61.8,-118.2,733,870,0
L,,3875523,-0.129,1.016,0.171,68.1,47.7,-43.0,751,889,0
L,,3875583,-0.044,0.956,0.239,7.4,-11.9,-36.2,758,896,0
L,,3875643,-0.133,0.961,0.354,10.2,7.5,-13.5,758,898,0
L,,3875704,-0.007,1.014,0.323,12.7,0.2,-22.9,746,899,0
L,,3875763,-0.103,0.996,0.338,28.4,11.3,-36.9,721,902,0
L,,3875824,-0.112,1.014,0.212,38.5,8.7,-60.9,660,905,0
L,,3875883,-0.106,1.219,0.239,62.0,25.7,-81.2,627,906,0
L,,3875944,-0.061,1.542,0.346,89.4,65.7,-118.6,595,905,0
L,,3876003,0.517,2.653,0.976,140.2,191.8,-143.9,401,912,0
L,,3876063,-0.327,1.456,0.524,140.2,129.8,-148.4,318,876,0
L,,3876130,1.063,-0.132,-0.034,-59.9,107.7,53.4,535,769,0
L,,3876213,0.768,0.402,0.040,-226.5,13.0,167.2,510,760,0
L,,3876274,0.459,1.234,0.313,-263.9,-0.5,247.1,464,754,0
L,,3876333,-0.048,2.459,-0.348,-264.4,43.6,254.8,468,759,0
L,,3876393,-1.587,1.922,-0.261,-217.7,131.3,168.9,502,781,0
L,,3876453,-0.807,1.606,-1.038,105.0,138.1,-59.9,539,762,0
L,,3876513,-1.160,1.902,-0.460,88.3,-114.5,-193.0,704,844,0
L,,3876576,-0.320,1.164,0.061,65.2,-25.5,-69.3,737,876,0
L,,3876633,0.069,0.936,0.184,45.1,28.0,-40.8,750,888,0
L,,3876694,-0.088,0.944,0.374,5.2,-13.5,-30.6,756,894,0
L,,3876753,-0.093,0.958,0.299,8.4,10.4,-11.6,758,898,0
L,,3876814,-0.121,0.997,0.389,12.1,-6.3,-20.4,749,899,0
L,,3876874,0.014,1.024,0.339,36.6,9.8,-43.9,733,902,0
L,,3876933,-0.185,1.058,0.349,44.5,21.0,-67.6,668,908,0
L,,3876994,-0.082,1.245,0.122,66.0,34.7,-91.5,632,908,0
L,,3877053,-0.083,1.640,0.386,87.7,76.4,-132.5,591,905,0
L,,3877143,-0.268,1.819,-0.102,154.9,118.2,-214.4,324,898,0
L,,3877234,0.731,-0.031,0.305,-88.4,81.6,47.8,526,785,0
L,,3877293,0.791,0.309,-0.073,-203.7,64.5,113.9,525,772,0
L,,3877353,0.577,0.846,0.093,-259.5,-23.1,204.3,498,756,0
L,,3877414,0.345,2.230,0.183,-275.5,23.3,254.4,458,775,0
L,,3877473,-0.408,2.468,-0.480,-205.8,44.6,264.8,498,779,0
L,,3877534,-0.964,2.209,-1.482,-121.4,153.3,-17.3,478,765,0
L,,3877593,2.684,0.507,1.820,109.7,-106.3,-41.2,666,820,0
L,,3877654,-0.122,0.580,0.278,101.3,-17.1,-119.5,728,865,0
L,,3877713,-0.127,0.988,0.193,76.3,23.2,-48.3,748,891,0
L,,3877774,-0.002,1.014,0.173,13.6,-3.7,-33.1,756,897,0
L,,3877833,-0.130,0.995,0.337,4.0,17.7,-6.9,755,896,0
L,,3877893,-0.032,1.015,0.311,7.0,13.3,-13.2,743,896,0
L,,3877984,-0.051,0.977,0.254,47.6,5.8,-59.5,687,907,0
L,,3878043,-0.150,1.217,0.199,62.6,6.0,-75.7,644,909,0
L,,3878104,-0.067,1.422,0.238,84.6,40.8,-100.5,598,908,0
L,,3878164,0.386,2.027,0.528,130.0,106.0,-126.7,510,910,0
L,,3878223,-0.210,2.450,-0.108,203.4,-20.2,-213.9,339,902,0
L,,3878314,0.805,0.284,0.473,-31.0,47.4,80.7,512,790,0
L,,3878404,0.618,0.481,0.041,-210.8,40.5,213.6,505,761,0
L,,3878463,0.509,1.413,0.193,-251.4,-8.4,269.0,481,770,0
L,,3878524,0.225,2.540,-0.212,-263.6,-70.9,279.9,476,762,0
L,,3878583,-2.195,2.709,-1.772,-160.4,38.1,87.0,488,776,0
L,,3878644,-1.183,1.221,-0.522,121.7,43.1,-131.5,576,747,0
L,,3878704,-0.737,1.730,0.067,53.9,64.2,-118.9,717,856,0
L,,3878763,-0.205,0.887,0.198,39.2,-22.4,-75.5,739,880,0
L,,3878823,0.059,1.048,0.115,25.6,-13.8,-30.4,746,886,0
L,,3878883,0.007,0.966,0.260,12.1,-0.7,-23.2,748,887,0
L,,3878944,-0.039,0.974,0.196,16.2,13.2,-16.6,743,892,0
L,,3879003,0.000,1.014,0.235,35.1,15.4,-41.6,728,900,0
L,,3879064,-0.013,1.112,0.019,51.9,12.7,-62.4,641,906,0
L,,3879124,0.051,1.296,0.087,79.9,-1.0,-80.0,557,911,0
L,,3879183,-0.087,1.582,0.426,129.4,25.4,-112.4,442,912,0
L,,3879244,0.872,2.504,1.182,217.1,116.4,-99.6,291,912,0
L,,3879333,0.660,0.981,0.782,89.7,-38.0,-60.4,549,780,0
L,,3879394,-0.016,-0.088,0.805,-107.8,12.3,140.2,515,767,0
L,,3879454,0.386,0.212,0.455,-218.6,49.2,219.1,488,754,0
L,,3879513,0.391,1.147,0.519,-266.9,25.5,249.6,489,752,0
L,,3879582,-0.111,2.705,-0.321,-349.5,-115.2,213.6,462,757,0
L,,3879633,-1.510,2.638,-0.822,-250.6,31.7,156.4,451,766,0
L,,3879694,-0.591,1.555,-0.890,132.0,11.2,-192.5,471,765,0
L,,3879753,-1.660,3.842,-2.483,211.9,-44.9,-248.8,707,849,9
L,,3879814,-0.122,0.742,-0.049,43.9,-34.8,-95.7,743,882,0
L,,3879874,-0.076,0.993,0.113,38.8,-9.3,-47.8,757,897,0
L,,3879934,-0.107,0.922,0.214,9.3,-10.3,-30.7,755,898,0
L,,3879994,-0.094,1.009,0.282,12.5,19.3,-20.9,748,895,0
L,,3880053,-0.038,1.025,0.221,16.5,10.9,-30.8,707,901,0
L,,3880114,-0.015,1.067,0.237,42.8,17.9,-49.3,637,906,0
L,,3880173,-0.186,1.205,0.235,68.5,9.1,-77.8,568,907,0
L,,3880234,-0.181,1.411,0.447,109.4,39.6,-112.8,510,907,0
L,,3880293,0.785,2.535,0.868,155.7,108.1,-141.8,353,912,0
L,,3880354,-0.640,1.715,0.254,185.3,21.7,-210.5,298,895,0
L,,3880414,-1.258,-0.318,0.292,-15.8,59.1,-64.0,559,775,0
L,,3880474,0.305,-0.273,0.345,-189.0,28.9,126.5,541,767,0
L,,3880534,0.430,0.486,0.340,-261.3,-1.7,229.7,527,760,0
L,,3880593,0.354,1.849,0.257,-304.0,20.4,245.4,529,781,0
L,,3880653,-0.353,2.710,-0.325,-276.2,-32.6,258.5,505,793,0
L,,3880713,-2.072,2.666,-1.779,-98.3,133.0,82.8,477,770,0
L,,3880803,2.544,1.580,0.671,116.2,-72.8,-65.8,671,820,0
L,,3880864,-0.643,0.469,0.476,42.0,-87.3,-124.4,734,874,0
L,,3880923,-0.203,1.018,0.198,50.0,39.7,-51.1,752,893,0
L,,3880984,-0.062,0.966,0.214,4.2,-11.4,-38.4,758,898,0
L,,3881043,-0.194,0.982,0.294,1.8,7.9,-8.5,756,899,0
L,,3881104,-0.317,1.068,0.234,-9.0,49.9,-10.9,744,898,0
L,,3881164,-0.142,1.021,0.412,18.8,22.7,-28.1,724,902,0
L,,3881224,0.000,1.058,0.210,44.4,14.2,-68.1,688,903,0
L,,3881284,-0.162,1.329,0.210,72.0,12.6,-91.7,658,906,0
L,,3881343,-0.019,1.635,0.294,92.2,55.5,-131.3,611,905,0
L,,3881404,0.903,2.417,0.651,171.0,233.3,-159.3,333,906,0
L,,3881463,0.315,1.448,0.608,167.6,131.9,-93.9,437,822,0
L,,3881524,0.609,0.068,0.331,-71.6,42.9,72.9,537,795,0
L,,3881583,0.637,0.313,-0.017,-215.7,86.8,159.6,532,748,0
L,,3881644,0.678,0.887,0.159,-271.0,69.3,249.1,513,740,0
L,,3881704,0.480,2.552,-0.206,-298.4,78.3,288.5,498,754,0
L,,3881764,-2.110,2.361,-0.119,-231.9,137.9,232.1,487,766,0
L,,3881824,-0.501,1.784,-1.716,115.0,166.6,-65.8,527,783,0
L,,3881883,-1.490,2.673,-1.443,188.2,-109.2,-229.0,704,846,0
L,,3881944,-0.256,1.062,0.003,107.2,10.7,-70.7,743,887,0
L,,3882003,-0.085,0.959,0.200,35.0,-14.7,-41.0,756,899,0
L,,3882064,-0.223,0.979,0.283,10.8,-3.8,-28.4,758,901,0
L,,3882124,-0.166,0.939,0.319,4.4,31.7,-7.5,733,904,0
L,,3882184,-0.165,0.882,0.325,10.7,20.6,-13.4,696,906,0
L,,3882244,-0.059,1.032,0.260,28.0,29.0,-37.5,662,908,0
L,,3882304,-0.227,1.126,0.303,46.6,14.5,-63.9,646,906,0
L,,3882373,-0.158,1.383,0.358,85.5,45.0,-105.4,615,906,0
L,,3882423,0.246,2.215,0.744,127.3,110.6,-142.8,577,902,0
L,,3882483,-0.278,1.981,-0.149,174.3,73.6,-227.5,322,899,0
L,,3882543,-0.634,-0.780,0.641,-65.8,174.3,-70.1,549,786,0
L,,3882647,0.834,0.291,-0.108,-224.5,68.5,140.0,517,732,0
L,,3882664,0.688,0.441,-0.023,-259.7,25.6,161.2,519,729,0
L,,3882724,0.706,1.617,0.143,-305.6,-69.5,245.7,480,761,0
L,,3882788,-0.159,2.549,-0.359,-210.6,45.0,271.6,500,793,0
L,,3882843,-1.752,2.117,-0.595,-178.2,153.3,132.2,519,798,0
L,,3882904,-0.836,1.485,-0.918,112.9,82.8,-84.9,523,784,0
L,,3882963,-1.360,2.402,-0.906,117.7,-61.0,-171.4,692,839,0
L,,3883024,-0.140,0.880,0.053,74.1,-55.3,-92.1,731,869,0
L,,3883083,-0.059,0.998,0.103,56.9,-10.1,-42.6,745,888,0
L,,3883144,-0.110,0.968,0.198,12.1,-14.8,-27.2,753,892,0
L,,3883204,-0.128,1.000,0.247,9.3,7.1,-12.4,747,894,0
L,,3883293,-0.077,1.060,0.284,20.2,6.3,-30.8,722,902,0
L,,3883383,-0.139,1.124,0.203,57.1,4.8,-74.8,593,908,0
L,,3883444,-0.133,1.436,0.343,99.9,19.1,-103.9,577,909,0
L,,3883503,0.045,2.275,0.659,138.4,82.1,-171.6,533,902,0
L,,3883564,0.761,1.221,-0.485,226.5,292.7,-215.3,345,897,0
L,,3883624,0.465,-0.508,0.892,39.1,188.1,-39.4,554,788,0
L,,3883684,0.594,-0.060,0.133,-211.5,-52.0,61.3,551,791,0
L,,3883744,0.659,0.592,0.173,-280.5,-91.9,199.0,531,789,0
L,,3883804,0.611,1.780,0.058,-256.6,7.2,280.4,448,776,0
L,,3883894,-1.199,2.016,-0.140,-251.0,65.3,237.7,465,769,0
L,,3883954,-0.955,1.839,-1.415,65.8,72.6,-36.6,507,793,0
L,,3884014,1.443,1.726,0.481,105.5,-116.7,-86.7,675,820,0
L,,3884074,-0.536,0.593,0.411,35.1,-51.8,-121.1,734,871,0
L,,3884134,-0.237,0.991,0.100,63.0,22.6,-47.2,747,890,0
L,,3884194,-0.025,0.968,0.200,13.4,-15.5,-32.0,755,895,0
L,,3884253,-0.084,1.020,0.284,18.4,7.3,-14.7,754,895,0
L,,3884313,-0.007,1.019,0.280,15.2,-5.9,-29.4,738,897,0
L,,3884374,-0.019,1.036,0.223,37.8,7.9,-44.9,706,904,0
L,,3884434,-0.110,1.133,0.170,57.1,-1.1,-70.9,603,907,0
L,,3884494,0.064,1.477,0.170,93.5,8.6,-97.3,584,909,0
L,,3884554,0.184,1.875,0.369,142.1,52.2,-142.3,592,906,0
L,,3884614,1.115,1.508,0.050,214.5,252.4,-156.2,305,906,0
L,,3884673,0.589,0.982,0.885,111.1,7.0,-73.5,526,763,0
L,,3884734,0.323,-0.062,0.834,-116.2,50.3,96.3,531,785,0
L,,3884793,0.388,0.312,0.160,-222.1,53.2,170.7,524,773,0
L,,3884854,0.492,1.037,0.368,-271.1,-6.8,247.7,484,763,0
L,,3884914,-0.362,2.806,-0.276,-316.8,-32.1,219.2,479,769,0
L,,3884974,-2.035,2.186,-0.614,-223.5,21.2,145.6,485,779,0
L,,3885034,-0.845,2.088,-0.687,124.3,34.6,-136.7,591,770,0
L,,3885094,-0.166,1.429,0.441,82.6,-52.0,-110.9,711,851,0
L,,3885154,-0.291,0.970,0.148,69.5,13.4,-75.1,745,889,0
L,,3885213,0.095,1.037,0.143,27.0,-12.3,-39.0,753,896,0
L,,3885274,-0.136,0.985,0.287,16.0,5.0,-22.6,754,898,0
L,,3885333,0.037,1.004,0.284,18.1,16.7,-21.4,736,897,0
L,,3885394,-0.071,1.015,0.233,33.8,9.8,-42.3,669,903,0
L,,3885454,-0.053,1.115,0.142,53.4,-5.3,-62.7,596,909,0
L,,3885543,0.003,1.426,0.214,105.0,12.3,-98.9,538,911,0
L,,3885604,0.387,2.208,0.604,154.1,58.7,-131.3,391,911,0
L,,3885664,0.432,1.781,-0.176,215.4,20.8,-210.7,324,898,0
L,,3885732,-0.997,-0.418,0.600,-29.4,18.4,-51.1,540,792,0
L,,3885784,0.164,-0.232,0.539,-148.1,33.0,125.4,524,776,0
L,,3885844,0.389,0.445,0.272,-226.3,34.3,204.2,520,767,0
L,,3885904,0.358,1.379,0.304,-279.9,16.5,234.4,499,772,0
L,,3885964,0.048,2.519,-0.450,-314.1,-101.5,229.1,500,783,0
L,,3886054,-0.848,1.908,-1.791,81.5,136.2,-50.0,500,800,0
L,,3886114,2.074,1.880,0.895,116.5,-6.7,-60.0,691,837,0
L,,3886204,-0.386,1.054,0.092,65.6,-2.7,-74.4,743,885,0
L,,3886264,0.010,1.014,0.224,23.3,-10.0,-38.7,753,893,0
L,,3886324,-0.113,0.969,0.280,19.4,-3.2,-26.1,751,898,0
L,,3886384,-0.015,1.014,0.219,14.4,7.2,-25.0,744,900,0
L,,3886444,-0.093,1.013,0.254,22.0,2.3,-34.9,714,905,0
L,,3886503,-0.101,1.065,0.245,47.6,8.4,-57.2,627,910,0
L,,3886564,-0.076,1.211,0.123,70.9,15.9,-78.2,551,910,0
L,,3886624,-0.124,1.674,0.443,117.9,34.3,-127.4,446,910,0
L,,3886684,0.631,2.461,1.131,175.7,148.1,-123.4,309,911,0
L,,3886744,-0.393,1.504,0.088,141.9,67.8,-152.1,312,888,0
L,,3886804,-0.174,-0.205,0.597,-0.9,107.7,21.1,549,783,0
L,,3886864,0.335,0.064,0.353,-208.3,44.3,122.4,506,770,0
L,,3886924,0.454,0.718,0.254,-274.3,7.7,190.5,510,767,0
L,,3886984,0.539,1.958,0.105,-310.1,-14.6,228.6,504,782,0
L,,3887043,0.022,2.673,-0.558,-239.2,25.4,269.6,531,786,0
L,,3887104,-1.355,2.556,-2.125,-54.2,95.2,63.1,512,793,0
L,,3887164,3.342,0.165,1.364,140.7,-44.3,-53.7,666,820,0
L,,3887224,0.018,0.613,0.276,63.1,-55.7,-130.8,726,865,0
L,,3887284,-0.029,0.993,0.247,69.3,31.7,-51.9,750,891,0
L,,3887344,-0.015,1.004,0.201,8.6,-17.9,-37.4,757,895,0
L,,3887404,-0.110,1.016,0.313,-0.9,11.6,-15.2,761,901,0
L,,3887464,0.007,0.995,0.273,4.3,10.5,-14.9,742,898,0
L,,3887524,-0.087,0.958,0.332,14.0,19.8,-25.2,723,900,0
L,,3887583,-0.072,1.022,0.291,36.1,3.1,-53.7,690,903,0
L,,3887644,-0.100,1.190,0.195,52.2,18.7,-73.0,650,905,0
L,,3887704,-0.245,1.406,0.469,84.4,41.6,-107.3,606,904,0
L,,3887764,0.394,2.131,0.704,128.3,100.1,-143.9,536,903,0
L,,3887824,-0.302,2.022,-0.226,182.1,31.4,-214.7,303,897,0
L,,3887884,-0.385,-0.359,0.237,-15.6,107.1,-60.1,563,806,0
L,,3887944,0.144,-0.116,0.467,-165.8,61.0,102.6,535,773,0
L,,3888004,0.581,0.479,0.108,-221.8,102.7,195.1,508,759,0
L,,3888064,0.577,1.488,0.184,-268.6,56.0,233.9,495,772,0
L,,3888124,0.122,2.414,-0.615,-279.6,6.7,235.0,490,781,0
L,,3888184,-2.023,2.241,-0.546,-134.0,103.1,149.6,492,783,0
L,,3888244,-0.997,1.977,-0.337,138.7,101.0,-182.2,622,776,0
L,,3888304,0.099,1.514,0.266,65.7,-83.5,-119.7,708,845,0
L,,3888364,-0.251,0.979,0.328,79.3,18.2,-66.0,744,882,0
L,,3888424,0.047,0.965,0.122,22.8,11.1,-38.7,755,894,0
L,,3888484,-0.133,0.971,0.330,5.5,-5.6,-26.1,763,901,0
L,,3888552,-0.025,0.972,0.262,1.8,19.3,-11.3,751,903,0
L,,3888604,-0.195,0.943,0.331,2.6,6.7,-18.1,737,898,0
L,,3888664,0.002,1.096,0.387,30.8,17.1,-45.8,712,903,0
L,,3888724,-0.169,1.141,0.252,54.3,18.9,-75.8,668,906,0
L,,3888784,-0.045,1.424,0.231,78.6,42.9,-111.6,641,908,0
L,,3888844,0.256,2.281,0.655,107.5,105.8,-158.6,608,902,0
L,,3888904,-0.278,1.860,-0.199,154.6,100.1,-220.8,324,899,0
L,,3888966,0.433,0.040,0.866,-38.5,92.8,-16.6,564,815,0
L,,3889024,0.420,0.039,0.151,-169.3,139.5,107.0,542,765,0
L,,3889084,0.646,0.467,-0.037,-253.4,63.2,192.5,524,759,0
L,,3889144,0.666,1.652,0.005,-303.4,-32.4,258.1,493,778,0
L,,3889204,-0.004,2.548,-0.633,-212.1,6.0,276.5,487,786,0
L,,3889264,-2.014,2.471,-0.832,-130.0,234.5,108.7,499,780,0
L,,3889324,0.345,1.208,-0.483,138.2,75.1,-92.7,653,810,0
L,,3889384,-0.094,1.072,0.245,66.4,-40.6,-128.9,718,856,0
L,,3889444,-0.481,1.111,0.177,85.4,28.9,-63.4,749,890,0
L,,3889504,-0.015,0.989,0.163,15.4,-7.7,-40.1,755,895,0
L,,3889564,-0.183,1.014,0.316,11.4,-3.9,-17.9,762,900,0
L,,3889625,0.031,1.006,0.247,9.1,13.0,-17.5,747,898,0
L,,3889684,-0.150,0.976,0.304,22.4,12.9,-28.0,726,900,0
L,,3889744,-0.041,1.060,0.225,40.3,12.6,-53.4,665,904,0
L,,3889834,-0.068,1.361,0.220,80.7,32.0,-88.6,603,906,0
L,,3889894,0.194,1.930,0.383,125.0,87.4,-135.1,538,906,0
L,,3889954,1.219,1.756,-0.013,210.7,120.4,-178.6,320,903,0
L,,3890014,0.794,0.478,0.861,83.2,78.4,-40.1,570,788,0
L,,3890074,0.351,-0.135,0.659,-132.6,67.4,112.1,539,787,0
L,,3890134,0.549,0.277,0.229,-234.2,123.3,203.9,526,782,0
L,,3890194,0.801,1.237,0.245,-253.8,76.0,230.5,504,767,0
L,,3890254,0.094,2.691,-0.356,-345.1,-62.8,215.6,480,750,0
L,,3890314,-2.249,2.509,-0.726,-223.8,-54.3,114.1,482,776,0
L,,3890404,3.254,1.240,0.505,100.4,-150.5,-39.0,692,839,0
L,,3890464,-0.650,0.412,0.280,41.2,-59.7,-129.7,739,877,0
L,,3890524,-0.181,1.052,0.190,66.1,5.6,-50.1,746,886,0
L,,3890584,-0.017,0.946,0.197,15.1,-16.1,-43.4,753,892,0
L,,3890644,-0.074,1.044,0.293,21.1,11.4,-24.7,752,897,0
L,,3890734,-0.074,0.979,0.245,36.6,12.8,-35.9,698,901,0
L,,3890794,0.071,1.110,0.037,55.1,15.8,-57.3,601,908,0
L,,3890897,-0.042,1.625,0.429,120.8,12.7,-109.9,487,911,0
L,,3890915,0.127,1.735,0.445,138.7,31.7,-128.6,398,916,0
L,,3891004,-0.154,1.945,0.277,224.5,-51.8,-218.9,296,897,0
L,,3891064,-0.915,-1.323,0.273,32.4,-7.9,-16.8,555,786,0
L,,3891125,0.027,-0.184,0.427,-127.8,33.6,151.6,523,756,0
L,,3891184,0.264,0.305,0.340,-216.8,33.6,226.3,516,751,0
L,,3891244,0.250,1.564,0.406,-271.3,0.7,249.5,478,753,0
L,,3891304,-0.458,2.353,-0.240,-318.5,-65.3,215.3,482,770,0
L,,3891364,-2.134,2.517,-1.335,-133.4,92.8,100.8,465,783,0
L,,3891424,0.291,1.597,-0.456,133.9,-76.0,-149.7,629,773,0
L,,3891484,-0.215,1.488,0.376,61.3,16.1,-98.0,719,858,0
L,,3891544,-0.291,1.004,0.234,71.7,-1.6,-77.1,747,887,0
L,,3891604,0.033,1.014,0.187,27.0,-12.1,-42.8,758,900,0
L,,3891694,-0.128,1.017,0.286,20.3,4.3,-22.9,751,899,0
L,,3891754,-0.048,1.024,0.229,21.5,4.9,-30.6,729,902,0
L,,3891814,-0.098,1.012,0.235,31.6,12.8,-41.5,658,908,0
L,,3891904,-0.114,1.172,0.134,68.8,2.8,-78.0,538,909,0
L,,3891972,0.083,1.800,0.224,125.7,39.0,-134.6,424,912,0
L,,3892024,0.566,2.627,1.216,178.8,155.6,-113.6,315,911,0
L,,3892084,-0.448,1.268,0.411,136.6,30.4,-124.3,305,872,0
L,,3892144,1.056,-0.281,0.491,-39.4,78.2,59.2,525,783,0
L,,3892205,0.415,0.138,0.097,-200.4,53.0,128.3,536,771,0
L,,3892264,0.473,0.722,0.293,-271.8,-28.3,219.3,503,776,0
L,,3892324,0.236,2.171,-0.004,-296.6,-15.1,242.6,463,776,0
L,,3892384,-1.140,2.462,-0.331,-238.6,24.7,241.4,488,780,0
L,,3892444,-1.216,2.069,-1.829,-16.3,165.2,1.7,491,779,0
L,,3892504,-0.874,2.895,-1.187,153.5,3.7,-143.0,696,837,0
L,,3892564,-1.034,0.703,0.279,51.8,-55.8,-129.0,736,873,0
L,,3892625,-0.104,0.989,0.137,55.9,15.4,-46.4,753,892,0
L,,3892684,-0.105,0.952,0.256,14.3,-18.3,-37.3,761,902,0
L,,3892745,-0.180,1.011,0.331,5.5,10.8,-13.7,753,900,0
L,,3892804,-0.091,1.041,0.332,3.0,8.8,-18.2,732,901,0
L,,3892864,-0.058,0.963,0.286,15.4,17.5,-32.6,684,906,0
L,,3892955,-0.136,1.168,0.213,48.5,13.0,-70.5,631,907,0
L,,3893014,-0.176,1.416,0.409,83.3,41.4,-104.7,584,909,0
L,,3893074,0.310,2.016,0.577,116.4,115.5,-147.2,474,910,0
L,,3893134,0.006,1.672,-0.210,160.7,130.1,-214.5,307,898,0
L,,3893194,-0.211,-0.459,0.473,-36.4,168.7,-61.6,558,796,0
L,,3893254,0.553,-0.096,0.224,-180.6,77.7,59.7,523,770,0
