side,stage,device_ms,ax,ay,az,gx,gy,gz,toe,heel,phase
L,,337646,0.329,1.235,-0.239,96.1,15.1,29.5,380,798,0
L,,337670,-0.249,0.545,-0.245,85.5,18.8,28.7,447,793,0
L,,337680,-0.313,0.351,-0.185,63.0,23.3,20.4,555,795,0
L,,337690,-0.163,0.203,-0.260,44.9,30.1,25.7,581,812,0
L,,337700,0.149,0.262,-0.692,27.3,-16.3,27.2,541,813,0
L,,337710,0.084,0.125,0.189,-8.9,-47.9,8.0,523,816,0
L,,337720,-0.068,-0.057,0.408,-63.0,-42.8,-15.8,511,812,0
L,,337730,-0.081,0.044,0.453,-89.1,-49.0,-34.0,534,804,0
L,,337740,-0.160,-0.005,0.426,-108.5,-43.1,-41.6,540,804,0
L,,337750,-0.122,0.037,0.289,-126.0,-31.5,-38.7,540,808,0
L,,337760,-0.065,0.015,0.153,-149.1,-25.9,-30.1,545,805,0
L,,337770,-0.069,0.080,0.007,-170.3,-14.4,-32.2,553,806,0
L,,337780,-0.013,0.090,-0.052,-191.8,-14.2,-37.1,562,808,0
L,,337790,0.083,0.128,-0.014,-208.8,-27.5,-39.5,562,812,0
L,,337800,0.165,0.156,0.168,-236.6,-46.0,-46.5,557,814,0
L,,337810,0.178,0.214,0.209,-255.0,-66.9,-49.9,565,813,0
L,,337820,0.206,0.296,0.239,-270.0,-90.3,-48.6,568,816,0
L,,337830,0.126,0.429,0.212,-291.9,-103.3,-50.1,571,817,0
L,,337840,0.038,0.522,0.129,-306.4,-113.2,-43.4,574,822,0
L,,337850,-0.131,0.620,0.119,-323.1,-116.6,-37.0,568,830,0
L,,337860,-0.232,0.732,0.257,-352.3,-102.7,-29.2,565,834,0
L,,337870,-0.173,0.937,0.454,-355.7,-67.6,-25.6,553,841,0
L,,337880,-0.330,1.341,0.335,-339.0,-21.0,-25.6,540,832,0
L,,337890,-0.326,1.448,0.115,-324.1,6.8,-16.1,526,850,0
L,,337900,-0.397,1.393,0.000,-343.7,28.2,-2.2,501,853,0
L,,337910,-0.345,1.583,0.091,-354.6,60.4,-5.3,494,855,0
L,,337920,-0.137,1.851,0.060,-355.7,95.2,-14.4,499,860,0
L,,337930,0.017,1.960,0.043,-353.8,118.6,-14.4,497,860,0
L,,337940,0.063,2.031,-0.023,-351.4,128.4,-20.1,491,861,0
L,,337950,0.215,2.222,-0.083,-349.0,126.0,-29.4,494,861,0
L,,337960,0.311,2.177,-0.137,-343.0,114.0,-45.5,503,860,0
L,,337970,0.366,2.188,-0.230,-328.7,103.5,-49.9,509,860,0
L,,337980,0.409,2.171,-0.370,-308.1,93.2,-46.5,511,862,0
L,,337990,0.457,2.260,-0.477,-277.9,70.3,-38.9,508,863,0
L,,338000,0.486,2.202,-0.672,-239.8,42.1,-37.5,517,866,0
L,,338010,0.364,2.049,-0.933,-192.8,39.4,-38.5,518,862,0
L,,338020,0.296,1.821,-1.053,-151.5,31.7,-44.8,525,863,0
L,,338030,0.304,1.670,-1.209,-101.0,36.9,-38.0,538,864,0
L,,338040,0.509,1.606,-1.347,-45.9,36.0,-21.5,540,861,0
L,,338050,0.593,1.524,-1.357,19.4,29.7,-6.6,540,863,0
L,,338060,0.607,1.482,-1.288,66.1,8.1,1.5,550,863,0
L,,338070,0.547,1.488,-1.132,105.4,-24.5,6.4,607,839,0
L,,338080,0.381,1.741,-0.797,143.8,-32.6,15.7,686,862,0
L,,338090,0.053,1.006,0.819,123.6,-60.3,6.0,739,858,0
L,,338100,-0.508,0.414,2.257,82.4,-61.6,-15.0,760,873,0
L,,338110,-0.074,1.055,1.635,54.1,-39.1,-15.8,767,877,0
L,,338120,0.565,1.468,0.378,113.1,-33.6,8.9,778,880,0
L,,338359,-0.070,0.941,0.083,34.5,-11.7,-6.7,807,911,0
L,,338369,-0.107,1.004,0.181,26.5,-6.3,-10.0,801,911,0
L,,338379,-0.115,0.975,0.142,28.7,-5.3,-7.9,804,912,0
L,,338389,-0.119,1.002,0.188,24.7,-0.7,-4.5,805,911,0
L,,338399,-0.157,0.974,0.220,22.1,10.5,-1.6,805,912,0
L,,338409,-0.177,0.991,0.149,23.5,18.9,-1.4,802,912,0
L,,338419,-0.128,0.974,0.140,24.0,32.9,3.0,805,912,0
L,,338429,-0.112,0.992,0.130,22.4,37.8,3.2,803,911,0
L,,338439,-0.049,1.014,0.145,21.4,37.8,2.4,804,912,0
L,,338449,-0.041,0.998,0.103,21.9,32.2,5.8,803,912,0
L,,338459,-0.086,0.997,0.154,23.3,27.4,6.5,804,911,0
L,,338469,-0.066,1.003,0.108,24.9,18.9,7.9,804,913,0
L,,338479,-0.067,1.013,0.133,23.7,14.9,7.4,805,914,0
L,,338489,-0.085,1.035,0.162,21.7,12.4,5.0,804,915,0
L,,338499,-0.114,1.049,0.158,23.3,14.4,5.4,804,913,0
L,,338509,-0.083,1.031,0.185,28.2,17.3,6.8,799,913,0
L,,338519,-0.052,0.989,0.144,33.7,10.0,11.1,798,915,0
L,,338529,-0.140,1.043,0.142,36.0,17.2,10.5,796,915,0
L,,338539,-0.117,1.030,0.174,39.2,19.8,10.0,795,915,0
L,,338549,-0.094,1.040,0.132,47.1,23.1,12.4,793,915,0
L,,338559,-0.118,1.054,0.170,49.9,30.1,9.3,790,913,0
L,,338569,-0.081,1.049,0.140,54.6,31.0,8.9,785,916,0
L,,338579,-0.073,1.050,0.119,57.2,29.9,6.8,780,914,0
L,,338589,-0.037,1.054,0.097,62.3,29.5,8.1,774,914,0
L,,338599,-0.109,1.060,0.062,66.7,29.1,6.8,767,916,0
L,,338609,-0.002,1.072,0.132,64.8,31.0,5.8,755,915,0
L,,338619,-0.081,1.042,0.085,71.4,28.8,6.1,738,914,0
L,,338629,-0.031,1.037,0.075,74.8,28.8,8.8,717,915,0
L,,338639,-0.071,1.054,0.028,78.9,28.5,11.2,687,915,0
L,,338649,-0.076,1.117,0.041,79.2,29.6,6.7,658,916,0
L,,338659,-0.044,1.077,0.002,85.8,21.4,10.3,603,916,0
L,,338669,-0.043,1.100,0.041,86.5,20.7,11.5,527,915,0
L,,338679,-0.012,1.163,0.003,90.5,18.4,12.1,516,917,0
L,,338689,0.010,1.201,0.013,92.4,15.6,13.2,517,920,0
L,,338699,0.039,1.208,-0.017,95.4,12.4,14.4,498,919,0
L,,338709,0.042,1.221,-0.008,99.7,11.6,15.3,491,917,0
L,,338719,0.039,1.233,0.005,102.4,11.6,15.7,497,919,0
L,,338729,0.041,1.248,0.012,107.3,11.0,15.2,478,920,0
L,,338739,0.062,1.241,0.006,113.7,10.8,16.8,443,921,0
L,,338749,0.110,1.249,0.062,117.0,7.9,18.9,448,918,0
L,,338759,0.036,1.391,0.101,127.1,11.2,16.6,419,919,0
L,,338769,0.069,1.361,0.085,132.8,3.0,21.7,416,917,0
L,,338779,0.092,1.449,0.137,142.3,3.4,22.8,391,919,0
L,,338789,0.115,1.532,0.188,150.5,-1.4,26.0,360,917,0
L,,338799,0.108,1.593,0.330,159.5,-8.3,28.2,322,919,0
L,,338809,0.068,1.653,0.332,164.9,-7.1,27.7,318,919,0
L,,339048,-0.042,0.142,0.106,-158.9,21.8,-19.2,520,814,0
L,,339058,0.067,0.239,0.101,-181.4,17.3,-24.5,527,815,0
L,,339068,0.142,0.231,0.079,-202.1,9.8,-26.2,537,812,0
L,,339078,0.251,0.264,0.140,-218.8,-8.6,-23.4,544,812,0
L,,339088,0.276,0.365,0.113,-234.7,-32.1,-19.6,555,814,0
L,,339098,0.168,0.417,0.133,-257.6,-47.5,-23.1,556,817,0
L,,339108,0.029,0.459,0.167,-274.9,-56.0,-23.3,564,821,0
L,,339118,-0.103,0.611,0.122,-289.4,-55.6,-21.6,564,822,0
L,,339128,-0.223,0.736,0.102,-300.9,-46.6,-18.4,562,826,0
L,,339138,-0.259,0.853,0.108,-307.1,-37.3,-15.7,558,830,0
L,,339148,-0.242,0.985,0.140,-315.0,-25.1,-13.3,546,833,0
L,,339158,-0.203,1.099,0.170,-320.7,-12.4,-10.0,535,839,0
L,,339168,-0.182,1.241,0.212,-325.4,5.1,-11.7,511,843,0
L,,339178,-0.154,1.351,0.180,-327.8,16.7,-15.1,500,846,0
L,,339188,-0.163,1.539,0.087,-335.0,26.4,-18.4,489,850,0
L,,339234,0.131,2.071,-0.120,-339.7,49.4,-44.5,458,856,0
L,,339293,0.374,1.967,-1.051,-161.3,-25.2,-39.9,473,856,0
L,,339384,-0.422,0.992,2.161,28.3,-82.8,-28.9,771,877,0
L,,339444,0.194,0.894,0.134,150.3,-0.9,-5.1,790,893,0
L,,339504,-0.049,0.964,0.091,50.9,-24.2,-19.1,800,906,0
L,,339564,0.022,1.030,0.219,48.7,0.7,-7.0,802,909,0
L,,339654,-0.051,0.983,0.163,37.1,-9.2,2.7,804,911,0
L,,339714,-0.041,1.001,0.134,29.1,10.0,10.5,803,913,0
L,,339774,-0.021,1.033,0.120,34.0,14.2,14.9,794,916,0
L,,339833,0.019,1.057,0.133,46.3,12.6,17.1,769,915,0
L,,339894,0.087,1.055,0.065,73.9,5.1,21.2,685,914,0
L,,339954,0.116,1.208,0.010,104.9,-14.4,29.9,473,919,0
L,,340014,0.079,1.413,0.108,134.6,-16.1,48.8,391,920,0
L,,340074,0.591,1.964,0.786,192.0,-53.4,88.6,347,917,0
L,,340134,0.235,1.545,-0.083,176.0,-27.8,92.5,481,907,0
L,,340194,-0.202,0.404,-0.382,57.4,-57.8,54.1,459,794,0
L,,340254,-0.641,0.201,0.454,-118.2,-109.2,39.3,542,830,0
L,,340314,-0.470,0.261,-0.143,-193.2,44.0,45.0,527,798,0
L,,340374,-0.100,0.784,-0.106,-276.2,-11.4,17.5,522,768,0
L,,340434,0.006,1.412,-0.142,-317.6,-128.8,-60.4,540,809,0
L,,340494,-0.244,1.562,0.082,-336.8,-201.3,-73.8,482,842,0
L,,340554,-0.804,2.053,-0.929,-187.1,-37.7,-22.0,495,855,0
L,,340614,0.684,1.736,-0.792,102.3,-13.9,-14.4,626,842,0
L,,340674,0.464,1.867,-0.052,157.9,-80.2,-30.6,786,889,0
L,,340734,0.071,0.928,-0.179,105.7,-82.3,-49.9,793,899,0
L,,340794,-0.034,0.966,0.179,50.6,-5.8,-5.9,800,907,0
L,,340884,0.013,0.960,0.185,30.4,-8.1,-6.9,804,909,0
L,,340974,-0.021,1.013,0.139,24.2,14.6,1.4,803,912,0
L,,341034,0.031,1.029,0.158,29.3,10.5,14.2,801,914,0
L,,341094,0.043,1.034,0.133,42.7,16.5,11.7,789,915,0
L,,341154,0.059,1.063,0.189,66.3,17.6,15.4,749,915,0
L,,341899,1.198,1.436,0.080,126.0,-183.2,-18.9,746,876,0
L,,341909,0.723,0.209,2.385,69.3,-226.9,-31.7,766,876,0
L,,341934,0.468,1.953,0.188,112.2,-213.0,-54.6,784,883,0
L,,341994,0.101,0.967,-0.360,141.8,-38.2,-78.0,790,896,0
L,,342054,-0.026,0.964,0.148,98.6,-6.6,21.0,798,906,0
L,,342114,0.012,1.070,0.214,46.2,-0.1,-11.2,801,910,0
L,,342174,-0.019,1.000,0.088,36.2,-17.3,0.9,800,911,0
L,,342234,-0.009,1.002,0.130,21.9,-3.2,3.5,798,913,0
L,,342324,0.000,1.046,0.146,45.1,10.0,11.5,775,914,0
L,,342384,0.075,1.055,0.098,65.5,8.8,13.9,698,912,0
L,,342444,0.178,1.148,0.043,104.5,-2.0,25.7,487,917,0
L,,342504,0.161,1.314,0.035,132.2,-18.9,40.5,353,919,0
L,,342593,-0.021,1.925,0.913,194.2,-11.3,64.1,340,911,0
L,,342654,0.114,1.393,-0.626,188.0,-24.0,101.5,469,889,0
L,,342714,-0.170,0.343,-0.182,43.8,-72.5,49.9,488,844,0
L,,342774,-0.180,0.100,-0.015,-110.2,-75.3,21.4,479,828,0
L,,342834,-0.125,0.388,0.131,-224.7,-91.2,21.6,498,831,0
L,,342894,-0.154,1.005,-0.102,-289.3,-88.7,12.6,536,843,0
L,,342984,-0.346,1.576,-0.012,-319.8,-77.4,-14.7,495,855,0
L,,343044,-0.209,2.064,-0.389,-253.0,-44.8,-37.8,506,852,0
L,,343104,0.264,1.564,-1.220,-39.8,-24.6,-44.0,521,860,0
L,,343165,0.219,0.387,2.357,32.8,-77.3,-13.3,762,872,0
L,,343224,0.323,1.134,0.001,164.2,22.4,-11.6,790,890,0
L,,343284,-0.057,0.910,0.163,59.2,-40.4,-41.5,796,902,0
L,,343344,0.020,1.011,0.178,52.0,-5.3,-11.2,801,907,0
L,,343404,-0.012,0.991,0.154,42.4,-2.1,-10.4,806,909,0
L,,343464,-0.051,0.978,0.100,31.2,-3.9,-2.4,806,911,0
L,,343524,-0.038,0.977,0.129,18.6,7.4,2.0,804,911,0
L,,343584,-0.002,1.052,0.109,22.3,10.2,10.5,800,913,0
L,,343644,0.007,1.033,0.123,40.9,7.4,12.3,788,915,0
L,,343705,0.032,1.058,0.094,70.0,7.0,16.2,735,913,0
L,,343764,0.169,1.209,0.103,102.5,-1.0,28.6,517,914,0
L,,343824,0.189,1.408,0.116,144.5,-14.6,56.2,372,917,0
L,,343884,0.315,2.064,0.942,200.1,-69.6,77.7,352,916,0
L,,343944,-0.079,1.417,-0.334,185.1,-12.1,90.4,475,897,0
L,,344004,-0.617,0.459,0.302,55.3,-120.4,38.7,544,824,0
L,,344064,-0.562,0.042,0.241,-89.3,-25.0,60.2,515,815,0
L,,344125,-0.129,0.171,0.051,-231.1,-47.3,42.6,522,798,0
L,,344184,-0.311,0.869,0.013,-307.4,-113.2,34.3,554,805,0
L,,344245,-0.251,1.502,0.150,-349.8,-183.9,-28.9,532,827,0
L,,344304,-0.295,2.212,-0.253,-326.2,-147.3,-26.1,446,841,0
L,,344394,0.268,1.585,-1.352,53.9,-3.4,-27.5,507,850,0
L,,344455,0.239,1.700,0.381,97.2,-56.9,-35.6,779,882,0
L,,344544,0.057,0.918,-0.092,60.6,-4.4,-34.7,798,905,0
L,,344604,0.065,0.989,0.147,50.6,-7.7,-10.4,804,909,0
L,,344665,0.028,1.015,0.155,33.5,-9.1,-1.1,803,912,0
L,,345199,0.126,1.142,-0.127,97.2,-119.8,66.5,445,839,0
L,,345209,-0.089,0.718,-0.066,85.0,-128.7,46.6,417,826,0
L,,345234,-0.277,0.576,-0.162,32.1,-79.7,61.3,519,837,0
L,,345294,-0.339,0.031,0.160,-140.4,-75.6,41.6,492,828,0
L,,345354,-0.150,0.317,0.000,-248.1,-83.2,18.2,511,813,0
L,,345415,-0.238,0.918,-0.041,-311.8,-105.6,4.7,525,824,0
L,,345474,-0.366,1.527,-0.012,-344.7,-131.3,-28.6,484,844,0
L,,345535,-0.379,2.252,-0.316,-299.3,-64.2,-26.1,478,853,0
L,,345594,0.061,1.688,-1.129,-84.0,128.1,-33.6,466,861,0
L,,345654,0.486,1.422,-0.281,122.2,-13.9,4.5,611,847,0
L,,345745,0.200,1.244,-0.090,159.6,-14.2,-17.4,790,893,0
L,,345804,-0.150,0.870,0.100,79.9,-33.1,-20.2,800,907,0
L,,345864,0.006,0.997,0.145,33.6,-8.2,-20.8,803,910,0
L,,345924,-0.064,0.966,0.147,23.1,-3.9,-14.9,805,912,0
L,,345984,-0.080,0.995,0.185,20.5,10.9,-3.5,802,911,0
L,,346044,-0.070,1.021,0.157,39.3,6.5,-0.4,798,913,0
L,,346134,-0.028,1.034,0.059,49.2,9.5,0.5,771,916,0
L,,346194,-0.033,1.035,0.005,67.6,19.0,1.8,664,913,0
L,,346285,-0.047,1.196,-0.010,92.8,3.1,8.9,441,918,0
L,,346344,0.036,1.374,0.086,132.6,10.2,20.5,376,917,0
L,,346404,0.045,1.827,0.472,177.6,-1.6,26.8,330,917,0
L,,346464,0.458,1.332,-0.467,209.7,93.7,94.5,487,903,0
L,,346524,-0.247,0.470,-0.072,98.2,50.5,23.8,446,836,0
L,,346584,-0.191,0.077,0.457,-96.1,28.4,-53.4,444,840,0
L,,346644,0.483,0.136,0.159,-217.9,15.9,-56.4,474,833,0
L,,346705,0.006,0.816,0.225,-325.5,-57.1,-66.5,506,840,0
L,,346794,0.527,2.292,-0.307,-332.7,131.6,-29.8,435,864,0
L,,346854,0.392,2.069,-1.060,-164.9,0.5,-0.4,452,863,0
L,,346915,0.298,1.837,-1.015,103.4,76.6,26.7,583,823,0
L,,347004,0.271,1.179,0.163,164.2,-77.8,-0.6,790,889,0
L,,347064,-0.176,0.989,0.077,53.4,-21.5,-13.9,798,904,0
L,,347125,-0.031,1.002,0.194,32.2,5.6,-5.6,802,905,0
L,,347184,-0.137,0.985,0.180,25.5,-4.6,-11.6,805,908,0
L,,347245,-0.179,1.036,0.140,25.8,25.6,1.1,806,912,0
L,,347334,-0.078,1.041,0.122,45.0,19.3,8.4,801,913,0
L,,347424,-0.078,1.048,0.051,66.0,21.1,3.9,757,915,0
L,,347514,0.079,1.167,0.002,98.2,14.6,4.1,525,916,0
L,,347575,-0.006,1.333,0.018,130.9,16.4,9.4,445,918,0
L,,347634,-0.013,2.078,0.630,179.4,7.4,36.5,332,920,0
L,,347694,0.416,1.223,-0.048,177.1,80.9,45.0,473,907,0
L,,347785,0.076,0.454,-0.895,21.8,-33.6,-35.2,497,817,0
L,,347887,0.346,0.262,0.159,-222.6,28.4,-55.0,524,815,0
L,,347904,0.226,0.520,0.096,-251.2,6.5,-57.6,524,820,0
L,,347964,-0.119,1.194,0.062,-295.6,51.8,-30.0,474,848,0
L,,348024,0.274,1.757,-0.065,-296.8,155.6,-47.6,440,859,0
L,,348115,0.447,1.692,-0.745,-123.4,75.9,-25.1,476,856,0
L,,348619,-0.163,1.055,0.180,49.0,15.2,9.8,801,916,0
L,,348629,-0.195,1.062,0.159,51.0,21.0,6.7,794,915,0
L,,348655,-0.087,0.995,0.062,60.6,19.4,7.7,787,915,0
L,,348714,-0.076,0.999,0.019,65.1,23.5,3.9,730,914,0
L,,348774,-0.057,1.104,-0.018,75.7,30.5,3.7,524,917,0
L,,348833,-0.079,1.223,0.012,101.9,14.2,8.7,465,919,0
L,,348894,0.044,1.714,0.187,157.7,5.6,14.6,383,919,0
L,,348955,-0.310,1.686,0.870,182.9,142.9,6.4,362,916,0
L,,349014,-0.053,1.484,-0.181,171.9,116.7,16.1,438,869,0
L,,349075,-0.002,-0.010,0.319,9.2,65.3,-56.3,433,833,0
L,,349134,0.375,0.082,0.079,-129.5,61.1,-83.3,512,827,0
L,,349195,0.142,0.480,0.191,-268.5,-51.9,-102.9,529,837,0
L,,349254,0.112,1.271,0.243,-308.7,88.2,-42.9,492,852,0
L,,349344,0.865,2.021,-0.350,-290.0,139.3,-47.1,452,869,0
L,,349405,0.383,1.592,-0.992,-112.0,40.3,-14.2,454,866,0
L,,349495,-0.672,0.525,1.457,34.1,27.2,-5.8,763,876,0
L,,349554,0.286,1.407,-0.071,126.7,-126.7,18.9,793,895,0
L,,349615,-0.253,1.025,0.147,29.0,11.0,-25.0,800,905,0
L,,349674,-0.194,0.944,0.184,51.5,7.0,20.1,806,911,0
L,,349734,-0.166,0.950,0.128,25.3,8.6,4.4,807,911,0
L,,349794,-0.165,0.996,0.124,19.3,13.8,6.5,806,911,0
L,,349854,-0.171,1.008,0.130,26.2,29.9,13.2,806,911,0
L,,349915,-0.228,1.034,0.198,35.7,9.5,10.5,803,914,0
L,,349974,-0.133,1.057,0.106,65.3,16.2,12.7,791,915,0
L,,350035,-0.135,1.122,0.034,89.5,16.3,10.0,725,913,0
L,,350094,-0.066,1.225,-0.077,109.2,8.7,14.8,449,917,0
L,,350155,0.000,1.452,0.106,135.5,5.8,19.3,389,919,0
L,,350214,-0.472,2.152,0.845,198.5,17.4,4.3,308,916,0
L,,350274,0.269,1.168,-0.480,221.3,207.5,51.8,464,903,0
L,,350334,-0.365,0.098,0.177,45.9,153.7,-47.8,542,829,0
L,,350394,0.383,0.024,0.244,-82.1,36.9,-109.3,521,824,0
L,,350455,0.324,0.169,0.176,-227.3,-51.1,-132.3,555,835,0
L,,350544,0.016,1.358,0.313,-311.2,73.5,-46.7,460,858,0
L,,350604,0.509,1.948,0.079,-323.5,190.3,-40.0,439,868,0
L,,350664,0.548,2.002,-0.729,-210.9,-27.5,-32.7,451,862,0
L,,350754,-0.511,0.557,1.833,95.9,-2.1,15.1,757,876,0
L,,350814,0.276,1.382,0.064,163.4,-69.6,28.0,792,892,0
L,,350875,-0.243,0.952,0.068,66.4,-30.9,-21.4,799,907,0
L,,350934,-0.108,0.932,0.154,57.6,6.5,15.6,804,910,0
L,,350995,-0.190,0.993,0.145,27.5,-7.1,0.0,807,911,0
L,,351054,-0.190,0.991,0.118,26.3,20.8,6.6,806,913,0
L,,351144,-0.090,1.004,0.162,34.9,20.6,9.2,803,914,0
L,,351205,-0.203,1.039,0.130,52.4,9.8,1.0,792,915,0
L,,351264,-0.116,1.000,-0.010,66.8,21.6,0.3,755,916,0
L,,351354,-0.123,1.170,-0.044,85.6,25.9,3.2,489,917,0
L,,351415,-0.091,1.388,0.022,119.2,32.7,2.1,407,917,0
L,,352129,-0.131,0.994,0.061,70.2,-68.6,-16.8,799,904,0
L,,352139,-0.073,0.891,0.081,64.4,-47.0,-13.5,798,901,0
L,,352195,-0.139,0.935,0.121,48.7,0.4,7.7,804,907,0
L,,352285,-0.174,0.950,0.142,14.7,16.1,4.7,807,910,0
L,,352344,-0.272,1.034,0.183,22.1,33.8,15.2,808,909,0
L,,352405,-0.091,0.992,0.205,38.4,33.3,21.2,807,909,0
L,,352464,-0.160,1.057,0.223,51.7,2.5,13.8,806,912,0
L,,352525,-0.084,1.052,0.042,71.1,17.6,11.2,784,916,0
L,,352627,0.009,1.170,0.020,84.4,14.9,16.5,507,919,0
L,,352644,0.016,1.152,-0.012,90.3,11.1,19.6,488,918,0
L,,352705,0.106,1.384,0.106,127.9,-1.5,38.4,413,920,0
L,,352764,-0.034,1.862,0.714,180.3,22.5,21.8,356,920,0
L,,352825,0.277,1.788,-0.485,199.5,82.7,88.8,467,903,0
L,,352884,-0.399,0.250,0.011,52.0,71.4,-12.5,526,821,0
L,,352945,-0.095,0.083,0.347,-84.7,39.5,-76.7,520,825,0
L,,353004,0.381,0.125,0.183,-210.6,-3.5,-89.8,527,823,0
L,,353094,-0.223,1.303,0.115,-311.9,43.6,-32.1,496,858,0
L,,353155,0.470,2.105,0.017,-328.4,164.0,-34.6,434,865,0
L,,353214,0.794,1.870,-0.693,-197.2,-20.8,-31.6,477,867,0
L,,353275,0.179,1.616,-0.940,47.2,-47.7,-2.3,569,841,0
L,,353334,0.309,1.720,0.343,123.1,-1.8,17.9,780,881,0
L,,353394,-0.066,0.909,-0.169,98.7,-33.6,-31.0,793,896,0
L,,353455,-0.142,0.956,0.156,38.6,-17.8,-9.6,800,905,0
L,,353544,-0.082,0.994,0.192,30.2,3.0,-2.5,805,909,0
L,,353634,-0.087,1.012,0.173,39.4,25.9,13.7,806,910,0
L,,353695,-0.068,1.025,0.142,39.2,14.4,15.7,799,914,0
L,,353754,-0.034,1.013,0.164,48.7,23.1,21.1,780,915,0
L,,353815,0.006,1.095,0.085,74.6,21.0,22.1,693,912,0
L,,353875,0.097,1.246,0.051,105.0,2.0,31.3,458,920,0
L,,353964,0.126,1.657,0.301,171.5,-26.0,53.1,329,917,0
L,,354054,0.016,1.387,-0.206,208.8,146.7,94.4,456,907,0
L,,354115,-0.497,0.599,-0.003,73.0,13.5,9.5,515,806,0
L,,354174,-0.163,-0.018,0.316,-95.5,-27.4,-10.9,497,816,0
L,,354264,-0.029,0.348,0.133,-271.3,-102.2,-41.3,544,815,0
L,,354324,-0.215,1.224,0.269,-332.2,-93.9,-27.3,512,836,0
L,,354384,-0.400,1.920,-0.002,-353.8,42.4,-40.1,450,860,0
L,,354445,0.421,2.270,-0.754,-230.3,27.5,-36.7,481,859,0
L,,354504,0.764,1.546,-1.425,55.0,-71.0,-28.7,504,857,0
L,,354565,0.250,1.879,0.467,136.3,-19.0,-1.6,786,885,0
L,,354625,0.087,0.955,-0.252,126.9,-82.0,-43.6,795,900,0
L,,354684,-0.226,0.980,0.286,89.5,-6.7,1.8,801,909,0
L,,354745,0.021,1.040,0.131,47.3,12.4,-0.7,803,912,0
L,,354804,-0.023,0.992,0.070,29.2,-20.6,0.2,799,913,0
L,,354895,-0.022,1.034,0.130,35.2,7.4,7.4,783,915,0
L,,354955,-0.048,1.049,0.106,53.5,11.2,12.0,737,911,0
L,,355044,0.040,1.128,0.042,74.4,15.5,19.8,451,919,0
L,,355549,-0.335,1.286,-0.066,-331.3,-41.3,-5.1,513,853,0
L,,355559,-0.293,1.487,0.048,-340.8,-8.9,-6.5,504,852,0
L,,355584,-0.241,1.829,-0.048,-343.8,56.0,-26.7,485,857,0
L,,355674,0.496,1.873,-0.637,-184.5,93.1,-41.3,500,862,0
L,,355735,0.750,1.277,-0.905,70.0,8.2,-2.5,521,853,0
L,,355794,-0.493,0.845,1.296,47.9,-29.8,-26.8,764,871,0
L,,355855,-0.036,1.577,-0.349,159.6,-110.8,-16.1,792,897,0
L,,355915,-0.109,0.896,0.038,70.7,-25.9,-3.4,801,906,0
L,,355975,-0.020,0.967,0.133,54.8,-0.1,3.6,805,908,0
L,,356065,-0.075,0.997,0.090,22.2,10.9,-3.9,802,911,0
L,,356125,-0.117,1.043,0.167,26.1,13.4,5.1,798,913,0
L,,356185,-0.104,1.065,0.106,46.6,15.5,10.3,784,914,0
L,,356275,-0.101,1.037,0.018,64.6,20.5,6.7,657,914,0
L,,356334,-0.068,1.170,0.052,81.3,20.9,1.8,467,920,0
L,,356395,0.007,1.212,0.010,110.8,8.2,13.1,406,920,0
L,,356485,-0.200,1.855,0.292,182.7,5.4,13.0,271,913,0
L,,356587,0.004,1.115,-0.024,130.2,126.7,41.7,460,868,0
L,,356605,-0.172,0.495,-0.233,100.5,148.4,-16.8,396,841,0
L,,356695,0.031,0.123,0.219,-154.7,-48.3,-99.7,509,824,0
L,,356754,-0.141,0.589,0.077,-253.7,-22.6,-83.3,543,838,0
L,,356815,0.251,1.199,0.076,-293.0,108.8,-53.3,520,851,0
L,,356875,0.394,1.537,-0.017,-302.4,109.4,-87.4,502,857,0
L,,356935,0.602,1.926,-0.189,-260.4,71.6,-50.4,517,857,0
L,,356995,0.192,1.262,-1.224,-44.3,57.0,-3.2,508,859,0
L,,357054,-0.924,0.662,1.481,78.1,41.3,-7.9,746,872,0
L,,357115,0.395,1.645,-0.484,146.1,-109.4,32.2,791,894,0
L,,357174,-0.216,0.925,0.106,49.5,-37.3,-27.3,799,905,0
L,,357265,-0.121,1.028,0.165,37.0,7.0,7.5,808,912,0
L,,357355,-0.223,0.991,0.192,21.7,30.8,18.7,805,914,0
L,,357444,-0.078,0.983,0.106,45.0,15.0,14.2,796,915,0
L,,357504,-0.164,1.034,0.143,54.1,24.5,6.0,755,915,0
L,,357565,-0.136,1.063,-0.020,68.6,35.0,5.1,554,917,0
L,,357625,-0.115,1.162,-0.113,78.7,30.8,5.4,475,919,0
L,,357685,-0.005,1.291,0.090,115.5,26.6,10.2,430,918,0
L,,357745,0.075,1.705,0.446,181.4,35.4,19.4,299,919,0
L,,357834,0.210,1.881,-0.545,208.3,71.6,67.0,481,893,0
L,,357895,0.202,0.262,-0.650,35.2,98.5,-3.0,550,827,0
L,,357955,-0.346,-0.122,0.464,-124.7,-58.5,-73.7,470,833,0
L,,358015,0.436,0.299,0.061,-230.3,43.8,-52.7,524,830,0
L,,358075,-0.120,1.108,0.051,-301.0,32.1,-51.3,516,838,0
L,,358134,0.079,1.659,-0.188,-296.1,131.8,-47.3,477,856,0
L,,358225,0.498,1.903,-0.445,-198.5,81.7,-32.8,507,859,0
L,,358285,0.080,1.397,-1.165,42.7,3.9,7.6,483,855,0
L,,358344,-0.048,1.317,0.612,88.1,-22.3,-3.9,779,880,0
L,,358405,-0.280,0.992,-0.103,134.2,-106.0,-20.5,795,899,0
L,,358464,-0.158,0.964,0.129,75.5,10.8,5.8,805,909,0
L,,359000,0.036,1.388,0.189,152.7,20.5,14.4,353,922,0
L,,359010,0.043,1.496,0.257,163.0,22.9,16.1,339,920,0
L,,359035,-0.099,1.806,0.637,173.6,48.3,18.8,346,920,0
L,,359095,0.435,2.147,-0.927,253.4,117.5,72.9,512,904,0
L,,359198,0.027,0.032,0.269,-29.4,74.9,-75.8,385,843,0
L,,359214,0.194,0.012,0.011,-62.0,97.6,-67.4,399,843,0
L,,359305,0.185,0.316,0.047,-219.6,21.5,-87.6,436,860,0
L,,359365,0.323,0.778,0.072,-292.5,11.3,-57.1,461,857,0
L,,359424,-0.038,1.312,0.128,-331.3,69.8,-21.5,453,860,0
L,,359485,0.400,2.119,-0.299,-315.0,137.9,-14.9,446,851,0
L,,359544,0.587,1.875,-1.183,-118.9,82.3,-3.5,430,856,0
L,,359605,0.271,0.813,0.426,112.3,-26.3,24.8,702,862,0
L,,359665,-0.014,1.959,-0.176,150.9,38.7,33.1,789,892,0
L,,359725,-0.093,0.882,0.088,68.0,-47.4,-15.4,799,903,0
L,,359785,-0.182,0.964,0.183,47.1,3.4,6.7,803,908,0
L,,359845,-0.149,0.998,0.212,37.3,15.8,4.4,806,910,0
L,,359935,-0.153,0.990,0.105,45.2,3.1,11.9,807,911,0
L,,359995,-0.386,1.091,-0.064,32.0,64.6,21.3,800,915,0
L,,360055,-0.062,1.046,0.139,55.3,22.1,5.2,776,915,0
L,,360115,-0.104,1.080,0.078,81.1,30.0,4.7,670,915,0
L,,360174,0.050,1.240,0.062,103.7,13.3,7.9,532,919,0
L,,360235,-0.051,1.381,0.130,147.0,12.6,15.1,433,920,0
L,,360294,0.184,1.825,0.689,203.9,34.5,40.0,333,922,0
L,,360355,0.350,1.662,-0.732,233.3,102.3,103.6,501,908,0
L,,360415,-0.377,0.517,-0.418,101.8,29.1,-12.8,411,846,0
L,,360504,0.009,0.046,0.067,-142.0,24.4,-23.9,394,834,0
L,,360565,0.056,0.478,0.059,-256.9,-19.8,-29.5,445,832,0
L,,360625,0.027,0.993,-0.003,-318.5,-12.6,-39.4,426,842,0
L,,360714,0.382,2.069,-0.484,-347.9,48.9,-29.8,436,847,0
L,,360775,0.209,1.952,-1.481,-158.8,-7.7,-49.9,448,848,0
L,,360834,0.368,1.669,-0.743,135.8,-15.1,36.7,530,805,0
L,,360895,-0.073,1.535,-0.036,136.2,47.1,4.9,785,887,0
L,,360985,-0.109,0.920,0.099,66.0,-3.2,-8.0,802,907,0
L,,361044,-0.062,0.955,0.142,50.1,-3.0,-0.1,805,911,0
L,,361105,-0.097,0.981,0.191,21.2,16.0,-11.8,806,911,0
L,,361165,-0.112,1.020,0.067,24.9,15.1,9.3,805,914,0
L,,361225,-0.081,1.024,0.192,41.1,22.5,16.3,797,915,0
L,,361315,-0.077,1.029,0.099,58.7,24.7,10.8,746,913,0
L,,361375,-0.018,1.061,0.046,74.2,26.9,12.1,600,914,0
L,,361435,0.054,1.140,-0.018,89.7,6.3,16.1,539,917,0
L,,361495,0.071,1.278,0.049,115.6,-2.4,27.0,431,917,0
L,,361584,0.072,1.932,0.731,185.6,-23.1,48.1,291,918,0
L,,361645,0.039,1.582,-0.357,194.3,40.1,74.7,462,904,0
L,,361735,-0.121,0.096,0.082,-10.7,-59.0,23.8,491,816,0
L,,361794,-0.231,0.104,-0.120,-134.2,-7.2,13.7,513,806,0
L,,361855,-0.049,0.378,-0.152,-221.4,-24.7,15.8,524,797,0
L,,362360,-0.039,0.973,0.193,52.5,14.2,-2.3,807,910,0
L,,362370,0.010,0.976,0.200,49.8,19.3,-3.9,803,908,0
L,,362425,-0.108,0.908,0.177,34.9,-13.5,-9.5,805,907,0
L,,362485,-0.104,0.981,0.168,33.5,18.1,-4.4,802,907,0
L,,362544,-0.069,1.005,0.116,41.0,24.9,3.2,806,910,0
L,,362605,-0.137,1.063,0.097,35.0,15.6,7.5,804,913,0
L,,362665,-0.089,1.073,0.140,69.3,24.5,8.6,785,916,0
L,,362725,-0.008,1.112,0.072,103.1,14.4,10.7,653,915,0
L,,362785,-0.010,1.485,0.087,129.4,9.8,17.2,439,919,0
L,,362845,0.040,1.864,0.366,181.5,-5.7,29.6,328,915,0
L,,362905,-0.291,1.460,0.739,204.8,133.4,6.0,403,910,0
L,,362965,0.265,0.913,-0.082,151.6,112.2,31.0,408,837,0
L,,363025,0.171,-0.150,0.496,-38.0,94.1,-28.4,519,790,0
L,,363084,0.301,0.091,-0.053,-169.8,-32.2,-72.3,558,799,0
L,,363145,0.002,0.413,0.217,-301.4,-143.2,-80.5,563,819,0
L,,363204,-0.184,1.427,0.098,-303.0,37.9,1.8,517,844,0
L,,363265,0.166,1.947,-0.198,-339.1,111.8,-38.9,523,845,0
L,,363325,0.529,2.061,-0.611,-224.0,-11.2,-53.3,531,841,0
L,,363385,0.620,1.517,-1.443,108.9,61.0,35.0,567,832,0
L,,363475,0.441,1.483,-0.103,191.9,-69.7,24.9,791,894,0
L,,363535,-0.242,0.991,-0.062,91.9,-60.4,-11.7,799,906,0
L,,363595,-0.091,0.938,0.188,47.5,18.9,8.2,805,911,0
L,,363685,-0.211,0.954,0.185,43.2,-1.4,-7.2,808,911,0
L,,363745,-0.075,1.007,0.186,37.8,29.9,7.9,804,913,0
L,,363805,-0.176,1.028,0.145,35.7,26.7,5.6,798,915,0
L,,363895,-0.122,1.043,0.088,62.1,26.0,3.2,744,914,0
L,,363985,-0.021,1.143,0.000,94.0,23.7,7.7,492,919,0
L,,364045,-0.083,1.297,0.090,124.8,18.2,10.5,415,920,0
L,,364135,-0.431,1.961,1.041,197.3,66.5,7.7,295,916,0
L,,364195,0.205,1.587,-0.522,187.8,113.1,63.2,492,894,0
L,,364255,-0.268,0.044,0.241,55.7,80.7,-70.4,426,861,0
L,,364315,0.498,0.001,0.125,-111.7,42.7,-77.0,406,847,0
L,,364375,0.066,0.382,0.112,-246.8,-44.4,-79.6,446,853,0
L,,364435,0.288,1.104,0.003,-285.8,76.5,-42.7,459,859,0
L,,364495,0.450,1.463,-0.121,-292.1,68.8,-48.9,445,863,0
L,,364555,0.353,1.673,-0.181,-278.1,56.8,-39.2,474,862,0
L,,364645,0.490,1.430,-1.077,-9.1,59.7,12.4,462,863,0
L,,364705,-1.270,0.656,1.511,28.7,79.5,-9.5,759,871,0
L,,364765,0.247,1.257,0.145,131.9,-97.5,23.1,794,896,0
L,,364825,-0.325,0.987,0.145,50.8,-48.5,-37.3,799,905,0
L,,364885,-0.204,0.916,0.166,62.3,11.8,21.3,803,910,0
L,,364988,-0.223,0.979,0.133,26.1,-5.7,-2.7,807,912,0
L,,365005,-0.202,0.962,0.133,22.4,9.7,0.2,808,912,0
L,,365065,-0.154,1.006,0.189,23.4,34.3,11.4,806,913,0
L,,365125,-0.175,1.024,0.237,41.1,21.9,10.1,797,916,0
L,,365185,-0.112,1.030,0.167,62.0,29.2,3.9,772,916,0
L,,365900,0.808,1.893,-1.031,-109.9,178.3,39.7,490,847,0
L,,365910,1.003,1.714,-1.238,-57.4,149.7,44.6,499,841,0
L,,365935,0.410,1.373,-1.294,60.4,76.5,23.0,562,808,0
L,,365995,-0.302,1.997,-0.141,121.6,-16.5,-17.0,787,889,0
L,,366055,-0.311,0.907,0.034,89.1,-54.9,-17.1,798,906,0
L,,366115,-0.112,0.902,0.182,59.8,5.5,18.4,803,908,0
L,,366175,-0.138,1.070,0.194,37.8,15.9,7.5,806,913,0
L,,366265,-0.221,0.956,0.257,18.7,10.7,6.2,807,914,0
L,,366325,-0.176,1.011,0.198,42.0,25.6,8.6,801,915,0
L,,366415,-0.119,1.018,0.094,57.2,19.8,1.9,774,916,0
L,,366475,-0.197,1.022,0.007,58.5,25.4,0.0,651,914,0
L,,366535,-0.192,1.138,0.042,69.9,33.6,3.1,502,920,0
L,,366595,-0.193,1.273,0.088,104.8,41.0,4.9,421,918,0
L,,366655,-0.072,1.592,0.269,167.9,57.3,0.7,398,917,0
L,,366715,-0.420,1.786,0.838,180.6,246.1,-20.7,379,912,0
L,,366805,-0.093,-0.070,0.005,27.2,130.0,-84.8,531,809,0
L,,366865,0.305,0.066,0.327,-97.3,54.5,-105.7,506,805,0
L,,366925,0.404,0.337,0.064,-216.7,-8.8,-108.8,552,821,0
L,,366985,0.344,0.882,0.086,-276.9,36.1,-69.2,510,835,0
L,,367045,0.114,1.477,0.037,-300.3,96.1,-19.1,472,845,0
L,,367105,0.337,1.763,-0.124,-260.4,167.0,-7.7,478,850,0
L,,367166,0.684,1.765,-0.747,-140.0,130.9,18.6,474,852,0
L,,367225,0.094,1.225,-0.140,94.8,91.0,21.7,722,865,0
L,,367285,0.150,1.474,-0.188,140.7,-54.6,35.8,793,896,0
L,,367344,-0.032,0.848,0.077,51.4,-48.5,-23.6,800,905,0
L,,367405,-0.231,0.913,0.181,43.1,-6.2,2.6,807,912,0
L,,367465,-0.169,1.013,0.176,29.6,10.5,10.4,809,911,0
L,,367555,-0.150,0.975,0.134,24.7,25.2,11.3,809,914,0
L,,367615,-0.132,0.998,0.110,25.5,15.6,14.0,807,916,0
L,,367675,-0.108,1.032,0.170,46.1,30.1,14.2,795,914,0
L,,367735,-0.061,1.050,0.086,71.6,29.0,6.4,739,914,0
L,,367795,-0.097,1.102,0.010,79.5,28.7,7.0,519,917,0
L,,367855,-0.097,1.254,0.031,105.1,20.7,12.1,436,919,0
L,,367916,0.084,1.493,0.161,153.6,14.8,21.8,386,918,0
L,,367975,-0.455,1.831,1.004,185.3,81.8,2.6,349,915,0
L,,368035,0.106,1.531,-0.362,191.7,98.0,41.6,489,889,0
L,,368095,0.000,0.485,-0.745,48.3,65.2,-45.5,517,818,0
L,,368185,0.122,0.182,0.041,-154.0,32.8,-49.8,517,832,0
L,,368275,0.030,0.772,0.101,-286.3,-4.9,-36.6,519,839,0
L,,368378,0.295,1.926,-0.279,-306.6,94.9,-15.6,434,856,0
L,,368395,0.320,1.946,-0.262,-281.4,94.8,-15.8,432,855,0
L,,368456,0.569,1.654,-1.227,-107.0,10.9,-41.9,459,851,0
L,,368515,-0.119,1.152,0.149,102.9,-80.2,-10.6,723,861,0
L,,368575,0.304,1.286,-0.029,149.6,8.9,21.1,792,891,0
L,,368635,-0.011,0.931,-0.086,74.7,-35.9,-27.7,803,904,0
L,,368695,-0.118,0.947,0.180,50.1,-0.8,-2.8,805,909,0
L,,369200,0.008,1.790,0.436,175.2,-12.5,42.4,342,919,0
L,,369210,-0.020,1.981,0.732,191.0,-7.9,50.8,339,920,0
L,,369235,-0.259,1.827,0.969,190.6,33.1,40.1,396,917,0
L,,369295,0.052,1.395,-0.303,164.8,40.2,63.5,501,894,0
L,,369355,-0.004,0.301,-1.153,73.4,39.5,1.1,510,819,0
L,,369416,-0.190,0.143,0.302,-131.5,17.7,-35.7,508,820,0
L,,369475,0.304,0.462,0.155,-243.1,1.6,-48.4,526,831,0
L,,369535,-0.004,1.152,0.137,-309.1,5.0,-51.4,451,859,0
L,,369595,0.368,1.982,-0.090,-336.3,24.2,-57.9,434,865,0
L,,369655,0.261,2.119,-0.664,-247.2,-72.9,-39.7,475,866,0
L,,369758,0.051,0.969,0.973,116.9,-81.9,2.6,718,862,0
L,,369775,-0.265,0.362,2.290,34.5,-64.1,-16.3,758,870,0
L,,369835,0.236,1.210,-0.084,161.1,-2.1,-16.8,792,893,0
L,,369895,-0.232,1.019,0.024,72.2,-30.0,-24.7,795,900,0
L,,369956,0.035,1.000,0.173,64.9,9.7,3.6,802,906,0
L,,370015,-0.036,0.961,0.121,47.1,-11.5,-1.1,805,909,0
L,,370075,-0.026,0.990,0.073,28.7,3.4,-2.2,801,912,0
L,,370135,-0.026,1.013,0.105,28.6,12.3,8.4,796,914,0
L,,370195,0.015,1.022,0.093,38.2,15.0,12.2,781,914,0
L,,370255,0.061,1.052,0.090,61.3,15.2,15.5,736,912,0
L,,370315,0.087,1.173,0.077,93.3,1.7,26.8,500,917,0
L,,370375,0.222,1.255,-0.001,120.8,-17.0,44.3,374,919,0
L,,370435,0.176,1.664,0.357,160.6,-39.8,63.0,316,916,0
L,,370496,-0.292,1.617,0.910,195.9,59.0,53.6,381,911,0
L,,370555,0.238,1.303,-0.083,122.7,-63.9,76.6,434,833,0
L,,370615,-0.144,0.070,0.281,-15.4,-91.1,40.1,464,813,0
L,,370706,-0.071,0.171,0.155,-235.5,-84.4,4.8,540,793,0
L,,370765,-0.310,0.827,0.115,-316.8,-72.2,15.2,564,825,0
L,,370826,-0.196,1.582,-0.075,-339.7,-43.6,-7.7,560,846,0
L,,370885,-0.072,2.177,-0.440,-323.5,-9.6,-46.4,520,852,0
L,,370945,0.011,1.780,-1.555,-93.1,-6.1,-40.3,554,852,0
L,,371005,0.524,0.998,0.637,96.3,-99.4,-4.4,750,870,0
L,,371065,0.000,1.451,0.119,184.7,5.0,-17.7,790,891,0
L,,371125,-0.180,0.972,-0.013,91.6,-47.5,-36.1,798,900,0
L,,371185,0.152,0.988,0.107,60.8,-8.9,-5.8,803,909,0
L,,371246,-0.046,0.949,0.121,31.3,-13.5,-7.4,800,911,0
L,,371305,-0.035,1.012,0.138,26.6,5.6,4.9,794,914,0
L,,371365,-0.040,1.024,0.165,36.8,10.9,2.1,775,912,0
L,,371425,0.009,1.016,0.064,43.4,12.3,8.0,720,913,0
L,,371485,-0.015,1.034,0.092,44.9,21.0,12.0,551,916,0
L,,371545,0.116,1.177,0.112,76.3,9.1,22.7,446,917,0
L,,371635,0.064,1.329,0.103,129.4,-16.5,42.8,317,916,0
L,,371695,0.072,1.779,0.510,174.7,-26.4,53.2,295,916,0
L,,371755,0.306,1.613,-0.620,210.7,43.8,74.2,447,905,0
L,,371815,0.120,0.640,0.129,105.8,-92.6,46.4,456,779,0
L,,371905,-0.298,0.022,-0.121,-66.0,-43.0,61.1,464,821,0
L,,372410,-0.130,0.915,0.069,54.9,-35.4,-36.6,796,900,0
L,,372420,-0.119,0.972,0.153,47.8,-18.2,-22.8,797,900,0
L,,372445,0.096,1.001,0.202,48.8,10.7,-8.4,797,901,0
L,,372505,0.060,1.002,0.202,34.0,-3.2,-15.2,800,904,0
L,,372564,0.001,1.011,0.199,39.0,-8.5,2.3,802,906,0
L,,372656,-0.034,1.006,0.136,33.1,-3.7,3.8,805,908,0
L,,372715,0.016,1.012,0.147,40.1,4.7,15.4,797,910,0
L,,372775,0.024,1.055,0.160,58.5,2.3,16.4,777,911,0
L,,372835,0.075,1.132,0.138,99.0,-2.8,25.4,689,910,0
L,,372895,0.238,1.370,0.081,134.8,-13.0,49.2,365,916,0
L,,372956,0.106,1.781,0.332,164.6,-61.3,70.8,397,916,0
L,,373015,-0.482,1.420,0.775,188.1,46.3,49.2,359,904,0
L,,373076,0.267,1.166,-0.289,136.0,-38.8,77.7,398,823,0
L,,373135,-0.094,0.096,0.294,-18.8,-45.5,43.4,506,773,0
L,,373195,-0.150,0.213,-0.105,-153.4,-59.0,7.6,521,779,0
L,,373255,-0.151,0.477,-0.032,-259.5,-123.1,-22.5,521,788,0
L,,373315,-0.321,1.090,-0.081,-309.9,-118.7,-23.8,554,806,0
L,,373375,-0.382,1.660,0.065,-335.3,-84.4,-14.1,515,823,0
L,,373435,-0.246,2.119,-0.492,-266.9,-48.5,-59.6,489,836,0
L,,373496,0.396,1.571,-1.423,-37.6,-46.3,-47.3,547,848,0
L,,373555,0.128,0.549,2.771,37.3,-125.7,-37.3,753,871,0
L,,373616,0.081,1.758,-0.151,179.4,16.5,-14.1,786,889,0
L,,373675,-0.031,0.886,0.073,61.8,-49.7,-46.2,792,900,0
L,,373735,-0.005,0.984,0.190,37.5,-1.1,-14.9,798,902,0
L,,373826,-0.067,0.988,0.245,34.3,-5.1,-8.7,799,904,0
L,,373885,-0.059,0.994,0.254,53.1,11.5,4.7,801,903,0
L,,373946,-0.019,0.999,0.142,35.0,-2.1,1.9,804,908,0
L,,374005,0.002,1.036,0.133,50.5,5.8,11.9,797,912,0
L,,374065,0.050,1.057,0.090,81.9,15.8,18.0,768,913,0
L,,374125,0.059,1.155,0.064,109.9,3.7,26.8,582,916,0
L,,374185,0.182,1.345,0.057,138.8,-15.5,43.0,364,920,0
L,,374246,0.169,1.963,0.464,186.3,-38.2,61.1,328,917,0
L,,374305,0.131,1.296,0.114,204.0,82.1,74.6,452,904,0
L,,374366,-0.305,0.571,0.121,95.8,-30.0,47.2,405,799,0
L,,374425,-0.155,-0.014,0.243,-91.9,-69.9,31.5,515,790,0
L,,374485,-0.518,0.183,-0.144,-201.0,-16.7,5.3,520,767,0
L,,374545,-0.313,0.733,-0.141,-274.7,-13.7,-13.5,534,752,0
L,,374635,0.000,1.347,-0.014,-319.4,-158.9,-78.6,531,771,0
L,,374696,-0.040,2.129,-0.253,-326.7,-277.4,-96.6,460,831,0
L,,374755,-0.978,1.709,-1.464,-78.3,11.9,-27.9,535,852,0
L,,374815,0.682,0.767,1.606,59.0,-38.9,6.7,757,875,0
L,,374875,0.286,1.410,0.090,188.0,-22.9,-30.8,790,892,0
L,,374935,-0.332,0.917,-0.099,93.3,-64.4,-32.7,797,903,0
L,,374996,0.191,0.995,0.074,66.7,2.3,-3.6,805,909,0
L,,375055,-0.010,0.957,0.122,35.6,-14.3,-16.7,806,912,0
L,,375116,-0.047,0.990,0.114,27.0,10.8,-0.1,801,913,0
L,,375860,-0.161,1.044,-0.158,-284.6,-110.8,-0.2,561,792,0
L,,375870,-0.099,1.033,-0.188,-292.8,-139.3,-12.0,565,792,0
L,,375895,-0.307,1.063,0.038,-313.8,-197.5,-28.1,565,808,0
L,,375955,-0.373,1.907,-0.320,-304.5,-65.3,-4.4,476,838,0
L,,376015,-0.509,1.803,-0.967,-159.8,134.8,-19.9,501,842,0
L,,376105,0.042,0.386,2.946,8.0,-94.3,-17.3,760,871,0
L,,376166,0.260,1.111,0.111,144.8,7.2,-13.5,787,891,0
L,,376225,-0.156,1.007,0.118,57.8,-24.5,-15.6,799,904,0
L,,376286,0.092,1.044,0.195,44.8,7.4,-15.7,804,909,0
L,,376345,-0.044,0.964,0.147,34.1,-3.6,-4.7,806,912,0
L,,376406,-0.037,1.022,0.156,24.1,11.2,6.4,802,913,0
L,,376465,-0.010,1.022,0.144,36.1,22.1,10.7,791,915,0
L,,376526,0.042,1.053,0.080,50.6,20.2,11.3,760,913,0
L,,376585,-0.002,1.064,0.122,72.5,10.4,13.1,685,912,0
L,,376645,0.203,1.205,0.096,102.6,-0.4,22.7,505,916,0
L,,376706,0.098,1.298,0.018,127.3,-31.2,39.4,379,921,0
L,,376765,-0.002,1.822,0.350,172.4,-43.0,51.5,335,918,0
L,,376826,-0.062,1.521,0.604,202.3,106.8,39.4,432,910,0
L,,376885,0.096,1.031,-0.063,123.6,-38.1,66.4,419,789,0
L,,376946,-0.218,0.096,0.247,-25.4,-107.0,31.3,462,796,0
L,,377005,-0.172,0.108,-0.085,-171.9,-47.1,34.7,521,783,0
L,,377066,-0.141,0.406,-0.070,-264.7,-108.0,23.1,537,794,0
L,,377125,-0.233,0.967,-0.093,-303.5,-160.8,-0.4,538,815,0
L,,377185,-0.565,1.490,-0.153,-331.5,-64.7,-11.8,485,841,0
L,,377245,-0.395,2.160,-0.384,-269.2,105.9,-3.7,461,858,0
L,,377305,0.901,1.703,-1.329,-35.9,102.9,-23.6,475,864,0
L,,377366,-0.163,0.764,2.617,-11.5,-59.3,-49.0,774,881,0
L,,377468,-0.158,0.991,0.095,104.3,-99.6,-26.8,793,899,0
L,,377486,-0.267,1.051,0.095,89.7,-47.3,-12.9,795,899,0
L,,377545,0.120,1.008,0.136,69.1,9.8,-9.3,800,908,0
L,,377605,-0.018,0.906,0.097,47.6,-18.6,-4.9,801,910,0
L,,377666,-0.065,1.010,0.079,33.1,19.1,-3.9,799,910,0
L,,377725,-0.110,1.016,0.094,27.5,18.5,4.4,790,911,0
L,,377816,-0.042,1.046,0.116,56.9,30.6,10.9,740,914,0
L,,377875,-0.007,1.130,0.075,87.5,21.5,14.2,505,917,0
L,,377935,0.094,1.245,0.061,119.6,-2.8,21.9,402,920,0
L,,377996,-0.006,1.545,0.208,169.6,-5.8,33.8,314,917,0
L,,378055,-0.448,2.109,1.050,208.6,43.2,24.8,278,912,0
L,,378145,-0.373,0.577,0.458,96.2,0.2,10.5,435,826,0
L,,378206,0.077,-0.041,0.123,-54.1,-9.1,-20.3,403,812,0
L,,378265,0.070,0.151,0.035,-185.7,-21.2,-43.1,441,828,0
L,,378326,0.001,0.593,-0.026,-261.8,-44.8,-40.5,443,836,0
L,,378385,0.040,1.118,0.057,-310.3,-50.1,-37.0,451,843,0
L,,378475,0.209,2.121,-0.116,-327.0,135.3,-35.2,444,860,0
L,,378536,0.466,1.917,-1.383,-140.4,9.9,-22.8,458,863,0
L,,378625,-0.049,1.678,0.072,129.5,-46.6,-6.6,780,883,0
L,,379130,0.025,1.094,0.078,80.4,21.4,15.4,589,920,0
L,,379140,0.056,1.098,0.104,85.1,16.3,17.0,529,915,0
L,,379166,0.135,1.168,0.057,95.9,6.5,19.8,496,918,0
L,,379225,0.052,1.244,0.052,123.4,-12.2,31.9,368,919,0
L,,379286,0.151,1.632,0.300,167.5,-31.0,46.0,285,918,0
L,,379345,-0.207,1.698,0.882,197.6,44.6,16.0,378,911,0
L,,379406,0.221,1.248,-0.199,132.7,-50.4,77.4,462,867,0
L,,379465,-0.135,0.020,0.000,-25.4,-55.9,35.4,473,842,0
L,,379569,0.191,0.377,0.064,-247.5,-42.2,4.0,506,813,0
L,,379616,-0.299,0.915,-0.036,-297.0,-79.0,9.9,543,813,0
L,,379675,-0.237,1.473,-0.041,-314.1,-99.6,-14.2,511,838,0
L,,379736,-0.371,1.849,-0.088,-318.4,-29.0,-31.9,488,852,0
L,,379795,0.144,1.926,-1.047,-170.7,2.1,-26.4,493,855,0
L,,379856,0.560,1.693,-0.662,113.4,-82.2,-5.4,594,827,0
L,,379946,0.152,1.190,0.040,177.0,2.2,-11.6,791,894,0
L,,380048,0.051,0.955,0.148,63.7,-18.1,-7.1,802,910,0
L,,380066,0.067,1.024,0.183,56.0,-6.7,-12.8,804,911,0
L,,380125,-0.016,0.992,0.153,35.7,1.8,1.5,803,913,0
L,,380186,-0.001,1.007,0.097,34.8,5.0,5.5,793,915,0
L,,380246,0.026,1.010,0.063,29.9,8.2,6.7,770,914,0
L,,380305,0.039,1.020,0.068,31.0,11.8,11.4,718,913,0
L,,380365,0.057,1.030,0.166,44.0,22.9,16.1,601,916,0
L,,380456,0.131,1.250,0.123,109.2,-27.5,29.0,352,920,0
L,,380515,0.139,1.423,0.140,147.2,-29.0,53.9,325,918,0
L,,380576,0.268,1.940,0.871,193.6,-54.1,58.5,323,915,0
L,,380635,0.451,1.692,-0.394,192.9,-73.9,105.0,465,897,0
L,,380696,-0.184,0.504,-0.286,63.1,-169.9,74.1,523,817,0
L,,380755,-0.810,0.151,-0.060,-65.2,-17.7,73.1,515,807,0
L,,380816,-0.109,0.214,-0.008,-187.3,-4.6,76.0,493,746,0
L,,380875,-0.386,0.879,-0.139,-262.5,-79.4,52.0,553,787,0
L,,380936,-0.264,1.292,-0.084,-300.3,-230.0,-15.9,561,823,0
L,,380996,-0.803,1.557,-0.008,-307.0,-148.1,0.9,546,840,0
L,,381055,-0.462,1.845,-0.245,-244.0,40.2,-26.2,565,850,0
L,,381146,0.477,1.422,-1.152,50.8,-69.8,-46.1,589,858,0
L,,381206,0.426,1.954,0.309,111.4,-2.4,-9.5,788,891,0
L,,381265,0.308,0.882,-0.065,113.5,0.2,-62.5,790,899,0
L,,381326,-0.298,0.856,0.162,67.9,-30.6,-0.9,793,906,0
L,,381385,0.068,1.021,0.242,40.3,-22.5,-8.8,787,912,0
L,,381446,0.017,0.955,0.149,28.6,-48.0,-9.3,756,912,0
L,,381505,-0.022,0.959,0.166,15.8,-10.5,-4.8,756,914,0
L,,381566,0.010,1.014,0.171,8.2,-4.0,-7.0,764,911,0
L,,381625,0.010,1.009,0.186,6.7,-1.5,1.3,767,914,0
L,,381686,0.041,1.041,0.201,11.0,-7.0,1.6,762,914,0
L,,381746,0.004,0.993,0.127,7.2,-8.3,1.9,733,912,0
L,,381835,0.049,0.983,0.147,14.8,-12.9,2.2,737,911,0
L,,381896,0.045,0.988,0.091,7.2,-8.4,-0.7,753,911,0
L,,382400,0.021,0.996,0.103,-2.3,-0.7,-0.9,790,912,0
L,,382410,0.018,0.991,0.103,-2.0,-0.2,-0.5,788,909,0
L,,382465,-0.005,1.002,0.123,-0.6,10.9,4.9,791,907,0
L,,382526,0.098,1.002,0.096,-0.7,12.1,0.2,800,909,0
L,,382585,0.040,0.975,0.067,-12.0,0.2,-4.4,803,910,0
L,,382646,0.014,1.027,0.117,-26.7,9.4,-0.2,806,908,0
L,,382706,0.010,1.004,0.369,-16.0,2.9,2.3,809,910,0
L,,382766,0.013,1.002,0.203,15.9,-19.8,11.9,807,911,0
L,,382826,0.041,1.011,0.136,21.0,-27.3,16.2,807,910,0
L,,382885,0.047,1.019,0.167,35.2,-30.0,26.3,806,912,0
L,,382946,-0.006,1.051,0.134,62.5,-14.7,55.4,797,911,0
L,,383005,0.020,1.214,0.187,104.2,-2.8,87.2,744,909,0
L,,383066,0.385,1.674,0.254,114.0,-48.3,105.1,530,895,0
L,,383125,0.030,1.399,0.270,113.0,-94.7,96.1,342,846,0
L,,383186,1.370,0.610,0.020,56.0,-230.5,122.5,449,819,0
L,,383246,-1.189,0.376,0.335,-55.3,-297.7,4.2,489,842,0
L,,383306,0.016,0.482,0.063,-144.6,-78.1,36.4,530,828,0
L,,383366,-0.147,0.958,0.000,-199.5,-96.4,26.3,539,832,0
L,,383425,0.040,1.165,0.000,-230.5,-150.0,-33.6,555,836,0
L,,383486,-0.400,1.322,0.192,-240.5,-68.3,-0.9,462,849,0
L,,383545,-0.029,1.623,-0.476,-192.5,79.6,-11.4,532,822,0
L,,383606,0.358,1.366,-0.870,-45.3,24.8,-9.0,642,839,0
L,,383696,0.287,1.321,-0.098,140.1,-12.3,6.5,782,884,0
L,,383755,0.068,0.986,-0.130,81.4,-23.6,-28.9,786,893,0
L,,383846,0.012,0.987,0.211,37.1,-6.6,-13.7,799,905,0
L,,383906,-0.042,0.998,0.162,31.9,-9.2,-15.7,803,906,0
L,,383965,-0.068,1.009,0.144,32.4,-1.7,-2.8,805,910,0
L,,384026,-0.072,1.030,0.106,23.3,2.1,-7.0,806,910,0
L,,384085,-0.097,1.001,0.076,22.4,7.4,2.9,807,911,0
L,,384189,-0.018,1.044,0.117,30.5,8.4,9.0,796,914,0
L,,384206,-0.045,1.053,0.115,36.6,8.3,9.1,789,915,0
L,,384266,-0.022,1.052,0.059,58.5,8.1,12.8,757,913,0
L,,384326,0.033,1.107,-0.030,72.3,9.9,17.9,600,914,0
L,,384385,0.055,1.162,-0.075,88.9,1.3,27.8,346,919,0
L,,384446,0.118,1.340,-0.111,106.1,-17.5,39.0,339,918,0
L,,384505,-0.083,1.531,0.252,141.1,-30.3,40.8,292,914,0
L,,384566,-0.051,1.340,0.087,177.2,105.2,39.6,439,905,0
L,,384625,0.076,1.179,-0.129,143.0,46.9,52.6,421,834,0
L,,384686,0.112,0.227,0.265,1.9,4.2,-21.6,479,816,0
L,,384746,0.155,0.178,0.049,-139.4,-30.6,-65.5,504,822,0
L,,384806,-0.081,0.586,0.207,-264.3,-20.3,-72.8,508,827,0
L,,384866,0.149,1.311,0.290,-311.9,37.0,-55.0,520,841,0
L,,384925,0.327,2.243,-0.055,-336.0,65.3,-71.7,434,859,0
L,,384986,0.710,1.914,-0.848,-208.8,-72.8,-49.3,565,852,0
L,,385045,0.179,1.650,-1.262,67.6,-10.5,-2.3,696,850,0
L,,385106,0.303,1.992,-0.375,192.3,-5.1,19.7,784,886,0
L,,385639,-0.020,1.087,0.022,84.7,14.9,11.7,522,920,0
L,,385649,0.060,1.118,-0.020,82.8,16.6,9.7,520,919,0
L,,385706,0.032,1.230,-0.029,108.5,-4.8,20.9,446,920,0
L,,385795,0.012,2.018,0.532,173.5,-22.0,49.4,309,920,0
L,,385856,0.287,1.375,-0.063,211.5,103.7,64.1,428,908,0
L,,385916,-0.030,0.337,0.400,78.9,-7.3,8.0,388,816,0
L,,385976,-0.078,0.063,0.272,-50.9,-50.6,-16.4,479,832,0
L,,386036,0.067,0.134,-0.067,-157.7,16.9,-4.0,503,828,0
L,,386096,0.077,0.514,0.096,-260.2,-21.1,-14.2,524,831,0
L,,386186,-0.064,1.430,0.050,-325.7,-3.9,-18.6,506,848,0
L,,386246,0.159,2.105,-0.214,-305.9,42.3,-3.5,477,854,0
L,,386306,0.004,1.682,-1.002,-121.2,37.5,-31.5,517,858,0
L,,386366,0.210,1.646,-0.732,113.2,-51.1,3.7,712,864,0
L,,386426,0.095,1.438,0.471,125.1,-48.4,-13.5,783,887,0
L,,386486,0.060,0.940,-0.115,96.0,-17.1,-41.5,789,893,0
L,,386545,-0.183,0.945,0.161,53.3,-37.8,-12.3,796,902,0
L,,386606,0.074,1.051,0.212,55.0,9.4,-11.2,801,908,0
L,,386666,-0.015,0.976,0.153,50.1,-15.8,-5.7,802,911,0
L,,386726,-0.042,0.999,0.110,29.8,4.9,-1.2,801,911,0
L,,386786,-0.078,0.997,0.100,21.7,6.1,5.3,799,913,0
L,,386846,-0.015,1.038,0.111,29.0,13.5,11.1,790,915,0
L,,386906,-0.035,1.033,0.122,53.0,10.4,11.3,769,913,0
L,,386996,0.018,1.101,0.045,88.1,3.0,15.9,600,914,0
L,,387056,0.114,1.199,-0.079,107.5,-8.9,31.2,391,918,0
L,,387116,0.110,1.473,0.080,131.8,-22.7,45.7,308,918,0
L,,387176,-0.156,1.643,0.544,170.2,-14.4,44.8,311,911,0
L,,387236,0.211,1.139,-0.392,172.6,60.7,70.7,436,900,0
L,,387295,-0.180,0.124,0.324,43.2,-14.5,24.4,562,802,0
L,,387356,-0.151,0.176,0.168,-88.5,-42.8,-17.1,511,812,0
L,,387416,-0.014,0.404,0.016,-190.3,-38.5,-22.2,545,817,0
L,,387476,-0.133,1.009,-0.062,-255.2,-13.0,-24.2,556,831,0
L,,387536,0.006,1.475,-0.244,-268.3,-20.3,-40.6,539,847,0
L,,387596,-0.174,1.466,-0.017,-258.5,15.9,-55.5,536,850,0
L,,387656,0.047,1.716,-0.022,-216.6,97.5,-44.7,563,852,0
L,,387716,0.798,1.388,-0.637,-56.5,9.1,-25.4,563,858,0
L,,387776,-0.107,1.191,-0.211,120.5,-117.3,-17.0,713,863,0
L,,387835,0.020,1.292,0.759,102.8,-89.1,-3.6,781,883,0
L,,387896,0.032,0.943,0.080,83.3,8.2,-32.2,791,893,0
L,,387956,-0.234,0.936,0.134,60.4,-35.2,5.0,797,903,0
L,,388016,0.092,1.010,0.190,34.3,12.7,-5.2,801,906,0
L,,388076,-0.168,0.988,0.209,29.2,-18.5,-2.8,802,906,0
L,,388136,-0.056,0.997,0.224,32.4,19.9,8.4,805,907,0
L,,388196,-0.114,0.996,0.179,54.3,13.5,16.4,805,908,0
L,,388256,-0.044,1.042,0.109,52.9,7.0,14.7,804,912,0
L,,388316,-0.052,1.029,0.061,57.2,11.9,21.2,776,913,0
L,,388375,0.036,1.113,0.032,79.9,20.7,27.9,561,915,0
L,,389121,0.075,1.057,-0.232,124.9,-78.1,-38.0,796,902,0
L,,389131,0.046,0.893,-0.052,103.1,-95.4,-26.3,795,902,0
L,,389156,-0.180,1.027,0.012,97.9,-54.3,-20.3,800,904,0
L,,389216,0.001,1.112,0.163,62.6,1.7,-3.7,801,912,0
L,,389306,-0.065,1.001,0.128,40.8,-4.5,0.3,789,912,0
L,,389366,-0.048,0.974,0.062,40.4,19.1,7.7,758,913,0
L,,389426,-0.024,1.037,0.000,41.3,8.5,12.6,696,914,0
L,,389486,0.015,1.096,0.053,45.5,18.1,14.3,532,918,0
L,,389589,0.128,1.215,0.067,89.8,-4.7,30.1,398,919,0
L,,389606,0.117,1.222,0.140,101.4,-15.8,31.7,381,915,0
L,,389666,-0.030,1.557,0.379,169.1,-17.2,34.2,318,916,0
L,,389726,-0.280,1.505,0.619,195.2,82.3,29.3,387,910,0
L,,389816,-0.406,0.061,0.314,44.7,43.4,8.1,539,817,0
L,,389919,0.128,0.246,0.252,-205.8,-37.5,-85.1,543,823,0
L,,389936,0.127,0.227,0.383,-236.6,-57.9,-91.2,549,826,0
L,,389996,-0.030,1.117,0.420,-312.1,-63.2,-79.4,524,841,0
L,,390056,0.346,2.324,-0.052,-337.8,115.4,-45.2,459,860,0
L,,390116,0.563,2.159,-0.780,-209.6,6.0,-53.6,515,861,0
L,,390176,-0.091,1.710,-1.200,27.2,-1.1,-7.6,578,847,0
L,,390265,0.263,1.214,-0.077,157.8,-26.5,13.5,792,891,0
L,,390326,-0.192,1.083,-0.066,88.8,-77.9,-9.2,799,903,0
L,,390416,-0.056,1.017,0.135,64.3,8.0,0.9,803,911,0
L,,390476,-0.060,1.023,0.051,49.0,-7.0,3.6,797,914,0
L,,390536,-0.063,1.048,0.080,44.7,17.2,2.1,784,916,0
L,,390596,-0.098,0.987,-0.008,56.9,13.3,10.0,752,914,0
L,,390656,-0.066,0.988,-0.103,58.6,9.0,9.3,692,914,0
L,,390716,-0.016,1.016,-0.107,49.9,17.5,9.1,578,918,0
L,,390776,-0.055,1.059,-0.181,49.0,15.1,14.2,481,920,0
L,,390836,-0.066,1.090,-0.188,42.7,19.0,27.0,433,918,0
L,,390896,-0.013,1.464,0.047,68.8,6.4,33.3,400,912,0
L,,390986,-0.355,1.251,-0.147,136.0,97.2,-6.3,338,904,0
L,,391046,-0.638,0.311,0.652,79.3,225.5,-18.1,391,859,0
L,,391106,0.275,0.422,0.164,-33.4,130.0,-74.4,443,842,0
L,,391166,0.164,0.571,0.158,-150.2,10.5,-128.8,460,856,0
L,,391226,0.072,1.060,0.110,-229.0,43.5,-115.5,468,866,0
L,,391286,0.762,1.691,-0.229,-209.0,134.1,-75.3,438,875,0
L,,391346,0.991,1.203,-1.091,-27.5,74.9,-41.4,489,881,0
L,,391406,-0.811,1.453,-0.205,33.3,-120.3,-9.7,757,912,0
L,,391466,-0.263,1.049,0.093,29.8,1.2,6.7,788,916,0
L,,391526,-0.085,0.984,0.029,16.3,8.8,9.6,787,915,0
L,,391586,-0.126,0.991,0.014,0.5,0.2,9.2,788,918,0
L,,391646,-0.056,0.986,0.047,-12.0,2.0,9.5,787,917,0
L,,391736,-0.038,0.997,0.090,-22.3,4.1,14.0,797,917,0
L,,391796,-0.022,1.016,0.111,-32.4,3.8,15.7,801,916,0
L,,391856,0.015,0.984,0.159,-32.2,10.0,10.5,801,914,0
L,,391916,0.007,1.122,0.217,-29.9,6.1,5.1,798,913,0
L,,392451,0.017,0.993,0.187,0.9,-3.6,2.2,800,915,0
L,,392461,0.020,0.993,0.189,1.1,-2.9,2.2,797,911,0
L,,392486,0.020,0.991,0.191,1.9,-2.5,2.3,795,910,0
L,,392546,0.027,0.995,0.184,1.8,-3.3,1.7,797,912,0
L,,392636,0.027,0.994,0.186,2.9,-5.1,0.4,794,912,0
L,,392696,0.018,0.989,0.173,0.9,-5.6,1.7,794,912,0
L,,392786,0.025,0.997,0.186,-2.1,-1.1,1.8,791,913,0
L,,392846,0.032,0.994,0.199,0.6,-1.7,1.9,792,913,0
L,,392906,0.030,0.992,0.177,2.1,-4.6,0.8,794,914,0
L,,392966,0.028,0.989,0.177,-1.1,-4.4,-0.3,794,914,0
L,,393026,0.025,0.992,0.189,-2.4,-3.2,0.0,795,914,0
L,,393086,0.022,0.992,0.189,-2.1,-2.8,0.7,795,915,0
L,,393146,0.021,0.992,0.201,-0.7,-2.2,0.7,796,913,0
L,,393207,0.027,0.991,0.194,1.2,-2.9,0.7,796,914,0
L,,393266,0.023,0.991,0.192,0.9,-2.6,0.7,794,915,0
L,,393326,0.015,0.992,0.195,1.4,-2.4,1.7,797,914,0
L,,393429,0.032,0.994,0.188,0.5,-2.3,1.6,796,915,0
L,,393446,0.034,0.990,0.190,0.4,-2.4,1.0,795,915,0
L,,393536,0.023,0.992,0.189,0.6,-4.0,1.1,796,915,0
L,,393596,0.024,0.990,0.187,-1.2,-3.6,2.1,796,914,0
L,,393686,0.027,0.991,0.194,-4.9,-2.0,2.5,797,914,0
L,,393746,0.031,0.995,0.212,-4.6,-1.1,1.6,800,915,0
L,,393806,0.022,0.989,0.209,-1.9,-0.7,2.3,799,914,0
L,,393866,0.033,0.988,0.207,-2.4,0.1,2.9,799,915,0
L,,393926,0.039,0.991,0.222,-1.5,-1.4,1.9,801,915,0
L,,393986,0.036,0.994,0.225,2.1,-3.7,0.4,801,913,0
L,,394046,0.013,0.947,0.205,6.1,-3.6,0.3,803,916,0
L,,394106,0.061,0.991,0.192,4.4,-7.0,-1.5,801,914,0
L,,394166,0.043,0.986,0.199,3.0,-8.4,-0.8,801,913,0
L,,394226,0.016,0.984,0.188,-0.6,-2.0,2.0,802,915,0
L,,394286,0.036,0.990,0.199,-1.1,-2.3,1.4,801,914,0
L,,394346,0.049,0.995,0.212,-1.1,-0.5,1.2,804,915,0
L,,394436,0.026,0.985,0.206,-1.1,-1.3,1.8,804,914,0
L,,394497,0.034,0.985,0.222,0.3,-4.4,1.5,804,914,0
L,,394556,0.009,0.984,0.198,-0.2,-4.8,3.9,804,913,0
L,,394616,0.046,0.987,0.211,-3.1,-2.5,1.4,804,912,0
L,,394675,0.027,0.994,0.230,-0.9,0.5,3.6,804,915,0
L,,394736,0.045,0.994,0.226,4.3,-1.5,3.5,804,914,0
L,,394796,0.035,0.987,0.203,6.1,-3.5,3.7,804,915,0
L,,394886,0.048,0.991,0.197,0.3,-2.2,2.4,803,914,0
L,,394946,0.039,0.990,0.214,1.3,-2.8,2.6,804,914,0
L,,395006,0.048,0.988,0.203,3.8,-3.6,2.5,803,912,0
L,,395066,0.044,0.989,0.200,4.4,-3.5,2.5,801,914,0
L,,395126,0.050,0.989,0.193,3.0,-2.9,2.6,803,915,0
L,,395186,0.051,0.992,0.195,2.1,-2.5,2.5,800,913,0
L,,395247,0.052,0.990,0.194,2.6,-2.4,2.4,798,913,0
L,,395750,0.054,0.992,0.187,0.9,-3.0,0.2,804,918,0
L,,395760,0.054,0.991,0.185,0.8,-2.9,0.4,798,913,0
L,,395787,0.054,0.993,0.186,0.9,-3.1,0.4,799,915,0
L,,395846,0.051,0.990,0.186,0.2,-3.0,0.5,798,911,0
L,,395936,0.054,0.990,0.187,0.3,-3.2,0.7,799,914,0
L,,395997,0.052,0.991,0.188,0.3,-3.2,0.6,799,914,0
L,,396056,0.052,0.992,0.185,0.2,-3.2,0.4,799,913,0
L,,396146,0.058,0.990,0.186,0.0,-3.0,0.7,800,913,0
L,,396207,0.051,0.991,0.189,-0.5,-3.1,0.9,798,913,0
L,,396296,0.052,0.988,0.191,-0.6,-3.0,1.1,800,914,0
L,,396356,0.053,0.991,0.193,-0.6,-3.1,1.2,801,915,0
L,,396416,0.050,0.993,0.193,-0.2,-3.0,1.3,801,913,0
L,,396476,0.052,0.990,0.193,-0.5,-2.6,1.8,801,914,0
L,,396537,0.053,0.990,0.195,-0.8,-2.6,1.8,800,914,0
L,,396639,0.053,0.992,0.202,-0.9,-2.7,2.1,801,914,0
L,,396656,0.053,0.988,0.201,-0.6,-2.6,2.4,801,914,0
L,,396716,0.054,0.987,0.198,-0.2,-2.6,2.1,802,913,0
L,,396776,0.059,0.990,0.201,-0.5,-2.4,1.9,802,914,0
L,,396866,0.055,0.991,0.204,-0.2,-2.3,1.9,802,913,0
L,,396926,0.060,0.988,0.204,0.2,-2.5,1.8,802,912,0
L,,396986,0.059,0.988,0.206,1.1,-2.9,1.6,802,914,0
L,,397046,0.063,0.987,0.202,0.9,-2.9,1.5,802,913,0
L,,397106,0.061,0.988,0.202,0.8,-2.9,1.2,801,913,0
L,,397166,0.060,0.989,0.202,0.7,-3.1,0.9,801,913,0
L,,397226,0.060,0.988,0.201,1.0,-3.0,0.8,803,914,0
L,,397287,0.061,0.986,0.201,0.9,-3.1,0.4,804,914,0
L,,397376,0.056,0.989,0.201,0.6,-3.2,0.2,802,913,0
L,,397436,0.061,0.992,0.199,0.7,-3.2,0.3,804,915,0
L,,397497,0.056,0.990,0.203,0.9,-3.3,0.2,802,916,0
L,,397556,0.056,0.989,0.202,0.7,-3.2,0.4,802,913,0
L,,397617,0.056,0.990,0.200,0.9,-3.2,0.2,804,913,0
L,,397676,0.053,0.990,0.203,1.4,-3.4,0.2,803,912,0
L,,397736,0.054,0.989,0.199,1.5,-3.2,0.4,803,913,0
L,,397795,0.054,0.988,0.194,0.2,-3.1,0.2,803,914,0
L,,397886,0.050,0.990,0.201,-1.0,-2.1,0.6,804,914,0
L,,397946,0.048,0.991,0.203,0.0,-1.9,1.3,803,913,0
L,,398006,0.048,0.990,0.197,0.7,-1.0,2.7,804,914,0
L,,398096,0.055,0.988,0.205,0.0,0.4,2.5,804,913,0
L,,398157,0.061,0.987,0.207,0.2,0.0,1.7,802,913,0
L,,398216,0.063,0.993,0.212,1.7,-3.2,-0.5,803,913,0
L,,398276,0.058,0.989,0.205,4.0,-5.5,-2.1,801,914,0
L,,398336,0.050,0.989,0.198,5.2,-7.4,-3.0,803,914,0
L,,398396,0.042,0.988,0.186,4.9,-7.3,-2.0,802,913,0
L,,398457,0.037,0.989,0.183,2.5,-5.6,-1.4,802,915,0
L,,398516,0.037,0.991,0.183,0.5,-3.7,-0.4,805,913,0
L,,398577,0.039,0.991,0.189,-0.5,-2.4,0.2,804,914,0
L,,399291,0.032,0.992,0.182,-0.5,-0.9,0.9,808,917,0
L,,399301,0.036,1.001,0.187,-0.3,-1.1,1.0,805,914,0
L,,399327,0.022,0.993,0.189,0.7,-1.9,1.6,806,915,0
L,,399386,0.066,0.996,0.174,-2.7,1.8,3.5,806,914,0
L,,399447,0.001,0.993,0.188,-2.2,-2.5,0.7,806,914,0
L,,399506,0.063,0.992,0.188,-1.0,-0.7,2.3,804,915,0
L,,399566,0.027,0.992,0.187,0.0,-3.9,0.7,804,914,0
L,,399625,0.045,0.993,0.191,-0.2,-3.1,1.1,807,915,0
L,,399716,0.035,0.993,0.195,0.8,-4.2,0.6,804,915,0
L,,399776,0.035,0.993,0.192,1.4,-4.0,0.4,806,915,0
L,,399836,0.039,0.993,0.190,2.1,-4.6,0.9,808,914,0
L,,399926,0.037,0.995,0.184,1.2,-3.6,1.1,807,916,0
L,,400016,0.032,0.992,0.189,0.2,-3.2,0.9,806,915,0
L,,400077,0.038,0.992,0.186,0.0,-3.0,0.8,806,914,0
L,,400136,0.034,0.992,0.187,-0.4,-2.5,0.8,805,916,0
L,,400197,0.039,0.992,0.187,-0.2,-2.6,1.1,805,914,0
L,,400256,0.034,0.990,0.189,-0.7,-2.1,1.5,806,915,0
L,,400316,0.035,0.991,0.191,-0.4,-2.2,1.5,805,915,0
L,,400376,0.038,0.991,0.193,-0.2,-2.3,1.1,805,913,0
L,,400436,0.040,0.990,0.193,0.2,-2.5,1.1,804,913,0
L,,400497,0.038,0.991,0.193,0.0,-2.7,1.2,804,914,0
L,,400556,0.038,0.990,0.196,0.2,-3.0,1.1,805,913,0
L,,400617,0.039,0.990,0.196,0.4,-3.2,1.2,805,915,0
L,,400676,0.036,0.991,0.195,0.7,-3.4,0.9,807,915,0
L,,400737,0.038,0.991,0.194,0.5,-3.2,1.0,806,914,0
L,,400796,0.038,0.991,0.196,0.5,-3.4,1.1,805,910,0
L,,400856,0.040,0.991,0.195,0.7,-3.2,1.2,808,915,0
L,,400916,0.039,0.992,0.194,0.4,-3.2,1.4,805,915,0
L,,400976,0.038,0.990,0.195,0.5,-3.0,1.6,805,915,0
L,,401066,0.041,0.990,0.196,0.2,-3.0,1.3,808,915,0
L,,401126,0.040,0.989,0.197,0.4,-3.0,1.4,806,914,0
L,,401186,0.042,0.992,0.198,0.3,-3.1,1.2,806,913,0
L,,401277,0.042,0.992,0.196,0.2,-2.7,1.3,805,917,0
L,,401336,0.041,0.994,0.196,0.5,-2.6,1.4,807,913,0
L,,401396,0.046,0.992,0.196,0.7,-2.8,1.1,805,912,0
L,,401456,0.042,0.990,0.198,0.4,-3.1,0.8,806,915,0
L,,401516,0.042,0.991,0.198,0.4,-3.0,0.7,808,916,0
L,,401577,0.042,0.989,0.196,0.9,-3.0,0.6,806,913,0
L,,401636,0.043,0.989,0.196,1.0,-3.2,0.8,806,913,0
L,,401697,0.040,0.990,0.196,1.1,-3.2,0.9,807,912,0
L,,401756,0.041,0.990,0.195,1.4,-3.3,0.9,808,916,0
L,,401816,0.044,0.990,0.196,1.1,-3.3,0.4,807,913,0
L,,401876,0.040,0.991,0.195,1.0,-3.1,0.6,806,914,0
L,,401936,0.041,0.989,0.193,1.1,-3.0,0.9,807,915,0
L,,401997,0.040,0.991,0.192,0.9,-3.0,1.4,806,913,0
L,,402056,0.032,0.990,0.188,-0.9,-1.8,2.6,808,914,0
L,,402561,0.041,0.989,0.213,1.8,-3.0,-0.3,807,916,0
L,,402571,0.040,0.991,0.215,2.0,-3.2,-0.4,806,913,0
L,,402596,0.037,0.991,0.212,3.0,-4.0,-0.7,805,913,0
L,,402657,0.032,0.983,0.204,5.6,-5.8,-0.6,806,910,0
L,,402716,0.040,0.996,0.189,4.2,-4.9,0.0,807,913,0
L,,402777,0.034,0.993,0.195,2.3,-4.4,1.1,805,914,0
L,,402867,0.037,0.989,0.197,2.0,-4.4,2.2,806,913,0
L,,402926,0.027,0.985,0.190,0.6,-4.9,3.0,806,913,0
L,,403016,0.038,0.988,0.196,-2.5,-4.3,2.3,805,912,0
L,,403077,0.051,0.983,0.200,-4.2,-1.6,0.9,805,912,0
L,,403136,0.044,0.986,0.204,-7.5,-1.2,-0.2,804,911,0
L,,403197,0.047,0.989,0.207,-10.2,0.2,-3.0,803,910,0
L,,403256,0.037,0.986,0.241,-9.7,1.4,-2.1,803,911,0
L,,403346,0.017,0.989,0.261,-6.0,0.7,-1.1,802,908,0
L,,403407,0.030,0.988,0.251,-0.4,-0.7,0.2,805,908,0
L,,403466,0.021,0.981,0.250,2.5,-2.8,-1.2,805,907,0
L,,403527,0.018,0.980,0.251,5.4,-3.5,-1.6,805,908,0
L,,403586,0.033,0.990,0.236,7.5,-4.3,-2.8,807,908,0
L,,403646,0.021,0.987,0.228,8.1,-6.3,-4.7,807,908,0
L,,403707,0.018,0.983,0.227,9.8,-4.5,-4.9,807,909,0
L,,403766,-0.007,0.999,0.219,12.1,-5.7,-5.3,807,909,0
L,,403827,-0.036,0.995,0.211,16.8,-3.9,-0.4,807,909,0
L,,403886,-0.039,1.004,0.208,24.7,-10.5,5.3,808,909,0
L,,403947,-0.009,1.001,0.188,38.7,-8.1,9.9,809,912,0
L,,404006,0.003,0.961,0.017,15.8,-6.3,11.1,809,914,0
L,,404067,0.003,0.992,0.101,-4.9,0.6,10.7,812,917,0
L,,404126,0.035,1.007,0.134,-2.5,-0.5,18.4,811,916,0
L,,404216,0.047,0.997,0.104,2.8,-10.1,27.2,810,913,0
L,,404277,0.081,1.016,0.107,2.4,-11.0,34.3,810,912,0
L,,404336,0.101,1.010,0.116,2.2,-13.5,40.6,803,912,0
L,,404397,0.166,1.009,0.093,-3.9,7.4,38.3,773,907,0
L,,404457,0.080,1.013,0.128,-15.4,33.1,32.2,705,893,0
L,,404516,-0.269,1.131,0.136,-10.5,204.5,20.1,606,871,0
L,,404577,0.159,1.077,0.124,14.0,213.4,8.6,519,783,0
L,,404636,0.235,1.007,0.005,48.5,138.7,0.6,559,795,0
L,,404697,0.136,1.025,0.012,70.0,108.2,-4.0,586,817,0
L,,404756,0.082,1.056,0.066,88.8,145.3,0.5,592,830,0
L,,404817,0.134,1.044,0.154,97.8,149.8,9.1,599,837,0
L,,404876,0.191,0.983,0.166,87.8,78.6,5.5,609,841,0
L,,404936,0.070,0.799,0.331,39.4,-7.6,-26.8,608,841,0
L,,404997,-0.243,0.702,0.249,-19.3,-14.8,-46.2,582,864,0
L,,405056,0.415,1.020,-0.009,-30.6,31.0,-17.6,591,890,0
L,,405117,0.183,1.146,0.045,-35.9,-33.4,-18.3,651,901,0
L,,405176,0.116,1.032,0.035,-25.3,2.7,-10.0,722,906,0
L,,405237,0.061,0.992,0.005,-23.9,-9.0,-16.6,759,907,0
L,,405296,-0.039,1.014,0.066,-22.3,-5.3,-18.1,787,912,0
L,,405801,-0.068,0.995,0.094,0.5,-6.5,2.8,813,918,0
L,,405811,-0.060,0.989,0.098,-0.3,-6.6,3.1,809,915,0
L,,405866,-0.050,0.999,0.108,-4.6,-8.2,4.3,808,913,0
L,,405926,-0.055,1.002,0.129,-4.4,-8.8,4.9,807,914,0
L,,405987,-0.055,1.003,0.126,-0.7,-8.4,6.4,803,915,0
L,,406046,-0.030,1.000,0.126,0.0,-8.2,6.5,803,915,0
L,,406107,-0.034,0.997,0.125,0.4,-7.0,6.7,802,916,0
L,,406166,-0.023,0.999,0.122,-0.9,-8.1,5.9,800,915,0
L,,406226,-0.016,0.996,0.125,-2.5,-4.8,6.7,798,914,0
L,,406287,-0.016,0.999,0.137,-2.5,-5.9,5.6,797,913,0
L,,406346,0.000,0.997,0.135,-1.9,-4.3,6.5,797,914,0
L,,406407,-0.003,0.999,0.142,-1.3,-4.4,6.0,794,914,0
L,,406497,0.003,1.001,0.142,-0.4,-2.8,6.6,789,913,0
L,,406556,0.023,0.998,0.139,0.2,-4.9,4.5,791,915,0
L,,406617,0.008,0.995,0.143,0.1,-2.8,5.3,791,913,0
L,,406676,0.030,0.997,0.138,0.2,-3.5,3.7,793,913,0
L,,406737,0.016,0.998,0.136,-1.3,-2.8,3.0,795,912,0
L,,406796,0.025,1.001,0.145,-1.9,-2.5,2.7,797,913,0
L,,406857,0.019,0.999,0.148,-2.3,-2.9,2.5,797,914,0
L,,406916,0.024,0.999,0.154,-2.1,-2.0,2.9,799,914,0
L,,406977,0.030,0.998,0.156,-1.2,-2.6,2.2,798,912,0
L,,407037,0.028,0.998,0.161,0.0,-4.2,1.2,800,910,0
L,,407096,0.032,0.994,0.149,-0.5,-4.1,0.7,800,910,0
L,,407157,0.018,0.995,0.164,-3.2,-1.8,0.7,800,910,0
L,,407216,0.033,0.995,0.166,-1.1,-2.8,0.1,802,909,0
L,,407277,0.022,0.996,0.160,-0.9,-1.4,0.9,803,910,0
L,,407336,0.027,0.998,0.165,-2.7,-0.7,1.9,803,910,0
L,,407397,0.024,0.996,0.169,-2.4,-2.4,2.4,804,910,0
L,,407457,0.022,0.995,0.181,-1.2,-2.8,4.1,803,910,0
L,,407517,0.020,0.997,0.183,1.3,-3.0,6.5,805,909,0
L,,407577,0.034,0.996,0.173,3.4,-1.6,8.4,805,909,0
L,,407636,0.065,0.997,0.175,5.6,0.8,7.7,803,910,0
L,,407697,0.065,0.996,0.162,7.7,-5.8,2.9,804,909,0
L,,407756,0.038,0.987,0.142,6.0,-1.3,3.0,803,910,0
L,,407846,0.060,0.998,0.151,-0.9,0.2,1.6,804,910,0
L,,407907,0.055,0.996,0.159,0.6,-1.6,1.3,805,910,0
L,,407997,0.055,0.998,0.162,2.8,0.7,3.3,804,910,0
L,,408057,0.064,0.997,0.148,4.7,-1.9,3.0,804,910,0
L,,408117,0.062,0.994,0.141,4.1,-4.1,2.1,803,910,0
L,,408176,0.064,0.997,0.138,2.3,-3.6,1.6,804,911,0
L,,408237,0.060,0.998,0.145,2.2,-3.5,1.6,802,911,0
L,,408327,0.063,0.997,0.146,5.4,-4.3,1.7,800,911,0
L,,408386,0.063,0.999,0.133,7.7,-4.4,2.3,799,913,0
L,,408447,0.063,1.000,0.124,8.6,-3.7,2.9,799,912,0
L,,408537,0.071,0.995,0.104,4.8,-3.4,3.0,798,910,0
L,,408596,0.072,0.999,0.105,2.7,-2.6,2.8,796,910,0
L,,409101,0.075,0.998,0.107,-1.2,-2.7,0.9,804,917,0
L,,409111,0.075,1.000,0.111,-1.2,-2.8,0.8,799,911,0
L,,409136,0.070,1.000,0.113,-1.4,-2.6,0.8,799,910,0
L,,409197,0.076,1.000,0.112,-1.4,-2.9,0.4,798,911,0
L,,409256,0.069,0.997,0.115,-1.4,-2.9,0.3,800,912,0
L,,409317,0.072,0.997,0.118,-1.4,-2.6,0.7,801,912,0
L,,409376,0.065,0.997,0.120,-1.3,-3.1,0.6,801,911,0
L,,409437,0.066,0.997,0.124,-0.8,-3.2,0.8,802,911,0
L,,409497,0.068,0.998,0.125,0.0,-2.9,1.3,801,912,0
L,,409557,0.068,0.997,0.125,0.4,-2.9,1.4,801,911,0
L,,409617,0.068,0.997,0.122,0.2,-3.0,1.3,798,912,0
L,,409676,0.073,0.999,0.122,-0.4,-2.9,1.0,801,911,0
L,,409737,0.069,0.997,0.128,-0.2,-2.8,1.0,804,914,0
L,,409827,0.070,0.999,0.129,0.9,-3.5,1.1,803,912,0
L,,409886,0.071,0.998,0.128,1.8,-3.4,1.4,803,911,0
L,,409947,0.073,0.996,0.121,2.6,-3.1,1.6,802,913,0
L,,410006,0.072,0.999,0.122,2.4,-3.2,1.3,802,913,0
L,,410067,0.070,1.000,0.121,2.1,-3.1,1.4,803,912,0
L,,410126,0.072,0.999,0.116,1.1,-3.1,1.1,804,913,0
L,,410216,0.074,0.997,0.119,0.3,-2.8,1.1,803,913,0
L,,410277,0.070,1.000,0.117,-0.2,-2.5,1.1,804,911,0
L,,410336,0.073,0.998,0.120,-0.3,-2.4,1.0,804,913,0
L,,410426,0.070,1.123,0.123,0.2,-2.6,0.7,803,913,0
L,,410487,0.076,0.998,0.122,0.2,-2.4,0.4,803,913,0
L,,410546,0.072,0.996,0.123,0.4,-2.6,-0.1,802,911,0
L,,410607,0.072,0.997,0.118,0.4,-2.6,-0.3,802,911,0
L,,410666,0.068,0.996,0.119,-0.5,-2.5,-0.5,803,913,0
L,,410727,0.068,0.995,0.125,-0.7,-2.6,-0.9,804,911,0
L,,410817,0.064,1.001,0.126,1.1,-3.7,-1.4,802,912,0
L,,410876,0.058,1.000,0.129,1.7,-3.9,-1.1,803,911,0
L,,410937,0.058,0.998,0.125,2.1,-4.1,-1.4,804,912,0
L,,410997,0.059,0.998,0.119,1.6,-3.6,-1.4,803,912,0
L,,411057,0.055,0.999,0.120,1.0,-3.4,-1.7,802,912,0
L,,411117,0.053,0.998,0.117,0.9,-3.4,-1.9,804,913,0
L,,411177,0.051,0.999,0.116,0.5,-3.9,-2.7,803,910,0
L,,411267,0.040,1.001,0.126,0.7,-4.1,-3.9,804,914,0
L,,411327,0.035,1.002,0.124,1.1,-4.6,-4.5,804,913,0
L,,411387,0.035,1.000,0.122,1.7,-5.0,-4.8,805,912,0
L,,411447,0.019,0.999,0.118,1.8,-5.3,-5.7,802,912,0
L,,411506,0.020,1.003,0.116,0.9,-5.1,-6.5,804,912,0
L,,411567,0.007,0.996,0.106,-0.3,-4.4,-7.9,806,912,0
L,,411626,-0.016,1.002,0.111,-2.4,-0.2,-8.1,805,911,0
L,,411687,-0.007,0.998,0.122,-3.4,-0.6,-9.2,805,912,0
L,,411747,-0.028,1.000,0.135,-2.2,2.5,-7.5,804,914,0
L,,411807,-0.033,1.006,0.126,0.9,1.5,-7.6,806,915,0
L,,411867,-0.035,1.000,0.120,3.5,-0.8,-6.9,808,913,0
L,,413001,-0.008,1.017,0.024,40.8,-4.6,19.6,797,917,0
L,,413011,0.006,1.009,0.002,42.0,-3.9,19.6,789,913,0
L,,413067,0.019,0.961,-0.099,31.1,1.1,17.8,768,912,0
L,,413126,0.034,1.000,-0.076,13.3,8.1,16.5,745,910,0
L,,413187,0.042,0.985,-0.092,2.0,10.8,16.1,719,910,0
L,,413247,0.092,0.970,-0.067,-3.9,6.9,15.9,697,911,0
L,,413307,0.085,0.980,-0.048,-2.2,0.4,17.7,691,909,0
L,,413367,0.098,1.023,-0.010,12.9,-2.7,17.2,699,907,0
L,,413457,0.143,1.013,-0.099,12.5,0.4,14.0,667,908,0
L,,413517,0.180,0.988,-0.099,4.4,0.2,10.1,635,907,0
L,,413607,0.142,0.954,-0.099,4.9,3.1,7.4,616,906,0
L,,413666,0.138,0.955,-0.108,8.3,3.0,6.9,618,907,0
L,,413727,0.171,0.983,-0.106,8.8,-0.8,6.5,628,908,0
L,,413787,0.207,1.004,-0.108,7.0,-3.2,5.3,625,908,0
L,,413847,0.201,0.984,-0.117,5.2,-4.1,3.9,624,907,0
L,,413950,0.172,0.958,-0.130,11.2,-5.8,4.2,609,906,0
L,,413967,0.167,0.961,-0.143,11.6,-5.9,4.3,608,906,0
L,,414027,0.187,0.942,-0.173,6.5,-2.5,3.7,606,907,0
L,,414087,0.195,0.953,-0.163,0.6,-2.9,3.8,604,906,0
L,,414147,0.186,0.970,-0.152,-1.3,-3.2,3.6,604,907,0
L,,414207,0.205,0.975,-0.139,0.7,-2.0,2.5,617,909,0
L,,414267,0.207,0.973,-0.144,3.6,-2.1,1.8,624,907,0
L,,414327,0.204,0.966,-0.159,2.1,-2.1,0.9,626,909,0
L,,414387,0.197,0.958,-0.162,-0.4,-1.2,1.4,629,907,0
L,,414447,0.223,0.964,-0.151,-1.5,-1.8,0.4,633,907,0
L,,414507,0.200,0.967,-0.144,0.3,-4.8,0.1,636,909,0
L,,414567,0.176,0.959,-0.158,1.1,-4.4,-0.1,631,908,0
L,,414626,0.201,0.945,-0.162,-2.1,-2.7,0.1,640,909,0
L,,414687,0.198,0.968,-0.145,-2.8,-2.8,-0.6,638,906,0
L,,414747,0.195,0.958,-0.148,-4.6,-1.5,-0.9,635,905,0
L,,414807,0.180,0.950,-0.143,-5.5,-1.6,-1.3,638,907,0
L,,414867,0.191,0.973,-0.127,-5.9,-1.6,-1.2,642,906,0
L,,414927,0.191,1.021,-0.100,-3.5,-5.1,-1.4,667,905,0
L,,414987,0.186,0.968,-0.126,-0.8,-2.8,-1.8,677,907,0
L,,415047,0.184,0.962,-0.116,0.3,-4.2,-1.6,684,906,0
L,,415107,0.176,0.979,-0.123,0.2,-3.5,-1.7,678,906,0
L,,415166,0.181,0.978,-0.117,-1.1,-3.0,-1.9,675,906,0
L,,415227,0.170,0.993,-0.114,0.2,-4.3,-1.1,692,906,0
L,,415287,0.166,0.975,-0.116,0.7,-4.2,0.7,693,907,0
L,,415347,0.177,0.979,-0.122,2.2,-4.9,1.1,695,907,0
L,,415407,0.170,0.964,-0.129,0.2,-2.8,1.1,701,909,0
L,,415467,0.181,0.980,-0.114,-1.1,-3.4,1.4,700,907,0
L,,415527,0.173,0.987,-0.110,1.4,-5.8,-0.8,693,910,0
L,,415587,0.169,0.975,-0.126,0.7,-3.2,-2.5,702,908,0
L,,415647,0.166,0.970,-0.123,-1.5,-2.3,-2.3,703,906,0
