side,stage,device_ms,ax,ay,az,gx,gy,gz,toe,heel,phase,L_toe,L_heel,R_toe,R_heel
R,,8989335.0,0.016,0.997,-0.084,0.0,-0.4,0.0,620,875,0,,,,
R,,8989345.0,0.018,0.996,-0.08,0.0,-0.4,0.0,647,871,0,,,,
R,,8989355.0,0.013,0.997,-0.081,0.0,-0.4,0.0,539,877,0,,,,
R,,8989365.0,0.015,0.995,-0.083,0.0,-0.4,0.0,736,870,0,,,,
R,,8989375.0,0.015,0.998,-0.082,0.0,-0.4,0.0,738,868,0,,,,
R,,8989385.0,0.015,0.996,-0.081,0.0,-0.4,0.0,738,870,0,,,,
R,,8989395.0,0.014,0.996,-0.083,0.0,-0.4,0.0,738,868,0,,,,
R,,8989405.0,0.017,0.995,-0.084,0.0,-0.4,0.0,736,870,0,,,,
R,,8989415.0,0.013,0.996,-0.082,0.0,-0.4,0.0,735,867,0,,,,
R,,8989425.0,0.017,0.993,-0.08,0.0,-0.4,0.0,736,869,0,,,,
R,,8989435.0,0.017,0.996,-0.077,0.0,-0.4,0.0,740,868,0,,,,
R,,8989445.0,0.016,0.997,-0.083,0.0,-0.4,0.0,738,869,0,,,,
R,,8989455.0,0.015,0.994,-0.083,0.0,-0.4,0.0,738,870,0,,,,
R,,8989465.0,0.018,0.998,-0.081,0.0,-0.4,0.0,738,868,0,,,,
R,,8989475.0,0.017,0.996,-0.081,0.0,-0.4,0.0,738,870,0,,,,
R,,8989485.0,0.019,0.996,-0.081,0.0,-0.4,0.0,688,873,0,,,,
R,,8989495.0,0.016,0.996,-0.078,0.0,-0.4,0.0,723,868,0,,,,
R,,8989505.0,0.017,0.997,-0.079,0.0,-0.4,0.0,615,874,0,,,,
R,,8989515.0,0.014,0.995,-0.078,0.0,-0.4,0.0,692,872,0,,,,
R,,8989525.0,0.015,0.998,-0.082,0.0,-0.3,0.0,730,872,0,,,,
R,,8989535.0,0.015,0.997,-0.08,0.0,-0.4,0.0,734,870,0,,,,
R,,8989545.0,0.014,0.996,-0.08,0.0,-0.4,0.0,659,874,0,,,,
R,,8989555.0,0.016,0.996,-0.081,0.0,-0.4,0.0,692,871,0,,,,
R,,8989565.0,0.013,0.997,-0.083,0.0,-0.4,0.0,689,871,0,,,,
R,,8989575.0,0.018,0.996,-0.082,0.0,-0.4,0.0,729,872,0,,,,
R,,8989585.0,0.016,0.996,-0.081,0.0,-0.4,0.0,722,872,0,,,,
R,,8989595.0,0.017,0.994,-0.081,0.0,-0.4,0.0,734,870,0,,,,
R,,8989605.0,0.015,0.996,-0.077,0.0,-0.4,0.0,729,871,0,,,,
R,,8989615.0,0.014,0.995,-0.081,0.0,-0.4,0.0,677,872,0,,,,
R,,8989625.0,0.018,0.996,-0.076,0.0,-0.4,0.0,732,869,0,,,,
R,,8989635.0,0.015,0.997,-0.082,0.0,-0.4,0.0,736,870,0,,,,
R,,8989645.0,0.013,0.995,-0.08,0.0,-0.4,0.0,734,869,0,,,,
R,,8989655.0,0.015,0.996,-0.083,0.0,-0.4,0.0,712,871,0,,,,
R,,8989665.0,0.016,0.996,-0.081,0.0,-0.4,0.0,737,870,0,,,,
R,,8989675.0,0.016,0.996,-0.082,0.0,-0.4,0.0,737,872,0,,,,
R,,8989685.0,0.017,0.996,-0.083,0.0,-0.4,0.0,735,872,0,,,,
R,,8989695.0,0.019,0.997,-0.08,0.0,-0.4,0.0,737,872,0,,,,
R,,8989705.0,0.018,0.997,-0.08,0.0,-0.4,0.0,736,869,0,,,,
R,,8989715.0,0.018,0.996,-0.078,0.0,-0.4,0.0,737,871,0,,,,
R,,8989725.0,0.014,0.998,-0.082,0.0,-0.4,0.0,739,870,0,,,,
R,,8989735.0,0.017,0.996,-0.078,0.0,-0.4,0.0,739,870,0,,,,
R,,8989745.0,0.018,0.996,-0.083,0.0,-0.4,0.0,738,873,0,,,,
R,,8989755.0,0.017,0.996,-0.08,0.0,-0.4,0.0,727,869,0,,,,
R,,8989765.0,0.017,0.997,-0.081,0.0,-0.4,0.0,724,871,0,,,,
R,,8989775.0,0.016,0.995,-0.08,0.0,-0.4,0.0,720,871,0,,,,
R,,8989785.0,0.014,0.997,-0.08,0.0,-0.4,0.0,729,870,0,,,,
R,,8989795.0,0.016,0.995,-0.08,0.0,-0.4,0.0,734,870,0,,,,
R,,8989805.0,0.019,0.996,-0.083,0.0,-0.4,0.0,725,873,0,,,,
R,,8989815.0,0.012,0.996,-0.081,0.0,-0.4,0.0,731,871,0,,,,
R,,8989825.0,0.022,0.997,-0.079,0.0,-0.4,0.0,725,870,0,,,,
R,,8989835.0,0.021,0.997,-0.082,0.0,-0.4,-0.1,732,870,0,,,,
R,,8989845.0,0.016,0.997,-0.082,0.0,-0.4,-0.1,731,870,0,,,,
R,,8989855.0,0.016,0.997,-0.08,0.0,-0.4,-0.1,734,870,0,,,,
R,,8989865.0,0.014,0.994,-0.079,0.0,-0.4,0.0,736,870,0,,,,
R,,8989875.0,0.019,0.996,-0.078,0.0,-0.4,0.0,733,869,0,,,,
R,,8989885.0,0.014,0.994,-0.082,0.0,-0.4,0.0,732,871,0,,,,
R,,8989895.0,0.017,0.995,-0.081,0.0,-0.4,0.0,733,871,0,,,,
R,,8989905.0,0.018,0.996,-0.081,0.0,-0.4,0.0,733,872,0,,,,
R,,8989915.0,0.017,0.994,-0.083,0.0,-0.4,-0.1,733,870,0,,,,
R,,8989925.0,0.019,0.998,-0.081,0.1,-0.4,0.0,735,870,0,,,,
R,,8989935.0,0.015,0.995,-0.079,0.1,-0.4,-0.1,738,871,0,,,,
R,,8989945.0,0.017,0.996,-0.083,0.1,-0.4,0.0,737,870,0,,,,
R,,8989955.0,0.016,0.998,-0.085,0.0,-0.4,-0.1,738,870,0,,,,
R,,8989965.0,0.016,0.996,-0.082,0.0,-0.4,-0.1,738,869,0,,,,
R,,8989975.0,0.016,0.993,-0.083,0.0,-0.4,0.0,736,869,0,,,,
R,,8989985.0,0.017,0.995,-0.081,0.0,-0.4,0.0,738,871,0,,,,
R,,8989995.0,0.016,0.996,-0.083,0.0,-0.4,0.0,739,871,0,,,,
R,,8990005.0,0.019,0.996,-0.082,0.0,-0.4,0.0,738,869,0,,,,
R,,8990015.0,0.018,0.997,-0.083,0.0,-0.4,0.0,737,870,0,,,,
R,,8990025.0,0.017,0.995,-0.082,0.0,-0.4,0.0,739,870,0,,,,
R,,8990035.0,0.017,0.996,-0.08,0.0,-0.4,0.0,737,871,0,,,,
R,,8990045.0,0.018,0.996,-0.084,0.0,-0.4,0.0,739,870,0,,,,
R,,8990055.0,0.016,0.995,-0.081,0.0,-0.4,0.0,738,870,0,,,,
R,,8990065.0,0.016,0.996,-0.083,0.0,-0.4,0.0,739,872,0,,,,
R,,8990075.0,0.017,0.996,-0.079,0.0,-0.4,-0.1,737,871,0,,,,
R,,8990085.0,0.02,0.998,-0.081,0.0,-0.4,-0.1,740,870,0,,,,
R,,8990095.0,0.017,0.997,-0.081,0.0,-0.4,-0.1,737,870,0,,,,
R,,8990105.0,0.017,0.995,-0.08,0.0,-0.4,-0.1,739,870,0,,,,
R,,8990115.0,0.017,0.996,-0.078,0.0,-0.4,-0.1,735,872,0,,,,
R,,8990125.0,0.017,0.997,-0.08,0.0,-0.4,-0.1,739,870,0,,,,
R,,8990135.0,0.016,0.996,-0.08,0.0,-0.4,-0.1,739,871,0,,,,
R,,8990145.0,0.018,0.996,-0.083,0.0,-0.4,-0.1,737,870,0,,,,
R,,8990155.0,0.015,1.0,-0.081,0.0,-0.4,-0.1,738,871,0,,,,
R,,8990165.0,0.018,0.993,-0.081,0.0,-0.4,-0.1,739,871,0,,,,
R,,8990175.0,0.017,0.996,-0.08,0.0,-0.4,-0.1,739,871,0,,,,
R,,8990185.0,0.017,0.996,-0.081,0.0,-0.4,-0.1,740,871,0,,,,
R,,8990195.0,0.016,0.997,-0.079,0.0,-0.4,0.0,739,871,0,,,,
R,,8990205.0,0.016,0.996,-0.08,0.0,-0.4,-0.1,740,868,0,,,,
R,,8990215.0,0.018,0.996,-0.084,0.0,-0.4,0.0,737,871,0,,,,
R,,8990225.0,0.018,0.998,-0.081,0.0,-0.4,-0.1,739,867,0,,,,
R,,8990235.0,0.018,0.998,-0.083,0.0,-0.4,-0.1,739,869,0,,,,
R,,8990245.0,0.014,0.995,-0.08,0.0,-0.4,0.0,738,871,0,,,,
R,,8990255.0,0.016,0.998,-0.082,0.0,-0.4,-0.1,739,871,0,,,,
R,,8990265.0,0.017,0.997,-0.083,0.0,-0.4,-0.1,740,871,0,,,,
R,,8990275.0,0.014,0.997,-0.079,0.0,-0.4,-0.1,738,870,0,,,,
R,,8990285.0,0.017,0.995,-0.083,0.0,-0.4,-0.1,740,869,0,,,,
R,,8990295.0,0.016,0.996,-0.082,0.0,-0.4,-0.1,737,871,0,,,,
R,,8990305.0,0.018,0.996,-0.079,0.0,-0.4,0.0,738,871,0,,,,
R,,8990315.0,0.016,0.998,-0.08,0.0,-0.4,-0.1,739,870,0,,,,
R,,8990325.0,0.015,0.994,-0.081,0.0,-0.4,-0.1,737,871,0,,,,
R,,8990335.0,0.015,0.997,-0.079,0.0,-0.4,0.0,738,872,0,,,,
R,,8990345.0,0.016,0.994,-0.081,0.0,-0.4,-0.1,738,871,0,,,,
R,,8990355.0,0.014,0.996,-0.082,0.0,-0.4,-0.1,739,872,0,,,,
R,,8990365.0,0.017,0.998,-0.083,0.0,-0.4,-0.1,738,870,0,,,,
R,,8990375.0,0.018,0.997,-0.08,0.0,-0.4,-0.1,738,871,0,,,,
R,,8990385.0,0.018,0.998,-0.081,0.0,-0.4,-0.1,740,870,0,,,,
R,,8990395.0,0.015,0.996,-0.08,0.0,-0.4,-0.1,742,869,0,,,,
R,,8990405.0,0.016,0.996,-0.084,0.0,-0.4,-0.1,739,871,0,,,,
R,,8990415.0,0.018,0.997,-0.08,0.0,-0.3,-0.1,736,870,0,,,,
R,,8990425.0,0.015,0.998,-0.084,0.0,-0.4,-0.1,738,871,0,,,,
R,,8990435.0,0.015,0.996,-0.082,0.0,-0.4,-0.1,739,871,0,,,,
R,,8990445.0,0.014,0.996,-0.081,0.0,-0.4,-0.1,739,872,0,,,,
R,,8990455.0,0.014,0.996,-0.081,0.0,-0.4,-0.1,737,872,0,,,,
R,,8990465.0,0.012,0.996,-0.08,0.0,-0.4,-0.1,740,872,0,,,,
R,,8990475.0,0.016,0.994,-0.078,0.0,-0.4,0.0,738,870,0,,,,
R,,8990485.0,0.016,0.994,-0.079,0.0,-0.4,0.0,737,870,0,,,,
R,,8990495.0,0.016,0.997,-0.081,0.0,-0.4,-0.1,739,871,0,,,,
R,,8990505.0,0.015,0.998,-0.084,0.0,-0.4,-0.1,739,870,0,,,,
R,,8990515.0,0.013,0.995,-0.081,0.0,-0.4,-0.1,740,870,0,,,,
R,,8990525.0,0.014,0.995,-0.081,0.0,-0.4,-0.1,740,871,0,,,,
R,,8990535.0,0.016,0.997,-0.082,0.0,-0.4,-0.1,738,872,0,,,,
R,,8990545.0,0.014,0.998,-0.082,0.0,-0.4,-0.1,740,872,0,,,,
R,,8990555.0,0.012,0.996,-0.078,0.0,-0.4,-0.1,740,871,0,,,,
R,,8990565.0,0.015,0.999,-0.081,0.0,-0.4,-0.1,739,870,0,,,,
R,,8990575.0,0.02,0.996,-0.085,0.0,-0.4,-0.1,742,871,0,,,,
R,,8990585.0,0.013,0.994,-0.08,0.0,-0.4,0.0,738,871,0,,,,
R,,8990630.0,0.013,0.998,-0.081,0.0,-0.4,0.0,691,872,0,,,,
R,,8990690.0,0.011,0.995,-0.083,0.0,-0.4,0.0,526,880,0,,,,
R,,8990751.0,0.012,0.995,-0.078,0.0,-0.4,-0.1,728,871,0,,,,
R,,8990810.0,0.015,0.997,-0.079,0.0,-0.4,0.0,693,873,0,,,,
R,,8990871.0,0.014,0.993,-0.081,0.0,-0.4,0.0,0,899,0,,,,
R,,8990930.0,0.015,0.996,-0.079,0.0,-0.4,0.0,0,900,0,,,,
R,,8990991.0,0.014,0.996,-0.074,0.0,-0.4,0.0,0,898,0,,,,
R,,8991050.0,0.015,0.999,-0.077,0.0,-0.4,0.0,736,871,0,,,,
R,,8991110.0,0.013,0.994,-0.073,0.0,-0.4,0.0,725,870,0,,,,
R,,8991170.0,0.018,0.996,-0.076,0.0,-0.5,0.0,735,868,0,,,,
R,,8991230.0,0.016,0.998,-0.078,0.0,-0.4,0.0,730,871,0,,,,
R,,8991291.0,0.011,0.994,-0.075,0.1,-0.4,0.0,724,872,0,,,,
R,,8991350.0,0.02,1.0,-0.077,0.1,-0.4,0.0,732,871,0,,,,
R,,8991411.0,0.017,0.997,-0.075,0.0,-0.4,0.0,732,872,0,,,,
R,,8991472.0,0.018,0.997,-0.073,0.0,-0.4,-0.1,683,874,0,,,,
R,,8991531.0,0.014,0.996,-0.075,0.0,-0.4,0.0,695,873,0,,,,
R,,8991590.0,0.012,0.996,-0.072,0.0,-0.4,0.0,731,872,0,,,,
R,,8991650.0,0.014,0.995,-0.076,0.0,-0.5,0.0,620,877,0,,,,
R,,8991710.0,0.019,1.0,-0.069,0.0,-0.6,0.0,735,874,0,,,,
R,,8991770.0,0.017,0.995,-0.073,0.1,-0.3,0.0,740,873,0,,,,
R,,8991831.0,0.019,0.997,-0.078,0.0,-0.3,-0.1,735,873,0,,,,
R,,8991890.0,0.02,0.996,-0.072,0.0,-0.3,-0.1,712,873,0,,,,
R,,8991951.0,0.015,0.996,-0.07,0.0,-0.3,-0.1,735,872,0,,,,
R,,8992010.0,0.017,0.997,-0.075,0.0,-0.4,-0.1,728,874,0,,,,
R,,8992071.0,0.019,0.997,-0.076,0.0,-0.4,0.0,739,872,0,,,,
R,,8992130.0,0.014,0.997,-0.08,0.0,-0.3,-0.1,739,872,0,,,,
R,,8992192.0,0.02,1.002,-0.077,0.0,-0.4,-0.1,734,876,0,,,,
R,,8992250.0,0.016,0.997,-0.07,0.0,-0.5,-0.1,731,873,0,,,,
R,,8992310.0,0.011,0.995,-0.067,0.0,-0.6,-0.1,0,904,0,,,,
R,,8992371.0,0.018,0.997,-0.065,0.0,-0.4,-0.1,0,902,0,,,,
R,,8992430.0,0.012,0.999,-0.072,0.0,-0.3,-0.2,0,904,0,,,,
R,,8992491.0,0.017,0.994,-0.063,-0.1,-0.4,-0.1,0,903,0,,,,
R,,8992550.0,0.015,0.996,-0.063,0.0,-0.4,0.0,0,906,0,,,,
R,,8992611.0,0.008,1.0,-0.071,0.1,-0.3,-0.1,0,903,0,,,,
R,,8992670.0,0.012,1.0,-0.073,0.0,-0.3,-0.2,0,900,0,,,,
R,,8992730.0,0.01,0.993,-0.064,0.0,-0.3,-0.1,0,902,0,,,,
R,,8992791.0,0.015,0.992,-0.066,0.3,-0.3,-0.1,739,871,0,,,,
R,,8992852.0,0.015,1.0,-0.078,0.3,-0.2,-0.1,741,871,0,,,,
R,,8992911.0,0.005,0.997,-0.079,0.0,-0.3,-0.2,740,874,0,,,,
R,,8992970.0,0.012,0.999,-0.074,0.0,-0.4,-0.1,739,872,0,,,,
R,,8993031.0,0.012,1.001,-0.066,0.0,-0.4,0.0,737,873,0,,,,
R,,8993090.0,0.003,0.989,-0.068,0.1,-0.3,-0.1,738,871,0,,,,
R,,8993151.0,0.011,1.003,-0.078,0.0,-0.3,-0.2,731,874,0,,,,
R,,8993210.0,0.004,0.997,-0.074,0.0,-0.4,0.0,662,877,0,,,,
R,,8993270.0,0.007,0.999,-0.073,0.0,-0.3,-0.2,720,874,0,,,,
R,,8993331.0,-0.004,0.994,-0.077,0.0,-0.4,-0.1,727,875,0,,,,
R,,8993390.0,0.017,1.001,-0.064,0.0,-0.5,0.0,723,875,0,,,,
R,,8993451.0,0.007,0.993,-0.076,0.2,-0.4,0.0,737,874,0,,,,
R,,8993510.0,0.005,1.0,-0.08,0.0,-0.5,0.0,740,872,0,,,,
R,,8993572.0,0.012,0.996,-0.067,-0.2,-0.4,0.0,738,872,0,,,,
R,,8993630.0,0.004,0.995,-0.064,-0.1,-0.4,0.0,741,876,0,,,,
R,,8993690.0,0.008,0.993,-0.064,0.0,-0.4,0.0,658,875,0,,,,
R,,8993750.0,0.02,1.004,-0.07,0.0,-0.4,0.0,740,875,0,,,,
R,,8993810.0,0.011,0.998,-0.067,0.0,-0.4,-0.1,739,874,0,,,,
R,,8993871.0,0.01,0.996,-0.06,0.0,-0.3,-0.1,722,874,0,,,,
R,,8993930.0,0.014,1.004,-0.067,0.0,-0.4,0.0,711,876,0,,,,
R,,8993991.0,0.005,0.996,-0.068,-0.1,-0.5,-0.1,0,903,0,,,,
R,,8994050.0,0.014,0.995,-0.055,-0.1,-0.6,0.0,0,901,0,,,,
R,,8994111.0,0.007,1.001,-0.063,-0.1,-0.7,0.0,737,874,0,,,,
R,,8994170.0,0.029,1.003,-0.055,-0.2,-0.7,0.0,720,873,0,,,,
R,,8994230.0,0.013,0.998,-0.057,-0.1,-0.3,-0.2,718,872,0,,,,
R,,8994291.0,0.012,0.998,-0.054,-0.4,-0.3,-0.3,715,873,0,,,,
R,,8994350.0,0.009,0.997,-0.045,-0.2,-0.2,-0.3,344,888,0,,,,
R,,8994411.0,-0.003,0.995,-0.04,0.0,-0.2,-0.2,708,874,0,,,,
R,,8994470.0,0.005,1.0,-0.048,0.0,-0.3,0.0,725,871,0,,,,
R,,8994531.0,0.013,1.002,-0.047,-0.1,-0.3,-0.1,678,872,0,,,,
R,,8994621.0,0.008,1.0,-0.035,-0.2,-0.4,0.0,729,871,0,,,,
R,,8994680.0,0.005,1.005,-0.043,-0.1,-0.4,-0.1,723,870,0,,,,
R,,8994741.0,0.003,1.004,-0.043,-0.3,-0.5,-0.2,731,869,0,,,,
R,,8994800.0,0.002,1.004,-0.037,-0.5,-0.6,-0.2,727,869,0,,,,
R,,8994861.0,0.001,0.999,-0.022,-0.4,-0.6,-0.2,660,870,0,,,,
R,,8994920.0,0.0,0.996,-0.021,-0.1,-0.5,-0.1,730,874,0,,,,
R,,8994982.0,0.0,1.002,-0.026,-0.1,-0.5,0.0,728,873,0,,,,
R,,8995041.0,0.008,1.005,-0.022,-0.2,-0.5,-0.1,728,872,0,,,,
R,,8995100.0,0.012,1.004,-0.007,0.0,-0.7,-0.2,724,870,0,,,,
R,,8995161.0,-0.028,0.886,-0.018,0.0,-2.5,-0.2,723,876,0,,,,
R,,8995220.0,0.01,1.004,0.001,0.1,-2.1,0.0,636,886,0,,,,
R,,8995281.0,-0.054,0.961,-0.033,-0.1,-1.8,0.8,697,883,0,,,,
R,,8995340.0,0.002,0.997,-0.057,-1.1,-1.0,1.1,703,886,0,,,,
R,,8995401.0,0.063,1.097,-0.043,-3.6,-0.5,0.7,716,887,0,,,,
R,,8995460.0,0.044,1.216,-0.116,-8.9,-1.1,0.2,636,884,0,,,,
R,,8995520.0,0.125,1.426,-0.119,-12.1,0.9,-0.9,508,844,0,,,,
R,,8995581.0,-0.158,0.729,-0.013,-8.4,9.7,-0.9,0,801,0,,,,
R,,8995640.0,-0.198,0.533,-0.623,3.4,21.0,-0.4,0,787,0,,,,
R,,8995702.0,-0.283,0.715,-0.414,11.2,12.1,2.7,0,786,0,,,,
R,,8995760.0,-0.158,1.006,-0.331,16.0,3.1,3.6,0,781,0,,,,
R,,8995821.0,-0.116,1.227,-0.195,18.7,1.2,0.9,0,775,0,,,,
R,,8995880.0,-0.148,1.283,0.07,15.6,-3.3,2.0,0,767,0,,,,
R,,8995941.0,0.105,1.158,0.465,8.3,-2.2,-1.2,0,769,0,,,,
R,,8996000.0,0.136,1.12,0.574,-0.3,2.2,-1.9,0,775,0,,,,
R,,8996060.0,0.514,1.184,-0.728,-5.0,2.1,-2.9,2,809,0,,,,
R,,8996121.0,0.169,1.094,-0.282,-7.2,1.6,-2.8,648,786,0,,,,
R,,8996180.0,-0.245,0.871,-0.143,-4.9,0.6,-1.9,450,826,0,,,,
R,,8996241.0,-0.03,0.993,-0.137,-2.1,0.6,-2.3,0,882,0,,,,
R,,8996300.0,-0.164,0.977,-0.208,-2.3,-0.3,-1.8,0,891,0,,,,
R,,8996361.0,-0.131,1.018,-0.197,-2.3,-0.6,-1.2,0,900,0,,,,
R,,8996422.0,-0.121,1.03,-0.176,-4.0,-1.4,-0.8,0,906,0,,,,
R,,8996481.0,-0.144,0.996,-0.091,-4.2,-1.8,-1.1,0,904,0,,,,
R,,8996541.0,-0.151,0.995,-0.061,-4.2,-2.1,-1.0,0,907,0,,,,
R,,8996600.0,-0.168,0.994,-0.037,-3.8,-2.1,-0.5,0,908,0,,,,
R,,8996661.0,-0.156,0.999,-0.004,-4.0,-1.8,-0.4,0,908,0,,,,
R,,8996720.0,-0.132,1.016,0.01,-5.0,-1.6,-0.5,0,907,0,,,,
R,,8996781.0,-0.141,1.047,0.066,-5.9,-2.5,-0.8,0,908,0,,,,
R,,8996840.0,-0.102,1.115,0.106,-7.3,-1.7,-1.8,0,904,0,,,,
R,,8996901.0,-0.13,1.236,-0.013,-9.7,-2.8,-3.1,0,902,0,,,,
R,,8996960.0,-0.042,1.367,-0.077,-13.5,-3.8,-4.8,4,891,0,,,,
R,,8997021.0,-0.392,1.475,-0.196,-16.9,-8.2,-7.5,53,875,0,,,,
R,,8997083.0,-0.164,1.147,0.082,-18.0,-12.0,-7.2,38,821,0,,,,
R,,8997140.0,-0.049,0.141,0.981,-9.3,-7.6,0.0,367,689,0,,,,
R,,8997201.0,0.149,0.335,-0.179,10.2,8.0,7.1,0,709,0,,,,
R,,8997260.0,0.081,0.484,-0.251,21.7,9.4,12.5,0,712,0,,,,
R,,8997321.0,-0.01,0.935,-0.192,29.5,7.4,14.7,0,710,0,,,,
R,,8997380.0,-0.099,1.613,-0.243,34.8,9.2,12.7,382,674,0,,,,
R,,8997441.0,-0.462,1.807,0.052,33.0,11.0,10.7,282,672,0,,,,
R,,8997500.0,-0.61,1.674,0.569,21.7,4.3,8.7,228,699,0,,,,
R,,8997560.0,-0.364,1.484,0.982,-3.5,0.2,-3.9,243,709,0,,,,
R,,8997621.0,0.321,1.221,-0.806,-4.4,15.7,-9.3,593,737,0,,,,
R,,8997680.0,0.299,1.134,-0.108,-7.5,-3.8,-6.9,645,780,0,,,,
R,,8997741.0,0.016,0.958,-0.469,-5.7,6.9,-6.9,663,793,0,,,,
R,,8997802.0,0.005,0.994,-0.199,-9.0,8.1,-8.4,683,821,0,,,,
R,,8997861.0,-0.12,1.029,-0.133,-7.6,4.2,-4.6,712,854,0,,,,
R,,8997920.0,0.012,1.102,-0.067,-6.6,4.2,-3.2,0,904,0,,,,
R,,8997981.0,0.058,1.062,-0.031,-6.9,2.7,-2.4,0,903,0,,,,
R,,8998041.0,-0.082,0.963,0.022,-5.2,2.9,-2.4,0,903,0,,,,
R,,8998100.0,-0.247,0.904,-0.028,-4.1,1.3,-1.2,0,900,0,,,,
R,,8998161.0,-0.056,0.99,0.072,-4.1,-1.0,-0.6,0,900,0,,,,
R,,8998220.0,-0.146,1.016,0.055,-4.6,-2.7,-0.7,0,901,0,,,,
R,,8998281.0,-0.089,1.094,0.095,-5.9,-6.2,0.6,0,898,0,,,,
R,,8998340.0,-0.128,1.191,-0.071,-7.3,-6.4,1.1,181,886,0,,,,
R,,8998401.0,-0.282,0.959,0.075,-7.6,-9.2,-0.6,113,860,0,,,,
R,,8998462.0,-0.72,0.793,0.03,-1.7,-20.6,-2.4,211,828,0,,,,
R,,8998521.0,-0.605,0.665,-0.137,3.8,-33.7,-3.0,0,800,0,,,,
R,,8998581.0,-0.072,0.83,0.086,8.8,-36.6,-4.4,0,715,0,,,,
R,,8998640.0,-0.081,1.112,0.228,6.3,-24.9,-7.6,0,738,0,,,,
R,,8998701.0,-0.073,1.204,0.144,0.8,-27.3,-7.0,0,744,0,,,,
R,,8998760.0,0.191,1.251,0.144,-2.9,-28.1,-6.7,0,749,0,,,,
R,,8998821.0,0.191,1.141,-0.123,-5.8,-24.2,-5.8,0,758,0,,,,
R,,8998880.0,0.074,1.053,-0.123,-6.4,-23.0,-4.4,0,771,0,,,,
R,,8998941.0,-0.024,1.012,-0.373,-6.6,-28.3,-3.8,0,771,0,,,,
R,,8999000.0,0.354,0.708,-0.24,-2.7,-23.2,-3.7,0,775,0,,,,
R,,8999061.0,0.137,0.942,-0.751,10.9,-7.8,-3.9,0,784,0,,,,
R,,8999121.0,0.302,0.882,0.391,5.5,-6.7,0.0,0,810,0,,,,
R,,8999212.0,-0.472,1.171,-0.314,10.8,1.2,-3.1,0,896,0,,,,
R,,8999271.0,0.508,1.197,0.254,9.1,6.2,-4.6,0,907,0,,,,
R,,8999331.0,-0.453,0.995,-0.19,6.0,0.7,-1.7,0,906,0,,,,
R,,8999390.0,-0.097,1.108,0.0,4.0,-0.8,-1.9,0,905,0,,,,
R,,8999481.0,-0.046,1.015,-0.106,3.4,-2.7,-0.8,0,896,0,,,,
R,,8999541.0,-0.109,0.992,-0.103,2.4,-3.1,-0.7,0,894,0,,,,
R,,8999601.0,-0.129,0.993,-0.129,1.9,-3.9,-0.6,0,898,0,,,,
R,,8999661.0,-0.097,0.996,-0.101,1.4,-3.8,-0.6,0,892,0,,,,
R,,8999750.0,-0.142,0.986,-0.145,0.2,-2.3,-1.5,0,896,0,,,,
R,,8999840.0,-0.137,1.004,-0.129,-1.4,-1.9,-2.9,0,896,0,,,,
R,,8999901.0,-0.173,1.007,-0.138,-2.4,-2.2,-3.0,0,895,0,,,,
R,,8999960.0,-0.229,0.986,-0.063,-2.9,-3.7,-3.9,0,896,0,,,,
R,,9000022.0,-0.219,1.025,-0.04,-2.6,-3.7,-4.5,0,898,0,,,,
R,,9000081.0,-0.212,1.077,-0.016,-3.2,-4.3,-5.0,0,900,0,,,,
R,,9000140.0,-0.203,1.24,-0.103,-4.7,-6.1,-6.5,0,892,0,,,,
R,,9000201.0,-0.215,1.29,-0.155,-6.1,-10.7,-10.5,0,863,0,,,,
R,,9000260.0,-0.256,1.308,0.04,-5.7,-23.0,-12.5,77,805,0,,,,
R,,9000321.0,0.0,1.246,0.286,-10.0,-19.8,-8.3,294,609,0,,,,
R,,9000380.0,0.467,0.812,-0.296,1.2,-25.9,0.1,281,616,0,,,,
R,,9000441.0,0.476,0.415,-0.011,7.9,-15.2,9.5,0,665,0,,,,
R,,9000500.0,0.264,0.578,-0.082,19.6,-1.9,13.7,0,684,0,,,,
R,,9000561.0,0.083,0.951,-0.146,28.2,2.2,17.1,0,700,0,,,,
R,,9000621.0,-0.167,1.615,-0.203,33.1,0.4,18.7,0,708,0,,,,
R,,9000682.0,-0.419,1.956,0.305,28.0,-2.9,14.8,0,717,0,,,,
R,,9000741.0,-0.644,1.657,1.327,6.8,-5.7,3.1,262,704,0,,,,
R,,9000800.0,0.145,0.654,-1.1,-3.8,3.4,-5.9,0,771,0,,,,
R,,9000861.0,0.13,1.267,-0.121,-9.6,2.4,-10.3,638,771,0,,,,
R,,9000920.0,-0.317,1.028,-0.064,-7.0,4.1,-12.2,659,794,0,,,,
R,,9000981.0,0.001,0.98,0.004,-7.7,3.3,-5.2,688,827,0,,,,
R,,9001041.0,0.022,1.042,-0.043,-5.6,4.7,-4.3,709,854,0,,,,
R,,9001101.0,-0.03,1.021,-0.104,-5.3,-0.1,-2.3,712,877,0,,,,
R,,9001161.0,-0.091,0.999,-0.015,-5.0,-0.2,-1.7,0,907,0,,,,
R,,9001220.0,-0.089,0.954,0.04,-3.4,-0.2,-1.3,0,907,0,,,,
R,,9001281.0,-0.083,0.974,0.051,-1.3,-0.6,-0.5,0,908,0,,,,
R,,9001340.0,-0.089,1.01,0.007,-0.5,-1.2,0.1,0,908,0,,,,
R,,9001402.0,-0.016,1.064,-0.054,-3.0,-2.2,-0.1,0,906,0,,,,
R,,9001491.0,-0.005,1.089,0.074,-6.4,-1.3,-1.1,0,908,0,,,,
R,,9001550.0,-0.084,1.157,0.067,-8.5,-0.9,-1.4,0,906,0,,,,
R,,9001610.0,0.016,1.227,0.111,-11.0,-1.7,-1.5,0,898,0,,,,
R,,9001670.0,0.029,1.324,-0.004,-14.2,-1.3,-2.5,49,884,0,,,,
R,,9001731.0,-0.07,1.531,-0.111,-18.8,-3.7,-5.3,50,874,0,,,,
R,,9001791.0,-0.196,1.156,0.354,-19.1,-0.7,-3.2,44,827,0,,,,
R,,9001851.0,0.102,0.013,0.793,-10.2,9.5,5.8,407,687,0,,,,
R,,9001911.0,-0.152,0.225,-0.251,9.7,11.5,12.5,0,730,0,,,,
R,,9002000.0,-0.084,0.74,-0.153,22.6,6.9,16.6,0,711,0,,,,
R,,9002061.0,-0.137,1.325,-0.09,28.4,17.6,13.2,0,716,0,,,,
R,,9002121.0,-0.754,1.648,-0.143,27.8,25.0,7.5,0,727,0,,,,
R,,9002182.0,-0.784,1.514,-0.28,24.5,12.8,5.1,394,687,0,,,,
R,,9002241.0,-0.383,1.382,0.077,19.9,-5.6,4.2,350,699,0,,,,
R,,9002300.0,0.194,1.245,0.658,9.4,0.6,-0.3,338,714,0,,,,
R,,9002361.0,0.1,1.125,0.497,-2.6,9.2,-5.9,394,711,0,,,,
R,,9002420.0,0.474,0.679,-0.961,-4.4,12.1,-7.0,527,719,0,,,,
R,,9002481.0,0.021,1.394,-0.459,-4.6,0.5,-7.0,623,765,0,,,,
R,,9002541.0,0.277,1.015,-0.111,-4.0,-1.4,-6.2,658,792,0,,,,
R,,9002601.0,-0.215,0.953,-0.43,-5.7,3.7,-4.8,667,810,0,,,,
R,,9002661.0,0.1,0.988,-0.15,-5.5,6.2,-6.2,693,835,0,,,,
R,,9002721.0,-0.124,0.924,-0.33,-6.5,6.6,-6.0,707,848,0,,,,
R,,9002781.0,0.083,1.107,0.021,-7.2,3.0,-3.1,725,867,0,,,,
R,,9002842.0,-0.109,0.987,-0.093,-6.2,1.2,-2.4,0,904,0,,,,
R,,9002900.0,-0.118,0.955,-0.006,-4.3,-0.8,-1.8,0,905,0,,,,
R,,9002960.0,-0.098,0.957,0.022,-2.9,-1.6,-0.7,0,905,0,,,,
R,,9003021.0,-0.119,0.988,0.012,-2.0,-1.5,-0.1,0,906,0,,,,
R,,9003081.0,-0.082,1.017,0.007,-2.0,-1.0,0.0,0,906,0,,,,
R,,9003141.0,-0.055,1.08,0.0,-4.1,-1.9,-0.1,0,906,0,,,,
R,,9003201.0,0.047,1.113,0.1,-6.4,-1.8,-1.1,0,908,0,,,,
R,,9003260.0,-0.086,1.173,0.028,-8.6,-1.7,-1.6,0,903,0,,,,
R,,9003321.0,0.032,1.247,0.051,-11.8,-2.2,-2.6,0,896,0,,,,
R,,9003380.0,-0.081,1.309,-0.104,-15.2,-2.7,-4.6,0,877,0,,,,
R,,9003441.0,-0.279,1.379,0.127,-16.8,-6.3,-7.7,0,864,0,,,,
R,,9003500.0,-0.224,0.776,0.265,-16.2,-8.1,-6.2,243,757,0,,,,
R,,9003562.0,0.032,0.278,-0.055,1.2,0.3,1.8,0,734,0,,,,
R,,9003621.0,0.098,0.283,-0.045,12.3,8.9,5.5,0,724,0,,,,
R,,9003681.0,0.08,0.61,-0.101,22.4,8.8,8.6,0,723,0,,,,
R,,9003741.0,-0.137,1.118,-0.092,28.3,4.4,11.2,0,731,0,,,,
R,,9003800.0,-0.078,1.579,-0.071,29.3,5.2,9.5,432,692,0,,,,
R,,9003861.0,-0.214,1.57,-0.039,28.2,3.7,9.3,421,707,0,,,,
R,,9003920.0,-0.178,1.476,0.211,20.5,-7.7,9.9,336,726,0,,,,
R,,9003981.0,-0.239,1.397,0.756,4.3,-11.8,2.3,331,735,0,,,,
R,,9004041.0,0.539,1.62,-0.009,-6.6,0.5,-4.1,456,724,0,,,,
R,,9004101.0,-0.185,1.014,-0.503,-3.6,5.5,-7.0,600,748,0,,,,
R,,9004161.0,0.236,1.052,-0.141,-8.6,1.0,-6.3,649,786,0,,,,
R,,9004221.0,-0.06,0.963,-0.343,-5.3,3.5,-6.7,670,805,0,,,,
R,,9004283.0,-0.012,0.959,-0.171,-7.9,1.4,-2.9,701,840,0,,,,
R,,9004340.0,-0.141,0.952,-0.238,-4.8,2.7,-3.0,713,858,0,,,,
R,,9004401.0,-0.029,1.015,-0.175,-4.4,0.9,-1.7,718,862,0,,,,
R,,9004460.0,-0.079,1.013,-0.184,-5.1,-1.1,-1.0,725,873,0,,,,
R,,9004521.0,-0.12,0.987,-0.126,-5.3,-1.1,-0.7,0,905,0,,,,
R,,9004581.0,-0.123,0.988,-0.055,-4.4,-0.4,-0.7,0,905,0,,,,
R,,9004641.0,-0.119,0.984,-0.03,-3.5,-1.1,-0.1,0,907,0,,,,
R,,9004701.0,-0.086,0.989,-0.022,-4.1,-1.8,-0.4,0,909,0,,,,
R,,9004761.0,-0.074,1.054,0.011,-6.0,-2.4,-0.4,0,908,0,,,,
R,,9004821.0,-0.049,1.111,0.05,-7.7,-2.5,-0.9,0,908,0,,,,
R,,9004880.0,-0.03,1.132,0.124,-9.4,-1.5,-1.2,0,905,0,,,,
R,,9004942.0,-0.027,1.275,0.092,-11.8,-1.5,-1.7,0,898,0,,,,
R,,9005000.0,-0.096,1.452,-0.232,-15.4,-2.7,-3.8,0,882,0,,,,
R,,9005061.0,-0.006,1.234,0.18,-17.9,-4.5,-4.5,71,855,0,,,,
R,,9005121.0,-0.215,0.818,0.304,-16.9,2.3,-1.0,206,745,0,,,,
R,,9005181.0,-0.088,0.279,-0.049,-1.2,10.2,7.4,409,675,0,,,,
R,,9005241.0,-0.105,0.284,-0.113,8.6,13.2,14.9,0,721,0,,,,
R,,9005301.0,-0.134,0.656,-0.155,17.2,12.5,19.3,0,719,0,,,,
R,,9005361.0,-0.132,1.181,-0.148,24.1,21.1,18.8,0,724,0,,,,
R,,9005420.0,-0.582,1.678,-0.427,26.6,35.8,14.0,0,738,0,,,,
R,,9005481.0,-1.193,1.603,-0.621,23.9,34.3,5.2,0,755,0,,,,
R,,9005541.0,-0.886,1.456,-0.024,18.7,6.2,3.8,407,709,0,,,,
R,,9005601.0,0.004,1.283,0.609,11.3,5.4,-0.8,408,725,0,,,,
R,,9005663.0,-0.176,1.185,0.523,3.6,24.6,-7.2,416,725,0,,,,
R,,9005721.0,0.159,0.328,-0.136,-5.2,15.0,-7.7,521,731,0,,,,
R,,9005781.0,0.051,1.199,-0.246,-2.7,4.2,-6.2,625,772,0,,,,
R,,9005841.0,0.331,1.009,-0.091,-1.2,-1.9,-5.0,659,795,0,,,,
R,,9005901.0,-0.127,0.857,-0.382,-2.9,3.4,-4.3,667,805,0,,,,
R,,9005960.0,0.108,0.976,-0.162,-2.1,6.4,-5.5,682,822,0,,,,
R,,9006020.0,-0.145,0.966,-0.367,-3.6,10.3,-6.6,696,838,0,,,,
R,,9006081.0,0.215,1.093,0.123,-6.3,3.2,-3.4,714,856,0,,,,
R,,9006141.0,-0.092,0.986,-0.086,-4.2,2.6,-1.7,719,866,0,,,,
R,,9006201.0,-0.003,1.001,-0.026,-3.2,1.6,-1.4,0,901,0,,,,
R,,9006261.0,-0.021,0.884,-0.023,-2.5,0.5,-0.5,0,903,0,,,,
R,,9006323.0,-0.036,1.023,-0.016,-3.1,-0.2,0.0,0,907,0,,,,
R,,9006380.0,0.0,0.996,0.023,-3.9,-0.5,0.2,0,907,0,,,,
R,,9006441.0,0.022,1.033,0.034,-5.6,-1.4,0.3,0,907,0,,,,
R,,9006500.0,0.043,1.124,0.071,-7.1,-1.3,0.2,0,907,0,,,,
R,,9006561.0,0.001,1.165,0.084,-8.7,-0.9,0.8,0,905,0,,,,
R,,9006621.0,0.15,1.256,0.074,-11.5,-0.4,0.6,272,887,0,,,,
R,,9006681.0,0.066,1.308,-0.073,-15.6,0.6,0.0,55,869,0,,,,
R,,9006741.0,-0.207,1.408,0.055,-18.4,3.0,-0.9,63,847,0,,,,
R,,9006801.0,-0.224,0.729,0.081,-14.6,5.5,0.5,273,668,0,,,,
R,,9006861.0,-0.185,0.63,-0.529,0.5,31.3,7.0,0,721,0,,,,
R,,9006920.0,-0.369,0.272,-0.352,10.6,18.9,11.6,0,732,0,,,,
R,,9006981.0,-0.171,0.625,-0.208,19.8,7.8,15.3,0,717,0,,,,
R,,9007042.0,-0.17,1.209,-0.294,29.4,12.2,14.2,0,723,0,,,,
R,,9007101.0,-0.576,1.666,-0.164,30.8,19.6,7.8,0,742,0,,,,
R,,9007161.0,-0.931,1.597,-0.076,30.7,12.5,4.9,0,750,0,,,,
R,,9007221.0,-0.282,1.526,0.638,18.9,-6.8,6.2,304,722,0,,,,
R,,9007281.0,-0.018,1.468,1.042,0.6,-1.5,-3.1,329,736,0,,,,
R,,9007341.0,0.238,1.634,-0.869,-1.3,8.9,-8.1,571,728,0,,,,
R,,9007401.0,0.384,1.131,-0.113,-9.4,0.4,-7.6,640,776,0,,,,
R,,9007460.0,-0.404,0.962,-0.182,-6.5,4.1,-10.9,665,796,0,,,,
R,,9007521.0,-0.152,0.988,-0.176,-11.0,4.4,-4.4,685,822,0,,,,
R,,9007581.0,-0.07,0.998,-0.207,-6.5,2.6,-4.2,709,853,0,,,,
R,,9007641.0,-0.058,1.014,-0.132,-5.8,-0.2,-2.1,720,867,0,,,,
R,,9007701.0,-0.106,1.008,-0.128,-5.3,-2.4,-1.9,0,905,0,,,,
R,,9007762.0,-0.119,1.012,-0.045,-4.9,-2.7,-1.8,0,905,0,,,,
R,,9007821.0,-0.165,0.994,-0.026,-4.4,-2.3,-1.2,0,910,0,,,,
R,,9007881.0,-0.087,1.0,-0.015,-5.0,-2.7,-1.1,0,903,0,,,,
R,,9007941.0,-0.094,1.033,0.063,-6.5,-2.0,-1.8,0,905,0,,,,
R,,9008000.0,-0.098,1.147,0.062,-8.2,-2.4,-2.2,0,904,0,,,,
R,,9008061.0,-0.129,1.235,0.017,-10.9,-1.3,-3.8,0,902,0,,,,
R,,9008121.0,-0.043,1.386,-0.108,-14.3,-3.0,-5.5,0,894,0,,,,
R,,9008181.0,-0.218,1.728,-0.53,-19.2,-5.8,-8.5,72,875,0,,,,
R,,9008241.0,-0.124,1.362,0.105,-19.6,-8.4,-10.3,82,816,0,,,,
R,,9008301.0,-0.047,-0.106,0.678,-7.2,-6.2,-0.1,403,703,0,,,,
R,,9008361.0,0.137,0.229,-0.23,14.5,1.8,6.2,0,738,0,,,,
R,,9008422.0,0.109,0.539,-0.262,27.5,6.2,10.5,0,726,0,,,,
R,,9008481.0,0.017,1.134,-0.241,35.6,2.7,14.0,0,729,0,,,,
R,,9008541.0,-0.07,1.96,-0.112,36.6,-2.3,13.4,0,737,0,,,,
R,,9008601.0,-0.015,1.97,0.511,31.9,-2.1,12.6,324,729,0,,,,
R,,9008661.0,-0.585,1.692,1.289,12.4,0.6,5.0,321,739,0,,,,
R,,9008721.0,-0.323,1.948,0.045,-8.7,-1.5,-3.6,422,731,0,,,,
R,,9008781.0,0.108,1.031,-0.412,-7.8,3.9,-8.2,628,766,0,,,,
R,,9008841.0,-0.175,0.999,-0.056,-9.2,-1.4,-12.2,664,798,0,,,,
R,,9008901.0,-0.145,0.984,-0.265,-8.0,5.4,-6.2,691,830,0,,,,
R,,9008960.0,-0.027,0.985,-0.164,-7.1,0.1,-2.6,708,850,0,,,,
R,,9009021.0,-0.071,1.018,-0.26,-5.6,-0.3,-1.4,718,861,0,,,,
R,,9009081.0,-0.1,1.02,-0.202,-7.0,-1.8,-2.0,0,903,0,,,,
R,,9009142.0,-0.111,0.992,-0.026,-6.7,-1.4,-2.1,0,904,0,,,,
R,,9009201.0,-0.131,0.958,-0.015,-5.7,-1.2,-1.7,0,906,0,,,,
R,,9009261.0,-0.096,1.067,-0.022,-5.5,-1.3,-1.4,0,904,0,,,,
R,,9009321.0,-0.1,1.099,-0.007,-7.9,-1.0,-2.1,0,904,0,,,,
R,,9009381.0,-0.148,1.173,-0.006,-10.6,-0.4,-2.5,0,898,0,,,,
R,,9009441.0,-0.352,1.328,-0.303,-16.1,-3.2,-5.3,0,880,0,,,,
R,,9009500.0,-0.499,0.718,0.292,-8.6,-12.0,-6.0,0,863,0,,,,
R,,9009561.0,-0.457,0.545,0.25,0.3,-22.4,-4.1,0,853,0,,,,
R,,9009651.0,-0.206,0.837,-0.128,7.0,-36.7,-4.1,558,755,0,,,,
R,,9009711.0,0.187,0.96,-0.128,7.4,-42.6,-5.1,538,738,0,,,,
R,,9009771.0,0.582,0.975,0.055,9.3,-41.2,-5.0,517,737,0,,,,
R,,9009831.0,0.677,0.981,0.131,9.4,-34.2,-2.4,511,717,0,,,,
R,,9009892.0,0.463,0.989,0.112,7.2,-27.1,-1.0,505,735,0,,,,
R,,9009951.0,0.277,0.983,-0.073,7.2,-24.6,-0.4,496,738,0,,,,
R,,9010011.0,0.18,1.045,-0.243,7.8,-24.2,-0.4,479,738,0,,,,
R,,9010071.0,0.172,1.003,-0.175,8.3,-21.8,-0.3,459,758,0,,,,
R,,9010161.0,0.079,0.971,-0.234,4.8,-12.0,0.3,588,770,0,,,,
R,,9010251.0,0.007,0.907,-0.502,0.8,-19.4,1.2,634,788,0,,,,
R,,9010311.0,0.049,0.981,-0.254,-1.8,-13.3,-0.3,656,801,0,,,,
R,,9010371.0,-0.025,0.972,-0.318,-3.9,0.7,-1.3,676,814,0,,,,
R,,9010430.0,-0.026,0.997,-0.224,-5.7,-1.4,-2.9,685,820,0,,,,
R,,9010491.0,-0.102,0.99,-0.19,-6.4,-1.3,-1.8,0,879,0,,,,
R,,9010551.0,-0.043,0.963,-0.138,-6.5,-1.5,-1.4,0,886,0,,,,
R,,9010613.0,-0.121,1.012,-0.046,-5.9,-0.9,-0.4,0,891,0,,,,
R,,9010671.0,-0.114,1.044,0.009,-4.4,-0.7,-0.2,0,895,0,,,,
R,,9010731.0,-0.102,0.959,0.015,-3.3,-0.4,-0.2,0,902,0,,,,
R,,9010791.0,-0.102,0.995,0.042,-3.1,0.0,-0.1,0,903,0,,,,
R,,9010851.0,-0.101,1.056,-0.025,-4.5,-1.3,-0.6,0,905,0,,,,
R,,9010911.0,-0.095,1.093,0.041,-7.2,-1.7,-1.4,0,905,0,,,,
R,,9010971.0,-0.034,1.161,0.238,-8.8,-3.0,-1.9,0,907,0,,,,
R,,9011031.0,-0.131,1.192,0.13,-11.4,-2.5,-2.7,0,900,0,,,,
R,,9011091.0,-0.117,1.273,0.015,-13.5,-2.4,-3.8,0,888,0,,,,
R,,9011151.0,-0.205,1.439,-0.148,-15.3,-9.4,-6.3,0,873,0,,,,
R,,9011211.0,-0.375,1.49,0.125,-15.0,-11.9,-9.4,75,831,0,,,,
R,,9011271.0,0.059,0.395,0.682,-8.7,-4.0,-0.2,434,686,0,,,,
R,,9011333.0,0.133,0.226,0.072,8.4,2.2,2.7,0,757,0,,,,
R,,9011391.0,0.212,0.623,-0.012,20.6,1.6,5.7,0,755,0,,,,
R,,9011451.0,0.146,0.945,0.19,26.2,0.7,7.3,0,754,0,,,,
R,,9011511.0,0.212,1.276,0.271,27.5,3.4,7.4,0,762,0,,,,
R,,9011571.0,-0.092,1.46,0.264,26.8,5.5,8.2,419,729,0,,,,
R,,9011631.0,-0.103,1.484,0.179,22.9,5.5,8.5,441,743,0,,,,
R,,9011691.0,-0.388,1.316,0.28,13.0,-3.9,6.5,376,751,0,,,,
R,,9011751.0,-0.067,1.27,0.541,-2.8,-4.8,-1.7,435,732,0,,,,
R,,9011811.0,0.178,1.155,-0.681,-5.2,0.7,-6.5,593,746,0,,,,
R,,9011871.0,0.062,1.004,-0.132,-7.6,-0.5,-9.1,649,783,0,,,,
R,,9011961.0,-0.01,0.878,-0.323,-5.3,1.7,-4.3,684,818,0,,,,
R,,9012021.0,-0.008,0.997,-0.165,-5.0,0.6,-4.9,705,843,0,,,,
R,,9012083.0,-0.168,0.995,-0.178,-3.6,-0.1,-2.8,0,896,0,,,,
R,,9012141.0,-0.096,1.008,-0.226,-3.7,-0.8,-1.8,0,898,0,,,,
R,,9012201.0,-0.113,0.998,-0.144,-5.1,-2.6,-2.0,0,906,0,,,,
R,,9012260.0,-0.134,0.963,-0.069,-4.6,-1.8,-1.8,0,908,0,,,,
R,,9012321.0,-0.236,0.981,-0.059,-3.4,-1.9,-1.2,0,910,0,,,,
R,,9012381.0,-0.169,0.991,-0.033,-3.2,-1.6,-0.6,0,909,0,,,,
R,,9012441.0,-0.136,1.047,-0.048,-4.3,-2.2,-0.8,0,911,0,,,,
R,,9012501.0,-0.146,1.084,-0.011,-6.3,-2.5,-1.0,0,907,0,,,,
R,,9012561.0,-0.105,1.136,0.064,-8.3,-2.9,-2.1,0,911,0,,,,
R,,9012621.0,-0.167,1.182,0.013,-11.3,-3.8,-3.3,0,905,0,,,,
R,,9012681.0,0.009,1.591,-0.072,-16.6,-5.5,-8.8,0,895,0,,,,
R,,9012743.0,0.026,1.609,-0.034,-17.6,-5.8,-13.5,0,866,0,,,,
R,,9012801.0,-0.21,0.918,0.196,-15.1,-4.7,-8.1,338,726,0,,,,
R,,9012861.0,0.279,0.054,-0.197,6.3,-9.9,0.5,0,740,0,,,,
R,,9012921.0,0.37,0.213,0.178,15.8,1.6,5.3,0,743,0,,,,
R,,9012981.0,0.176,0.756,0.043,25.7,3.7,11.6,0,758,0,,,,
R,,9013041.0,0.289,1.314,0.379,27.3,0.3,16.3,0,747,0,,,,
R,,9013101.0,0.055,1.633,0.541,21.3,6.9,16.5,182,718,0,,,,
R,,9013161.0,-0.476,1.582,0.412,13.5,8.1,12.8,0,750,0,,,,
R,,9013251.0,-0.508,1.134,0.307,-2.8,-3.1,-1.8,0,751,0,,,,
R,,9013311.0,0.473,0.791,-0.09,-8.0,-2.2,-4.1,532,709,0,,,,
R,,9013372.0,-0.362,1.471,0.111,-5.4,5.3,-11.0,646,785,0,,,,
R,,9013431.0,-0.217,0.896,0.003,-5.6,-0.1,-10.2,0,858,0,,,,
R,,9013493.0,0.003,0.993,0.097,-6.0,2.6,-6.5,0,884,0,,,,
R,,9013550.0,-0.044,1.03,0.113,-3.7,-0.9,-3.9,0,894,0,,,,
R,,9013611.0,-0.08,1.004,0.141,-1.3,-2.4,-1.5,0,895,0,,,,
R,,9013671.0,-0.083,1.034,0.041,-1.1,-1.8,-1.8,0,903,0,,,,
R,,9013731.0,-0.037,1.039,0.081,-3.1,-1.1,-1.9,0,906,0,,,,
R,,9013791.0,0.001,1.146,0.056,-5.6,-1.7,-3.0,0,907,0,,,,
R,,9013851.0,0.08,1.372,0.058,-11.9,-1.4,-5.6,0,909,0,,,,
R,,9013911.0,0.26,1.9,-0.127,-21.7,-1.9,-10.1,0,901,0,,,,
R,,9013971.0,0.324,1.868,-0.467,-29.5,-0.4,-16.6,0,878,0,,,,
R,,9014031.0,0.253,0.924,-0.602,-23.5,18.5,-3.2,438,700,0,,,,
R,,9014091.0,0.127,0.208,-0.775,0.5,17.2,20.0,0,764,0,,,,
R,,9014183.0,-0.035,0.914,-0.321,20.8,20.0,37.6,0,737,0,,,,
R,,9014241.0,0.147,1.753,0.159,23.5,38.3,34.2,0,747,0,,,,
R,,9014332.0,-1.97,2.026,-0.621,1.1,60.6,10.9,0,765,0,,,,
R,,9014391.0,-1.992,0.961,-1.125,2.7,11.7,-6.8,0,861,0,,,,
R,,9014451.0,0.635,1.021,0.499,3.5,2.0,-4.2,0,897,0,,,,
R,,9014511.0,-0.047,1.023,0.094,1.0,6.3,-2.6,0,903,0,,,,
R,,9014571.0,0.091,1.012,0.219,1.0,6.4,-1.1,0,895,0,,,,
R,,9014662.0,0.026,1.019,0.103,3.4,5.7,-2.1,0,880,0,,,,
R,,9014721.0,-0.061,0.98,0.033,4.2,4.4,-2.8,704,838,0,,,,
R,,9014781.0,-0.043,1.002,0.017,4.1,1.2,-4.4,691,826,0,,,,
R,,9014841.0,-0.009,1.039,-0.009,3.6,0.0,-2.8,689,821,0,,,,
R,,9014901.0,-0.122,0.967,-0.118,2.5,1.1,-3.9,689,818,0,,,,
R,,9014962.0,-0.116,0.99,-0.042,1.0,1.0,-3.2,0,873,0,,,,
R,,9015021.0,-0.14,1.015,0.026,0.4,3.1,-2.3,696,825,0,,,,
R,,9015082.0,-0.179,0.938,-0.181,-0.1,7.0,-2.2,0,871,0,,,,
R,,9015141.0,-0.257,1.01,-0.092,-0.9,1.1,-0.3,0,874,0,,,,
R,,9015202.0,-0.047,1.023,-0.176,-1.5,-4.7,0.9,0,869,0,,,,
R,,9015261.0,0.06,1.232,-0.21,-3.2,-0.2,1.4,0,843,0,,,,
R,,9015321.0,-0.518,1.138,0.216,0.7,5.6,-0.4,0,791,0,,,,
R,,9015381.0,-0.3,1.432,-0.191,2.5,6.4,-2.5,298,756,0,,,,
R,,9015441.0,-0.152,1.289,-0.284,2.1,9.6,-1.8,481,725,0,,,,
R,,9015501.0,-0.169,1.137,-0.314,4.3,9.4,-0.2,457,725,0,,,,
R,,9015561.0,-0.128,1.029,-0.305,8.1,7.8,2.5,472,727,0,,,,
R,,9015622.0,-0.092,0.947,-0.225,11.7,5.2,5.0,484,727,0,,,,
R,,9015683.0,-0.077,0.819,-0.131,12.2,4.2,4.6,437,730,0,,,,
R,,9015741.0,-0.058,0.692,-0.012,9.9,3.8,3.3,485,729,0,,,,
R,,9015801.0,-0.014,0.749,-0.088,5.1,5.7,2.2,492,730,0,,,,
R,,9015861.0,0.119,0.649,-0.229,-0.8,5.3,1.1,493,731,0,,,,
R,,9015921.0,0.311,0.649,-0.344,-0.2,-3.4,1.8,501,736,0,,,,
R,,9015981.0,0.313,0.844,-0.476,-2.8,5.9,1.0,506,738,0,,,,
R,,9016041.0,-0.332,0.798,-0.832,-3.3,2.7,1.8,0,788,0,,,,
R,,9016101.0,0.251,0.8,-0.611,-2.9,-2.5,0.7,508,738,0,,,,
R,,9016162.0,0.094,1.137,-0.45,0.7,-1.1,-0.9,498,739,0,,,,
R,,9016221.0,0.148,0.867,-0.495,1.2,-1.0,-1.7,496,738,0,,,,
R,,9016281.0,0.212,0.876,-0.439,2.5,0.6,0.4,487,737,0,,,,
R,,9016342.0,0.103,1.112,-0.404,-0.8,-4.2,0.9,484,734,0,,,,
R,,9016401.0,0.558,0.325,-0.209,0.6,-3.4,-3.4,483,734,0,,,,
R,,9016461.0,0.314,0.749,-0.502,-0.1,0.8,-2.6,472,731,0,,,,
R,,9016521.0,0.171,0.933,-0.554,1.8,6.2,-0.4,477,738,0,,,,
R,,9016582.0,0.077,0.817,-0.468,0.6,2.1,0.8,476,734,0,,,,
R,,9016641.0,0.412,0.903,-0.237,-1.4,-2.6,3.0,472,733,0,,,,
R,,9016702.0,0.064,0.903,-0.386,-1.8,1.5,3.8,479,735,0,,,,
R,,9016761.0,0.335,0.92,-0.299,-2.0,0.0,8.2,306,756,0,,,,
R,,9016821.0,0.504,0.733,-0.688,-1.0,-4.3,7.6,432,742,0,,,,
R,,9016881.0,0.294,0.737,-0.504,-0.7,-2.8,2.9,484,741,0,,,,
R,,9016941.0,0.228,0.843,-0.361,-2.1,-3.2,3.5,485,738,0,,,,
R,,9017001.0,0.294,0.82,-0.394,-1.5,-1.3,1.0,0,785,0,,,,
R,,9017063.0,0.207,0.802,-0.424,-2.3,-0.6,-0.9,0,784,0,,,,
R,,9017122.0,0.316,0.959,-0.341,-2.3,0.3,0.0,465,734,0,,,,
R,,9017181.0,0.389,1.031,-0.382,-0.1,1.1,-2.1,470,731,0,,,,
R,,9017242.0,0.284,0.882,-0.435,-0.2,-1.8,-0.3,444,733,0,,,,
R,,9017301.0,0.209,0.772,-0.322,4.8,1.1,-2.1,0,783,0,,,,
R,,9017361.0,0.244,0.89,-0.422,4.6,2.8,-6.6,0,786,0,,,,
R,,9017421.0,0.204,1.17,-0.268,3.3,6.2,-4.5,0,788,0,,,,
R,,9017481.0,0.069,1.001,-0.438,0.5,3.3,-1.2,0,783,0,,,,
R,,9017541.0,0.265,0.75,-0.408,-0.2,-3.2,1.1,0,784,0,,,,
R,,9017601.0,0.362,0.658,-0.516,0.0,-0.1,-0.3,0,787,0,,,,
R,,9017662.0,0.268,0.776,-0.49,0.4,0.8,-0.3,0,790,0,,,,
R,,9017721.0,0.313,0.905,-0.45,0.7,-0.6,0.9,0,794,0,,,,
R,,9017783.0,0.158,0.653,-0.486,-2.2,-2.4,3.8,0,790,0,,,,
R,,9017841.0,0.254,1.339,-0.454,1.4,2.0,-0.4,0,792,0,,,,
R,,9017901.0,0.154,0.931,-0.437,1.0,-2.3,1.2,0,793,0,,,,
R,,9017961.0,0.112,0.911,-0.382,1.0,-1.5,1.0,498,745,0,,,,
R,,9018021.0,0.177,0.817,-0.533,1.4,-0.5,1.2,498,749,0,,,,
R,,9018082.0,0.226,0.744,-0.54,0.0,-1.1,0.0,489,747,0,,,,
R,,9018141.0,0.222,0.771,-0.533,0.0,1.0,-0.4,455,752,0,,,,
R,,9018202.0,0.202,0.768,-0.543,1.1,-1.0,-0.2,312,765,0,,,,
R,,9018261.0,0.242,0.868,-0.527,1.5,-0.3,-0.5,0,793,0,,,,
R,,9018322.0,0.234,0.86,-0.601,3.0,-2.1,0.5,0,795,0,,,,
R,,9018381.0,0.312,0.818,-0.57,2.2,-0.6,0.4,0,798,0,,,,
R,,9018443.0,0.299,0.853,-0.551,1.9,1.2,0.1,0,799,0,,,,
R,,9018500.0,0.178,0.751,-0.656,1.2,-1.8,1.6,0,797,0,,,,
R,,9018591.0,0.306,0.787,-0.64,3.2,-3.1,1.8,490,756,0,,,,
R,,9018651.0,0.202,0.762,-0.547,3.8,0.1,0.9,443,747,0,,,,
R,,9018711.0,0.149,0.721,-0.448,2.9,0.4,0.3,403,747,0,,,,
R,,9018771.0,0.15,0.637,-0.576,1.8,3.0,-1.2,360,758,0,,,,
R,,9018832.0,0.036,0.615,-0.641,-0.2,1.2,-3.2,434,756,0,,,,
R,,9018891.0,0.404,0.819,-0.73,1.7,-4.5,-2.7,442,756,0,,,,
R,,9018952.0,0.178,0.794,-0.693,2.8,-2.3,-3.3,447,753,0,,,,
R,,9019011.0,0.169,0.718,-0.718,2.6,0.5,-5.0,0,795,0,,,,
R,,9019072.0,0.14,0.694,-0.737,2.5,-0.8,-3.9,0,794,0,,,,
R,,9019131.0,0.064,0.636,-0.699,1.2,-0.3,-2.9,0,790,0,,,,
R,,9019193.0,0.102,0.622,-0.681,0.1,-2.4,-2.0,0,792,0,,,,
R,,9019282.0,0.101,0.654,-0.697,-0.2,-2.1,-1.5,0,788,0,,,,
R,,9019341.0,0.054,0.528,-0.633,-1.3,0.0,-0.1,0,789,0,,,,
R,,9019401.0,0.267,0.537,-0.818,-1.0,0.4,0.7,0,772,0,,,,
R,,9019461.0,0.121,0.522,-0.797,0.3,-2.5,-0.1,0,781,0,,,,
R,,9019521.0,-0.144,0.706,-0.776,3.2,-5.6,-0.7,0,779,0,,,,
R,,9019582.0,-0.001,0.693,-0.604,2.6,-4.7,0.2,0,773,0,,,,
R,,9019641.0,0.021,0.65,-0.692,1.5,-3.6,1.5,0,781,0,,,,
R,,9019702.0,-0.045,0.682,-0.733,0.6,-2.8,-0.1,534,743,0,,,,
R,,9019761.0,-0.051,0.588,-0.8,1.0,-2.9,-0.7,392,770,0,,,,
R,,9019822.0,-0.125,0.603,-0.761,1.6,-1.9,-1.1,592,758,0,,,,
R,,9019881.0,-0.081,0.666,-0.724,1.3,-1.2,-1.3,0,816,0,,,,
R,,9019943.0,-0.029,0.595,-0.76,0.6,0.0,-1.3,0,818,0,,,,
R,,9020001.0,-0.075,0.606,-0.794,0.2,-1.2,-0.3,0,819,0,,,,
R,,9020061.0,-0.06,0.667,-0.783,-0.4,-0.6,-0.3,0,821,0,,,,
R,,9020122.0,-0.025,0.624,-0.802,-0.1,-0.7,-0.3,0,825,0,,,,
R,,9020181.0,-0.085,0.63,-0.796,0.0,-0.1,0.0,0,826,0,,,,
R,,9020242.0,-0.127,0.613,-0.785,0.0,0.1,0.0,0,830,0,,,,
R,,9020301.0,-0.057,0.598,-0.768,0.0,-0.6,0.0,0,834,0,,,,
R,,9020362.0,0.023,0.614,-0.85,0.0,-1.6,0.5,0,831,0,,,,
R,,9020421.0,-0.148,0.652,-0.725,0.4,-0.5,0.9,615,772,0,,,,
R,,9020481.0,-0.162,0.565,-0.96,1.8,-0.4,-0.4,569,739,0,,,,
R,,9020541.0,-0.133,0.594,-0.706,2.1,-1.0,-1.9,482,697,0,,,,
R,,9020603.0,-0.142,0.552,-0.623,0.8,0.1,0.3,388,680,0,,,,
R,,9020662.0,-0.031,0.564,-0.817,0.2,0.7,-0.4,0,714,0,,,,
R,,9020721.0,-0.019,0.586,-0.876,1.2,-0.3,-0.5,0,713,0,,,,
R,,9020782.0,0.009,0.58,-0.723,1.5,2.9,0.2,0,726,0,,,,
R,,9020841.0,-0.102,0.579,-0.69,0.9,2.7,0.0,0,741,0,,,,
R,,9020902.0,-0.067,0.545,-0.842,0.1,0.8,0.0,0,748,0,,,,
R,,9020961.0,-0.064,0.584,-0.677,-0.7,1.4,0.0,0,750,0,,,,
R,,9021021.0,-0.065,0.548,-0.693,-2.5,3.4,-1.1,0,754,0,,,,
R,,9021082.0,-0.002,0.555,-0.873,-1.6,0.3,0.0,0,762,0,,,,
R,,9021141.0,0.039,0.562,-0.69,-1.3,0.7,0.0,0,764,0,,,,
R,,9021202.0,0.015,0.58,-0.883,-0.4,-0.6,0.2,0,771,0,,,,
R,,9021261.0,0.08,0.546,-0.811,0.0,-0.9,0.1,0,770,0,,,,
R,,9021323.0,0.021,0.612,-0.814,0.5,0.3,0.3,0,774,0,,,,
R,,9021381.0,-0.091,0.593,-0.811,0.3,2.6,-0.9,0,773,0,,,,
R,,9021442.0,0.086,0.55,-0.681,0.8,-0.4,-1.0,0,766,0,,,,
R,,9021501.0,0.0,0.602,-0.871,2.8,-0.7,-0.2,0,762,0,,,,
R,,9021561.0,0.06,0.604,-0.73,2.3,-2.6,-0.8,0,765,0,,,,
R,,9021622.0,0.023,0.546,-0.774,1.6,-1.7,-0.8,0,772,0,,,,
R,,9021681.0,0.011,0.528,-0.813,0.9,-2.8,-0.8,0,773,0,,,,
R,,9021742.0,-0.101,0.521,-0.752,0.0,-3.2,-0.3,0,778,0,,,,
R,,9021801.0,0.012,0.546,-0.751,-1.4,-2.3,-0.3,0,782,0,,,,
R,,9021862.0,-0.001,0.527,-0.778,-2.4,0.6,-0.4,0,782,0,,,,
R,,9021921.0,-0.034,0.537,-0.914,-1.8,-0.1,-0.3,0,785,0,,,,
R,,9021983.0,-0.015,0.559,-0.812,-1.4,0.0,0.2,0,785,0,,,,
R,,9022041.0,-0.083,0.582,-0.967,-0.5,-1.3,0.2,0,783,0,,,,
R,,9022101.0,0.021,0.579,-0.802,-0.3,0.1,0.2,0,785,0,,,,
R,,9022162.0,-0.058,0.59,-0.77,-0.4,0.2,0.2,0,783,0,,,,
R,,9022221.0,-0.016,0.684,-0.854,0.0,-0.5,0.0,0,784,0,,,,
R,,9022282.0,0.045,0.598,-0.709,-0.8,0.8,0.6,0,787,0,,,,
R,,9022341.0,-0.163,0.587,-0.885,-0.7,0.3,0.1,0,786,0,,,,
R,,9022402.0,0.057,0.615,-0.802,-0.1,-0.5,0.6,0,789,0,,,,
R,,9022461.0,0.028,0.57,-0.877,0.5,2.0,0.7,0,790,0,,,,
R,,9022521.0,-0.026,0.614,-0.778,1.0,-0.6,0.7,0,792,0,,,,
R,,9022582.0,0.082,0.597,-0.659,0.0,0.1,0.9,0,792,0,,,,
R,,9022641.0,0.04,0.601,-0.692,-1.6,2.7,1.2,0,790,0,,,,
R,,9022703.0,0.026,0.625,-0.736,-2.8,1.5,1.2,0,792,0,,,,
R,,9022761.0,0.086,0.649,-0.759,-3.5,0.5,2.0,0,791,0,,,,
R,,9022822.0,0.077,0.669,-0.778,-3.4,1.9,1.4,0,793,0,,,,
R,,9022881.0,0.001,0.665,-0.889,-1.5,1.1,0.2,0,798,0,,,,
R,,9022942.0,0.101,0.611,-0.785,1.0,-0.9,-1.4,0,791,0,,,,
R,,9023001.0,-0.107,0.62,-0.819,2.8,-8.2,-0.6,0,788,0,,,,
R,,9023061.0,0.274,0.715,-0.589,0.6,-7.4,-0.4,0,789,0,,,,
R,,9023122.0,0.138,0.68,-0.618,-0.4,0.3,1.3,0,789,0,,,,
R,,9023181.0,0.042,0.664,-0.726,-1.5,2.6,1.7,0,792,0,,,,
R,,9023242.0,0.038,0.661,-0.756,-1.6,1.3,1.3,0,792,0,,,,
R,,9023301.0,0.146,0.645,-0.739,-1.8,4.5,1.0,0,795,0,,,,
R,,9023362.0,-0.034,0.616,-0.848,-0.7,4.8,0.4,0,792,0,,,,
R,,9023423.0,0.106,0.602,-0.75,0.0,0.0,-0.5,0,793,0,,,,
R,,9023482.0,0.183,0.609,-0.676,1.0,0.5,-1.2,0,794,0,,,,
R,,9023541.0,0.041,0.707,-0.758,1.1,-0.7,-1.2,0,794,0,,,,
R,,9023601.0,0.178,0.701,-0.69,0.8,-0.6,0.2,0,796,0,,,,
R,,9023662.0,0.097,0.687,-0.696,0.3,-0.9,0.0,0,797,0,,,,
R,,9023720.0,0.094,0.681,-0.691,0.0,-0.4,0.1,0,797,0,,,,
R,,9023782.0,0.097,0.672,-0.711,-0.2,-0.6,0.0,0,796,0,,,,
R,,9023841.0,0.1,0.643,-0.735,-0.2,-0.4,0.0,0,795,0,,,,
R,,9023902.0,0.114,0.673,-0.739,-0.2,-0.3,-0.1,0,796,0,,,,
R,,9023961.0,0.12,0.692,-0.745,0.0,-0.4,-0.1,0,799,0,,,,
R,,9024022.0,0.131,0.65,-0.747,0.0,0.4,-0.2,0,798,0,,,,
R,,9024083.0,0.079,0.627,-0.751,0.0,-2.1,0.4,0,798,0,,,,
R,,9024141.0,0.124,0.688,-0.716,0.7,-0.7,-0.5,0,796,0,,,,
R,,9024201.0,0.108,0.663,-0.713,0.4,0.3,-0.2,0,797,0,,,,
R,,9024261.0,0.113,0.687,-0.706,0.0,-0.9,0.1,0,798,0,,,,
R,,9024322.0,0.085,0.636,-0.73,-0.5,-0.7,0.3,0,799,0,,,,
R,,9024381.0,0.145,0.674,-0.716,-0.5,-0.7,-0.1,0,797,0,,,,
R,,9024442.0,0.114,0.66,-0.725,-0.2,-1.4,0.0,0,800,0,,,,
R,,9024501.0,0.12,0.698,-0.73,0.0,-1.7,0.7,0,799,0,,,,
R,,9024561.0,0.095,0.677,-0.769,-0.5,-0.2,0.3,0,797,0,,,,
R,,9024622.0,0.098,0.61,-0.721,-0.8,-1.3,1.3,0,795,0,,,,
R,,9024681.0,0.267,0.616,-0.667,-0.9,-1.2,2.4,0,793,0,,,,
R,,9024742.0,0.228,0.688,-0.644,-1.2,-0.4,3.6,0,796,0,,,,
R,,9024803.0,0.174,0.745,-0.652,-1.3,-0.4,3.9,0,800,0,,,,
R,,9024862.0,0.217,0.749,-0.637,-1.8,1.6,3.6,0,798,0,,,,
R,,9024921.0,0.127,0.86,-0.747,-0.4,2.8,1.8,0,798,0,,,,
R,,9024982.0,0.104,0.748,-0.709,-1.9,0.9,3.8,472,745,0,,,,
R,,9025041.0,0.111,0.784,-0.684,-3.0,-1.4,-0.6,531,738,0,,,,
R,,9025101.0,0.173,0.679,-0.68,-1.4,0.4,-0.1,0,794,0,,,,
R,,9025162.0,0.126,0.803,-0.65,-0.2,-0.3,-2.2,0,791,0,,,,
R,,9025221.0,0.196,0.67,-0.646,-0.4,-0.1,-4.6,0,790,0,,,,
R,,9025282.0,0.237,0.753,-0.594,-1.6,1.4,-3.5,0,794,0,,,,
R,,9025341.0,0.243,0.754,-0.567,-0.5,-1.9,-3.0,0,797,0,,,,
R,,9025402.0,0.291,0.778,-0.585,-0.4,-2.3,-1.6,0,798,0,,,,
R,,9025461.0,0.307,0.79,-0.594,-1.0,-0.6,-1.5,0,801,0,,,,
R,,9025553.0,0.233,0.83,-0.586,0.0,0.6,-0.6,0,803,0,,,,
R,,9025612.0,0.153,0.74,-0.585,0.1,-0.5,0.8,0,801,0,,,,
R,,9025671.0,0.175,0.805,-0.568,0.4,-0.6,0.5,0,803,0,,,,
R,,9025732.0,0.114,0.765,-0.591,0.2,-1.3,0.2,0,801,0,,,,
R,,9025791.0,0.17,0.863,-0.591,-0.1,-0.7,-0.2,0,805,0,,,,
R,,9025852.0,0.204,0.719,-0.586,-0.6,-0.7,-0.1,0,803,0,,,,
R,,9025912.0,0.246,0.752,-0.579,-0.7,-0.9,0.4,0,802,0,,,,
R,,9025971.0,0.242,0.732,-0.597,-0.7,-1.1,1.0,0,803,0,,,,
R,,9026031.0,0.164,0.771,-0.601,-0.8,0.0,0.4,0,805,0,,,,
R,,9026091.0,0.266,0.794,-0.7,1.1,-1.6,1.6,0,804,0,,,,
R,,9026152.0,0.195,0.814,-0.639,2.1,0.0,1.9,0,804,0,,,,
R,,9026213.0,0.072,0.912,-0.61,2.3,1.2,0.8,0,804,0,,,,
R,,9026272.0,-0.003,0.791,-0.635,2.8,-1.7,-0.9,0,804,0,,,,
R,,9026332.0,0.123,0.729,-0.6,2.7,-3.8,-2.0,0,807,0,,,,
R,,9026391.0,0.09,0.719,-0.607,2.0,-4.3,-2.6,0,806,0,,,,
R,,9026452.0,0.091,0.713,-0.628,0.6,-7.8,-2.2,0,807,0,,,,
R,,9026511.0,0.155,0.699,-0.615,-0.9,-3.6,-1.8,0,807,0,,,,
R,,9026572.0,-0.068,0.663,-0.788,-0.7,-4.5,-1.5,0,808,0,,,,
R,,9026631.0,0.068,0.738,-0.714,-0.2,-4.2,-0.8,0,806,0,,,,
R,,9026692.0,-0.089,0.737,-0.778,0.5,-3.9,-0.6,0,808,0,,,,
R,,9026751.0,0.023,0.695,-0.674,0.5,-5.7,-0.4,0,803,0,,,,
R,,9026812.0,0.043,0.738,-0.665,0.5,-1.9,0.4,0,791,0,,,,
R,,9026872.0,-0.031,0.717,-0.63,-0.2,-1.7,0.4,0,791,0,,,,
R,,9026933.0,-0.096,0.701,-0.66,0.0,0.6,-0.1,0,794,0,,,,
R,,9026992.0,-0.206,0.746,-0.757,0.5,0.8,-0.2,0,793,0,,,,
R,,9027051.0,-0.034,0.751,-0.628,0.4,-0.7,-0.5,0,796,0,,,,
R,,9027112.0,-0.085,0.731,-0.656,0.2,0.0,-0.2,0,796,0,,,,
R,,9027171.0,-0.09,0.726,-0.686,-0.1,-0.5,0.0,0,797,0,,,,
R,,9027232.0,-0.057,0.692,-0.658,-0.3,-0.1,0.1,0,800,0,,,,
R,,9027291.0,-0.084,0.72,-0.688,0.0,-0.1,0.0,0,800,0,,,,
R,,9027352.0,-0.074,0.736,-0.686,-0.2,-0.3,0.0,0,800,0,,,,
R,,9027412.0,-0.076,0.717,-0.685,0.0,0.0,-0.1,0,800,0,,,,
R,,9027471.0,-0.081,0.696,-0.688,0.3,0.0,-0.2,0,800,0,,,,
R,,9027532.0,-0.061,0.717,-0.682,0.5,0.1,-0.2,0,802,0,,,,
R,,9027591.0,-0.056,0.709,-0.67,0.4,0.1,-0.3,0,801,0,,,,
R,,9027653.0,-0.063,0.723,-0.676,0.1,1.6,0.0,0,802,0,,,,
R,,9027711.0,-0.068,0.725,-0.699,0.0,1.3,-0.2,0,800,0,,,,
R,,9027772.0,-0.068,0.683,-0.709,0.4,2.5,-0.6,0,801,0,,,,
R,,9027832.0,-0.092,0.709,-0.7,0.7,1.0,-0.5,0,806,0,,,,
R,,9027892.0,-0.062,0.695,-0.676,1.0,-1.0,-1.7,0,803,0,,,,
R,,9027952.0,0.048,0.628,-0.665,-0.2,0.7,-1.5,0,805,0,,,,
R,,9028011.0,0.482,0.72,-0.724,1.5,-6.1,1.4,0,805,0,,,,
R,,9028072.0,-0.012,0.647,-0.615,-3.7,7.5,1.1,0,807,0,,,,
R,,9028162.0,0.041,0.633,-0.722,-0.4,1.5,0.1,0,805,0,,,,
R,,9028221.0,-0.017,0.617,-0.693,0.9,-2.5,-0.1,0,804,0,,,,
R,,9028282.0,-0.021,0.788,-0.682,0.0,1.1,1.1,0,804,0,,,,
R,,9028343.0,0.025,0.632,-0.66,-0.2,-0.2,-0.5,0,804,0,,,,
R,,9028402.0,-0.022,0.698,-0.705,0.2,-0.8,-0.6,0,807,0,,,,
R,,9028461.0,0.134,0.657,-0.681,0.0,0.0,-0.2,0,806,0,,,,
R,,9028522.0,0.117,0.711,-0.741,0.2,0.8,0.6,0,808,0,,,,
R,,9028582.0,0.179,0.556,-0.647,-2.1,0.1,1.6,0,808,0,,,,
R,,9028642.0,0.128,0.668,-0.65,1.6,2.5,-0.6,0,805,0,,,,
R,,9028702.0,0.077,0.66,-0.698,-0.6,0.5,0.4,0,806,0,,,,
R,,9028761.0,0.106,0.78,-0.72,0.7,0.3,-0.6,0,797,0,,,,
R,,9028822.0,0.108,0.664,-0.717,0.4,-0.5,-0.5,536,748,0,,,,
R,,9028881.0,0.141,0.659,-0.694,0.0,-0.5,0.2,540,747,0,,,,
R,,9028942.0,0.114,0.698,-0.723,0.2,-0.4,0.3,537,749,0,,,,
R,,9029001.0,0.04,0.694,-0.743,0.4,-0.9,0.5,540,751,0,,,,
R,,9029063.0,0.573,0.814,-0.331,-9.0,-5.6,5.1,8,15,0,,,,
R,,9029122.0,-0.007,0.637,-0.816,2.6,0.0,-0.1,8,13,0,,,,
R,,9029223.0,0.124,0.653,-0.707,-0.7,1.3,1.2,535,733,0,,,,
R,,9029242.0,0.021,0.824,-0.947,2.6,-1.5,-1.3,0,1,0,,,,
R,,9029301.0,0.143,0.678,-0.686,0.1,-0.9,-0.2,0,0,0,,,,
R,,9029362.0,0.095,0.63,-0.709,1.5,-1.7,1.6,0,0,0,,,,
R,,9029421.0,-0.204,0.634,-0.886,2.3,-0.2,-1.6,0,0,0,,,,
R,,9029482.0,-0.102,0.73,-0.637,1.3,-6.0,-1.8,546,753,0,,,,
R,,9029541.0,0.021,0.685,-0.667,-0.5,-0.1,-0.7,548,746,0,,,,
R,,9029602.0,-0.007,0.772,-0.685,0.3,0.2,-0.1,554,755,0,,,,
R,,9029662.0,0.09,0.597,-0.731,0.1,-1.0,0.7,295,787,0,,,,
R,,9029723.0,-0.677,0.465,-0.781,1.4,7.3,-2.4,0,807,0,,,,
R,,9029782.0,0.145,0.569,-0.693,0.6,0.5,-0.1,0,810,0,,,,
R,,9029872.0,0.059,0.68,-0.737,1.4,0.7,-0.3,532,757,0,,,,
R,,9029932.0,0.112,0.638,-0.717,0.4,1.7,-0.3,13,23,0,,,,
R,,9030022.0,0.306,0.822,-0.61,-3.1,-2.7,0.2,15,26,0,,,,
R,,9030082.0,-0.033,0.631,-0.817,-0.3,-1.7,-0.6,0,19,0,,,,
R,,9030142.0,0.2,0.631,-0.696,-0.1,-3.0,-2.1,0,12,0,,,,
R,,9030202.0,0.129,0.635,-0.75,0.3,-0.1,-0.1,0,0,0,,,,
R,,9030262.0,0.056,0.72,-0.701,-0.2,0.4,1.0,0,0,0,,,,
R,,9030322.0,0.107,0.641,-0.72,-1.1,0.9,0.9,0,0,0,,,,
R,,9030381.0,0.174,0.695,-0.7,-0.3,0.3,0.3,0,0,0,,,,
R,,9030441.0,0.074,0.661,-0.716,-0.1,0.0,0.0,0,0,0,,,,
R,,9030503.0,0.113,0.725,-0.721,0.3,-1.3,0.0,0,0,0,,,,
R,,9030562.0,0.241,0.666,-0.725,0.0,-0.4,-0.4,0,0,0,,,,
R,,9030622.0,0.104,0.626,-0.73,-0.1,-0.6,-0.1,0,0,0,,,,
R,,9030682.0,0.11,0.654,-0.709,-0.2,-0.1,0.1,0,0,0,,,,
R,,9030742.0,0.098,0.671,-0.724,0.0,-0.4,-0.1,0,0,0,,,,
R,,9030801.0,0.095,0.668,-0.746,0.4,-0.4,-0.1,0,2,0,,,,
R,,9030862.0,0.096,0.676,-0.727,0.3,-0.3,0.2,0,2,0,,,,
R,,9030921.0,0.086,0.655,-0.714,0.1,-0.9,-0.4,0,1,0,,,,
R,,9030982.0,0.082,0.65,-0.721,0.2,-0.9,-0.3,0,7,0,,,,
R,,9031041.0,0.091,0.667,-0.743,0.0,0.1,0.2,0,8,0,,,,
R,,9031102.0,0.077,0.641,-0.728,-0.4,-0.4,0.0,0,6,0,,,,
R,,9031162.0,0.114,0.666,-0.7,-0.1,-0.5,0.0,0,4,0,,,,
R,,9031223.0,0.127,0.653,-0.713,0.0,-0.5,0.0,0,0,0,,,,
R,,9031282.0,0.104,0.634,-0.716,0.0,-0.7,-0.1,0,0,0,,,,
R,,9031341.0,0.095,0.665,-0.721,0.2,-0.7,-0.2,0,0,0,,,,
R,,9031402.0,0.062,0.699,-0.723,0.0,0.3,0.1,0,0,0,,,,
R,,9031492.0,0.094,0.68,-0.731,0.1,-0.5,-0.4,0,0,0,,,,
R,,9031552.0,0.099,0.669,-0.729,0.0,-0.5,-0.2,0,0,0,,,,
R,,9031612.0,0.089,0.677,-0.723,0.0,-0.3,0.0,0,0,0,,,,
R,,9031671.0,0.092,0.675,-0.728,-0.1,-0.2,0.0,0,0,0,,,,
R,,9031731.0,0.092,0.656,-0.721,0.0,-0.4,-0.1,0,0,0,,,,
R,,9031791.0,0.101,0.657,-0.723,-0.1,-0.7,-0.4,0,0,0,,,,
R,,9031852.0,0.118,0.678,-0.695,-0.3,-0.4,-0.2,0,0,0,,,,
R,,9031914.0,0.159,0.642,-0.723,0.0,0.5,1.7,0,0,0,,,,
R,,9031972.0,0.06,0.656,-0.748,-0.2,0.1,0.2,0,0,0,,,,
R,,9032032.0,0.103,0.727,-0.743,0.1,0.9,1.6,0,0,0,,,,
R,,9032091.0,0.06,0.712,-0.739,0.8,-1.0,1.2,0,0,0,,,,
R,,9032152.0,0.142,0.753,-0.711,0.0,-0.8,-0.3,0,0,0,,,,
R,,9032211.0,0.105,0.623,-0.678,-1.0,0.4,-0.5,0,0,0,,,,
R,,9032272.0,0.138,0.627,-0.686,0.3,-0.7,1.5,0,0,0,,,,
R,,9032332.0,0.144,0.633,-0.743,0.4,-1.1,-0.2,0,0,0,,,,
R,,9032392.0,0.15,0.656,-0.701,-0.4,-0.4,-0.7,0,0,0,,,,
R,,9032452.0,0.123,0.71,-0.659,-1.0,0.3,0.5,0,0,0,,,,
R,,9032512.0,0.132,0.653,-0.71,0.4,-0.3,0.0,0,0,0,,,,
R,,9032572.0,0.154,0.709,-0.759,0.6,-0.8,-0.3,0,0,0,,,,
R,,9032633.0,0.124,0.408,-0.681,-1.8,-0.7,-1.0,0,0,0,,,,
R,,9032735.0,0.104,0.619,-0.705,0.6,0.3,1.3,0,0,0,,,,
R,,9032751.0,0.121,0.678,-0.702,0.9,0.8,2.2,0,0,0,,,,
R,,9032812.0,0.299,0.938,-0.711,1.3,-0.2,-0.1,0,0,0,,,,
R,,9032872.0,0.104,0.648,-0.708,0.2,-0.6,0.1,0,0,0,,,,
R,,9032932.0,0.133,0.684,-0.702,0.7,-1.1,0.2,0,0,0,,,,
R,,9032992.0,0.118,0.695,-0.703,-0.9,-0.5,-1.5,0,0,0,,,,
R,,9033052.0,0.097,0.676,-0.737,-1.0,-0.1,-0.2,0,0,0,,,,
R,,9033112.0,0.125,0.73,-0.719,0.2,-0.7,-0.5,0,0,0,,,,
R,,9033171.0,0.133,0.735,-0.717,0.8,-0.7,0.1,1,0,0,,,,
R,,9033232.0,0.093,0.668,-0.714,0.0,-0.6,0.2,1,0,0,,,,
R,,9033291.0,0.109,0.548,-0.713,1.1,-0.8,0.7,0,0,0,,,,
R,,9033353.0,0.115,0.76,-0.746,0.4,0.0,0.0,0,0,0,,,,
R,,9033412.0,0.134,0.689,-0.716,-0.7,-0.1,-0.9,0,0,0,,,,
R,,9033472.0,0.132,0.164,-0.706,-1.5,1.4,3.5,0,0,0,,,,
R,,9033532.0,0.13,0.627,-0.728,0.9,-0.4,1.0,0,0,0,,,,
R,,9033592.0,0.125,0.677,-0.712,0.9,-0.8,-0.3,0,0,0,,,,
R,,9033652.0,0.137,0.661,-0.715,0.2,-1.0,0.0,0,0,0,,,,
R,,9033711.0,0.102,0.657,-0.715,0.0,-0.4,0.0,0,0,0,,,,
R,,9033772.0,0.136,0.695,-0.693,-0.6,-0.3,-0.1,0,0,0,,,,
R,,9033832.0,0.122,0.64,-0.727,-0.5,-0.1,0.3,0,0,0,,,,
R,,9033892.0,0.117,0.637,-0.726,0.6,-1.8,0.0,0,0,0,,,,
R,,9033952.0,0.116,0.74,-0.734,0.6,-1.3,0.3,1,0,0,,,,
R,,9034013.0,0.064,0.686,-0.712,-1.1,-0.1,-0.2,0,0,0,,,,
R,,9034072.0,0.094,0.709,-0.764,0.2,-0.4,-1.3,3,0,0,,,,
R,,9034132.0,0.14,0.483,-0.646,-3.9,0.4,-3.5,5,0,0,,,,
R,,9034192.0,0.044,0.75,-0.732,3.9,-0.7,0.7,6,0,0,,,,
R,,9034282.0,0.107,0.743,-0.729,1.3,-1.0,0.0,7,0,0,,,,
R,,9034342.0,0.094,0.641,-0.66,-0.6,0.0,1.5,6,0,0,,,,
R,,9034402.0,0.075,0.679,-0.73,2.9,-1.0,-0.4,6,0,0,,,,
R,,9034461.0,0.123,0.689,-0.767,0.5,0.4,0.7,4,0,0,,,,
R,,9034522.0,0.08,0.646,-0.723,0.7,-1.1,0.4,2,0,0,,,,
R,,9034582.0,0.108,0.672,-0.691,0.7,-1.1,0.2,2,0,0,,,,
R,,9034642.0,0.074,0.654,-0.699,-0.9,-0.4,-1.5,1,0,0,,,,
R,,9034702.0,0.086,0.671,-0.745,0.2,-0.7,-0.6,1,0,0,,,,
R,,9034763.0,0.158,0.548,-0.659,-1.9,0.0,1.6,4,0,0,,,,
R,,9034822.0,0.074,0.658,-0.725,1.4,-0.9,-0.4,3,0,0,,,,
R,,9034882.0,0.079,0.633,-0.722,0.2,-1.2,1.0,7,0,0,,,,
R,,9034942.0,0.099,0.654,-0.72,1.7,-0.4,-1.0,5,0,0,,,,
R,,9035001.0,0.068,0.682,-0.78,0.2,-0.8,0.3,5,0,0,,,,
R,,9035062.0,0.081,0.683,-0.723,0.3,-0.9,-0.4,7,0,0,,,,
R,,9035122.0,0.049,0.659,-0.695,-0.5,-0.5,-0.5,8,0,0,,,,
R,,9035182.0,0.096,0.649,-0.697,0.7,0.0,0.7,8,0,0,,,,
R,,9035242.0,0.13,0.69,-0.7,-1.0,0.5,2.2,8,0,0,,,,
R,,9035302.0,0.123,0.77,-0.747,-1.2,3.2,0.8,6,0,0,,,,
R,,9035362.0,0.199,0.641,-0.732,-0.2,1.0,0.1,9,0,0,,,,
R,,9035422.0,0.076,0.601,-0.726,0.3,1.7,-0.8,0,5,0,,,,
R,,9035484.0,0.064,0.671,-0.755,0.8,0.6,0.8,0,8,0,,,,
R,,9035541.0,0.116,0.633,-0.703,0.2,-0.8,0.0,0,6,0,,,,
R,,9035602.0,0.191,0.673,-0.676,-0.3,-0.3,-0.5,2,5,0,,,,
R,,9035703.0,0.13,0.652,-0.726,0.3,-1.7,-0.5,0,10,0,,,,
R,,9035722.0,0.115,0.655,-0.744,0.5,-1.1,-0.4,0,13,0,,,,
R,,9035782.0,0.184,0.681,-0.741,0.5,-0.5,-1.0,5,10,0,,,,
R,,9035842.0,0.224,0.684,-0.698,0.1,-1.4,1.1,17,11,0,,,,
R,,9035902.0,0.091,0.645,-0.711,-0.2,0.1,0.1,20,8,0,,,,
R,,9035962.0,0.133,0.662,-0.694,-0.8,-0.7,-0.6,20,7,0,,,,
R,,9036022.0,0.161,0.693,-0.707,-0.1,-0.6,-1.2,20,10,0,,,,
R,,9036082.0,0.138,0.66,-0.733,-0.6,-0.1,0.7,16,12,0,,,,
R,,9036143.0,0.118,0.685,-0.747,-0.3,-0.6,-0.1,17,10,0,,,,
R,,9036202.0,0.097,0.662,-0.758,0.6,-1.3,-1.0,17,12,0,,,,
R,,9036262.0,0.099,0.707,-0.747,0.9,-0.3,-1.9,11,19,0,,,,
R,,9036322.0,0.104,0.644,-0.677,0.4,-1.1,-1.4,13,21,0,,,,
R,,9036382.0,0.087,0.658,-0.679,-0.2,0.1,0.9,12,20,0,,,,
R,,9036442.0,0.087,0.727,-0.728,-0.4,-0.5,-0.3,12,18,0,,,,
R,,9036502.0,0.154,0.664,-0.665,-0.6,-0.3,1.0,11,16,0,,,,
R,,9036562.0,0.098,0.639,-0.741,0.1,-0.1,1.1,10,15,0,,,,
R,,9036622.0,0.114,0.687,-0.749,0.0,-0.7,-0.1,11,17,0,,,,
R,,9036681.0,-0.029,1.108,-0.975,0.3,0.0,-2.5,10,17,0,,,,
R,,9036742.0,0.147,0.634,-0.678,-0.2,-0.1,0.1,11,16,0,,,,
R,,9036832.0,0.118,0.694,-0.721,0.0,0.0,0.3,11,18,0,,,,
R,,9036893.0,0.143,0.722,-0.801,0.9,-1.2,1.0,12,18,0,,,,
R,,9036952.0,0.09,0.7,-0.66,-0.3,-0.5,-2.2,11,16,0,,,,
R,,9037012.0,0.097,0.646,-0.721,0.0,-0.1,1.1,10,16,0,,,,
R,,9037072.0,0.112,0.709,-0.741,0.0,0.1,0.0,10,15,0,,,,
R,,9037132.0,0.089,0.65,-0.728,0.2,-2.2,-1.4,10,13,0,,,,
R,,9037192.0,0.089,0.686,-0.705,0.4,-0.6,0.0,10,14,0,,,,
R,,9037252.0,0.087,0.74,-0.757,0.9,-0.3,-0.3,9,14,0,,,,
R,,9037312.0,0.182,0.616,-0.709,0.2,-1.1,0.0,7,13,0,,,,
R,,9037372.0,0.057,0.738,-0.748,0.2,-0.5,-1.8,9,14,0,,,,
R,,9037432.0,0.162,0.552,-0.634,-2.0,0.5,2.5,10,15,0,,,,
R,,9037492.0,0.099,0.622,-0.726,1.4,0.6,-1.2,10,16,0,,,,
R,,9037553.0,0.094,0.762,-0.757,0.8,-2.0,1.6,10,17,0,,,,
R,,9037612.0,0.112,0.711,-0.725,-0.1,-1.0,0.3,9,15,0,,,,
R,,9037672.0,0.117,0.635,-0.687,-0.2,-1.0,0.3,12,16,0,,,,
R,,9037732.0,0.103,0.729,-0.761,0.0,-0.5,-0.9,10,16,0,,,,
R,,9037792.0,0.121,0.684,-0.741,-0.2,-0.1,-0.6,11,16,0,,,,
R,,9037852.0,0.17,0.648,-0.706,-0.2,-0.5,0.5,10,17,0,,,,
R,,9037912.0,0.081,0.742,-0.697,2.0,-2.7,-4.3,10,17,0,,,,
R,,9038002.0,0.068,0.569,-0.749,1.1,-0.4,-0.6,8,13,0,,,,
R,,9038062.0,0.137,0.664,-0.688,-1.0,1.0,2.9,10,14,0,,,,
R,,9038122.0,0.015,0.763,-0.728,1.0,-0.5,-0.5,8,16,0,,,,
R,,9038182.0,0.087,0.675,-0.724,-0.7,0.0,-0.8,8,13,0,,,,
R,,9038242.0,0.127,0.713,-0.779,1.0,0.0,0.4,10,15,0,,,,
R,,9038303.0,0.142,0.595,-0.77,0.0,0.1,-0.6,5,10,0,,,,
R,,9038392.0,0.099,0.672,-0.686,0.0,-0.5,-0.1,574,760,0,,,,
R,,9038452.0,0.156,0.647,-0.687,0.1,-0.8,0.0,575,757,0,,,,
R,,9038512.0,0.121,0.676,-0.709,0.1,-0.1,0.2,569,759,0,,,,
R,,9038572.0,0.133,0.66,-0.735,-0.2,-0.5,-0.1,571,755,0,,,,
R,,9038632.0,0.109,0.683,-0.727,0.0,-1.3,-0.8,558,757,0,,,,
R,,9038692.0,0.122,0.724,-0.72,-0.5,0.0,0.4,576,762,0,,,,
R,,9038752.0,0.169,0.646,-0.677,0.1,-0.5,0.0,575,761,0,,,,
R,,9038812.0,0.103,0.676,-0.728,0.4,-0.7,-0.7,578,762,0,,,,
R,,9038872.0,0.125,0.699,-0.707,-0.1,-0.1,0.2,574,764,0,,,,
R,,9038932.0,0.089,0.696,-0.719,-0.1,-0.9,-0.7,575,764,0,,,,
R,,9038992.0,0.165,0.682,-0.705,0.0,-0.6,0.5,574,763,0,,,,
R,,9039053.0,0.119,0.672,-0.754,0.5,0.0,0.1,576,764,0,,,,
R,,9039112.0,0.151,0.631,-0.701,0.2,-0.3,0.4,578,764,0,,,,
R,,9039202.0,0.104,0.671,-0.694,0.0,-0.7,-1.3,577,765,0,,,,
R,,9039262.0,0.12,0.65,-0.697,0.0,-0.2,0.2,578,764,0,,,,
R,,9039322.0,0.115,0.651,-0.74,0.2,-0.8,-0.9,577,765,0,,,,
R,,9039382.0,0.106,0.672,-0.726,0.0,-0.1,-0.2,576,764,0,,,,
R,,9039442.0,0.065,0.714,-0.728,-0.6,-0.1,0.0,576,763,0,,,,
R,,9039502.0,0.106,0.655,-0.694,0.6,-1.0,-0.6,577,764,0,,,,
R,,9039562.0,0.105,0.671,-0.728,-0.1,-0.2,-0.9,579,764,0,,,,
R,,9039623.0,0.105,0.682,-0.673,-1.0,0.2,0.7,579,765,0,,,,
R,,9039682.0,0.067,0.65,-0.692,0.6,-1.2,-0.1,578,763,0,,,,
R,,9039744.0,0.113,0.702,-0.736,-1.0,-0.4,0.2,576,764,0,,,,
R,,9039801.0,0.11,0.69,-0.745,0.6,-0.7,-0.5,580,767,0,,,,
R,,9039862.0,0.065,0.873,-0.764,1.3,-0.3,1.0,580,765,0,,,,
R,,9039922.0,0.099,0.673,-0.719,0.7,-0.2,0.3,578,765,0,,,,
R,,9039982.0,0.091,0.671,-0.695,0.4,-0.4,0.0,578,764,0,,,,
R,,9040042.0,0.106,0.668,-0.68,0.0,-0.5,0.0,576,763,0,,,,
R,,9040102.0,0.097,0.673,-0.705,-0.4,-0.3,0.0,577,766,0,,,,
R,,9040162.0,0.096,0.672,-0.736,-0.4,0.0,-0.1,578,764,0,,,,
R,,9040222.0,0.115,0.681,-0.733,-0.2,0.3,-0.2,577,762,0,,,,
R,,9040282.0,0.104,0.65,-0.71,-0.1,0.3,-0.1,578,764,0,,,,
R,,9040342.0,0.112,0.639,-0.668,-0.5,-0.1,-0.1,578,765,0,,,,
R,,9040402.0,0.121,0.693,-0.731,-0.8,0.4,-0.2,579,764,0,,,,
R,,9040463.0,0.052,0.718,-0.713,-0.6,-0.9,-0.3,577,764,0,,,,
R,,9040552.0,0.123,0.749,-0.672,-0.4,-0.6,-1.3,581,763,0,,,,
R,,9040612.0,0.092,0.69,-0.694,-0.4,-0.3,-1.5,579,763,0,,,,
R,,9040672.0,0.132,0.683,-0.664,-1.0,0.1,-1.0,578,762,0,,,,
R,,9040732.0,0.102,0.716,-0.675,-1.3,0.5,-0.7,579,762,0,,,,
R,,9040792.0,0.057,0.747,-0.723,-1.5,0.3,-0.3,578,764,0,,,,
R,,9040852.0,0.046,0.75,-0.653,-1.4,0.1,-0.4,577,761,0,,,,
R,,9040913.0,0.021,0.785,-0.63,-2.4,0.6,-0.5,578,762,0,,,,
R,,9040972.0,0.077,0.656,-0.627,-3.4,0.0,-1.5,576,760,0,,,,
R,,9041032.0,0.017,0.569,-0.53,-4.6,1.0,-1.9,564,757,0,,,,
R,,9041092.0,0.02,0.437,-0.384,-7.0,1.0,-4.2,553,752,0,,,,
R,,9041152.0,0.038,0.453,-0.329,-10.0,-1.3,-5.9,524,741,0,,,,
R,,9041213.0,-0.033,0.528,-0.261,-11.6,0.7,-6.1,516,739,0,,,,
R,,9041272.0,0.013,0.651,-0.228,-12.1,-3.0,-3.0,495,734,0,,,,
R,,9041333.0,-0.102,1.026,-0.187,-9.4,-0.9,-2.3,493,739,0,,,,
R,,9041392.0,-0.186,1.357,-0.136,-6.8,-4.7,-1.2,489,740,0,,,,
R,,9041453.0,-0.14,1.624,-0.124,-4.5,-2.7,-2.1,495,742,0,,,,
R,,9041512.0,-0.064,1.56,-0.197,-4.0,0.3,-3.5,511,746,0,,,,
R,,9041572.0,0.033,0.949,-0.12,-4.5,-0.7,-3.5,517,748,0,,,,
R,,9041631.0,0.375,0.55,-0.046,-3.0,2.0,1.2,499,727,0,,,,
R,,9041692.0,0.732,2.305,-0.906,-7.8,-5.4,5.5,617,787,0,,,,
R,,9041752.0,-0.522,0.71,-0.433,-3.5,-1.0,-1.1,665,823,0,,,,
R,,9041812.0,-0.226,1.069,0.02,-4.1,1.0,-2.6,692,838,0,,,,
R,,9041874.0,-0.239,0.973,0.113,-3.5,-2.3,-0.7,708,854,0,,,,
R,,9041962.0,-0.273,0.951,0.131,-0.9,0.1,2.2,717,866,0,,,,
R,,9042022.0,-0.22,0.952,0.128,0.0,0.8,3.6,720,870,0,,,,
R,,9042083.0,-0.165,0.988,0.128,1.0,0.5,2.7,720,867,0,,,,
R,,9042142.0,-0.131,0.994,0.124,1.7,0.1,2.5,719,865,0,,,,
R,,9042203.0,-0.129,1.013,0.051,2.5,-1.2,2.1,721,865,0,,,,
R,,9042262.0,-0.105,1.032,0.024,1.3,-2.8,3.6,729,872,0,,,,
R,,9042322.0,-0.077,1.109,-0.066,-0.6,-3.1,1.2,724,871,0,,,,
R,,9042382.0,0.005,1.254,-0.042,-4.3,-3.9,-0.7,674,870,0,,,,
R,,9042442.0,-0.4,1.373,-0.387,-8.4,-8.9,-4.4,481,839,0,,,,
R,,9042502.0,-0.426,0.875,-0.353,-6.8,-19.4,-5.8,472,708,0,,,,
R,,9042562.0,0.192,0.428,-0.385,6.3,-12.8,-4.0,492,713,0,,,,
R,,9042624.0,0.123,0.786,-0.224,17.8,-11.9,0.5,500,722,0,,,,
R,,9042682.0,0.073,1.2,0.134,19.9,-18.7,1.9,509,725,0,,,,
R,,9042743.0,0.402,1.35,0.714,11.5,-16.8,2.8,486,729,0,,,,
R,,9042802.0,0.069,1.189,0.843,-0.7,-6.4,-1.8,543,721,0,,,,
R,,9042862.0,-0.13,1.48,0.377,-4.4,-0.5,-1.9,648,786,0,,,,
R,,9042921.0,-0.208,1.003,-0.103,-2.5,5.8,-3.2,675,809,0,,,,
R,,9042982.0,-0.18,0.991,-0.091,-4.0,-2.5,-0.9,685,822,0,,,,
R,,9043042.0,-0.21,0.981,0.047,-2.1,-1.3,-0.2,698,836,0,,,,
R,,9043102.0,-0.093,0.987,-0.073,-0.5,-1.7,0.0,708,845,0,,,,
R,,9043163.0,-0.162,0.989,-0.015,-0.1,-1.7,0.0,715,851,0,,,,
R,,9043222.0,-0.183,0.99,-0.067,-0.6,-1.0,0.4,724,863,0,,,,
R,,9043282.0,-0.174,1.008,-0.104,-1.3,-2.9,0.5,722,862,0,,,,
R,,9043374.0,-0.141,1.072,-0.051,-5.4,-4.7,0.1,724,877,0,,,,
R,,9043432.0,-0.148,1.118,-0.017,-8.4,-5.3,-0.2,671,881,0,,,,
R,,9043493.0,0.017,1.393,-0.055,-12.8,-5.4,-1.5,416,893,0,,,,
R,,9043552.0,-0.004,1.653,-0.404,-17.0,-4.6,-6.7,125,882,0,,,,
R,,9043612.0,-0.604,0.863,0.136,-13.5,-8.7,-8.4,164,782,0,,,,
R,,9043672.0,-0.04,-0.037,-0.215,1.9,-20.8,-1.8,429,693,0,,,,
R,,9043732.0,0.334,0.298,-0.183,18.7,-8.1,0.3,449,694,0,,,,
R,,9043792.0,0.228,0.854,-0.124,29.6,-3.5,3.2,464,691,0,,,,
R,,9043852.0,-0.067,1.517,0.144,31.3,-9.7,6.1,451,700,0,,,,
R,,9043913.0,0.019,1.773,1.194,18.3,-9.2,5.3,389,706,0,,,,
R,,9043972.0,-0.162,1.28,1.203,-1.4,1.8,-2.4,488,698,0,,,,
R,,9044034.0,-0.295,1.38,0.102,-6.1,1.5,-2.7,640,776,0,,,,
R,,9044092.0,0.0,1.092,-0.019,-6.2,2.1,-4.1,683,818,0,,,,
R,,9044152.0,-0.264,0.887,-0.147,-4.7,-0.9,-0.9,706,845,0,,,,
R,,9044212.0,-0.1,0.972,-0.131,-1.9,0.0,-0.3,714,856,0,,,,
R,,9044272.0,-0.117,0.993,-0.069,-2.4,-1.1,0.8,723,865,0,,,,
R,,9044333.0,-0.14,0.988,-0.142,-1.6,-0.7,0.6,722,869,0,,,,
R,,9044422.0,-0.082,1.0,-0.081,-0.7,-0.9,0.4,723,876,0,,,,
R,,9044482.0,-0.124,0.961,-0.035,-0.7,-0.7,1.0,719,883,0,,,,
R,,9044542.0,-0.126,0.942,-0.049,1.2,-0.6,2.4,718,886,0,,,,
R,,9044632.0,-0.026,1.138,-0.213,1.5,-0.5,4.0,724,880,0,,,,
R,,9044692.0,0.123,1.514,-0.628,-5.4,-6.7,0.9,577,827,0,,,,
R,,9044752.0,-0.669,1.545,-0.213,-4.2,-12.2,-2.9,493,705,0,,,,
R,,9044814.0,-0.212,1.407,-0.291,-3.0,-16.6,-5.3,494,701,0,,,,
R,,9044873.0,0.141,1.133,0.168,-0.4,-5.6,-5.3,499,703,0,,,,
R,,9044932.0,-0.014,0.816,0.264,0.9,5.0,-5.9,497,703,0,,,,
R,,9044993.0,-0.139,0.54,0.226,0.6,5.4,-4.8,502,703,0,,,,
R,,9045052.0,-0.121,0.38,0.183,-0.2,4.1,-3.5,512,709,0,,,,
R,,9045112.0,-0.894,0.698,-0.007,0.0,6.9,-4.0,512,713,0,,,,
R,,9045172.0,-0.83,0.719,-0.202,-0.7,1.9,-5.3,520,712,0,,,,
R,,9045232.0,-0.135,0.835,-0.099,-2.5,-2.3,-2.5,517,712,0,,,,
R,,9045292.0,-0.201,0.86,-0.271,-3.9,0.6,7.3,511,708,0,,,,
R,,9045352.0,-0.258,0.987,-0.009,0.0,2.1,-1.7,518,709,0,,,,
R,,9045413.0,-0.325,1.07,0.033,-0.9,-0.4,1.6,518,709,0,,,,
R,,9045474.0,-0.136,1.006,0.13,0.7,3.5,-0.4,521,709,0,,,,
R,,9045533.0,-0.344,0.977,0.039,2.4,3.4,-2.3,525,710,0,,,,
R,,9045592.0,-0.333,0.913,0.04,0.7,-3.1,-0.1,524,711,0,,,,
R,,9045652.0,-0.156,1.132,0.146,0.6,0.1,-0.4,523,709,0,,,,
R,,9045712.0,-0.231,1.054,-0.018,1.6,0.7,-2.9,519,713,0,,,,
R,,9045772.0,-0.424,0.914,-0.163,0.6,-1.9,-0.1,520,716,0,,,,
R,,9045833.0,-0.429,1.206,0.096,-0.3,-4.3,0.9,524,716,0,,,,
R,,9045892.0,-0.243,1.027,0.15,1.1,-1.9,0.4,526,713,0,,,,
R,,9045953.0,-0.319,0.913,0.086,0.2,0.1,-1.1,524,716,0,,,,
R,,9046012.0,-0.273,0.982,0.037,-1.6,-2.1,-0.1,528,720,0,,,,
R,,9046073.0,-0.458,1.033,-0.03,-1.6,-4.0,1.7,525,718,0,,,,
R,,9046132.0,-0.145,0.989,0.077,-1.3,-1.6,0.2,526,716,0,,,,
R,,9046194.0,-0.242,0.805,-0.015,1.0,-1.4,-1.0,529,717,0,,,,
R,,9046252.0,-0.243,0.967,0.141,1.1,0.4,0.4,515,716,0,,,,
R,,9046312.0,-0.222,1.042,0.084,0.4,0.6,1.0,516,717,0,,,,
R,,9046373.0,-0.375,0.926,-0.071,1.8,6.0,0.3,516,716,0,,,,
R,,9046432.0,-1.053,0.946,0.138,1.3,1.1,0.4,522,719,0,,,,
R,,9046493.0,-0.221,1.125,0.255,2.0,8.3,-2.5,520,719,0,,,,
R,,9046552.0,0.095,1.159,0.238,5.4,-0.1,-1.2,527,728,0,,,,
R,,9046613.0,-0.2,0.924,0.112,-0.8,-2.4,-0.4,521,722,0,,,,
R,,9046672.0,-0.352,0.934,-0.044,-0.3,0.1,-0.1,520,722,0,,,,
R,,9046732.0,-0.215,1.0,-0.017,0.0,-2.7,-0.5,530,725,0,,,,
R,,9046792.0,-0.2,0.963,-0.029,4.1,0.0,-1.8,531,725,0,,,,
R,,9046852.0,-0.048,0.94,-0.023,1.4,-5.0,0.2,532,726,0,,,,
R,,9046914.0,-0.401,1.008,-0.114,2.2,-4.1,-0.7,535,724,0,,,,
R,,9046972.0,-0.41,0.979,-0.125,2.0,-9.2,1.1,537,727,0,,,,
R,,9047033.0,-0.238,0.969,-0.009,1.4,-9.9,-0.8,537,727,0,,,,
R,,9047092.0,-0.374,0.934,-0.084,3.3,-12.7,-2.4,537,728,0,,,,
R,,9047153.0,-0.158,1.097,0.154,2.3,-8.8,-2.4,537,726,0,,,,
R,,9047212.0,-0.27,0.955,0.081,0.5,-3.6,-2.0,539,726,0,,,,
R,,9047272.0,-0.303,0.934,0.019,0.1,-1.2,0.2,537,726,0,,,,
R,,9047333.0,-0.378,0.854,-0.016,0.0,1.8,1.2,538,727,0,,,,
R,,9047392.0,-0.385,0.943,0.036,0.0,-0.1,0.9,543,729,0,,,,
R,,9047453.0,-0.499,0.949,0.118,-0.1,1.8,-0.5,543,731,0,,,,
R,,9047512.0,-0.467,1.136,0.059,-3.2,-1.2,0.5,540,729,0,,,,
R,,9047574.0,-0.142,0.786,-0.052,-2.0,0.0,-0.5,539,731,0,,,,
R,,9047632.0,0.13,0.67,0.146,0.0,3.6,2.5,542,734,0,,,,
R,,9047693.0,0.252,0.393,0.383,-2.5,2.0,7.9,514,731,0,,,,
R,,9047752.0,0.103,0.263,0.54,-5.7,0.2,9.6,481,735,0,,,,
R,,9047812.0,-0.054,0.508,0.589,-7.1,3.7,7.5,470,735,0,,,,
R,,9047872.0,-0.18,1.0,0.324,-2.5,10.0,6.1,482,734,0,,,,
R,,9047932.0,-0.42,1.677,-0.212,3.5,22.4,4.8,496,735,0,,,,
R,,9047993.0,-0.567,1.63,-0.769,6.8,11.9,1.9,511,735,0,,,,
R,,9048052.0,-0.98,1.29,-0.276,7.3,-7.9,-5.1,503,736,0,,,,
R,,9048113.0,0.117,1.228,-0.292,7.1,-9.6,-1.3,491,750,0,,,,
R,,9048172.0,0.133,1.003,0.025,0.9,6.0,-3.8,633,796,0,,,,
R,,9048232.0,-0.33,1.031,-0.339,0.6,-1.1,-3.7,684,828,0,,,,
R,,9048294.0,-0.192,1.046,-0.099,0.7,-1.4,-3.9,708,847,0,,,,
R,,9048352.0,-0.2,0.987,-0.143,0.2,0.2,-2.0,719,857,0,,,,
R,,9048413.0,-0.196,0.959,-0.079,0.6,2.4,-1.0,723,861,0,,,,
R,,9048472.0,-0.171,0.97,-0.092,0.2,2.0,-1.1,730,868,0,,,,
R,,9048533.0,-0.205,0.964,-0.116,0.2,1.2,-0.8,729,869,0,,,,
R,,9048592.0,-0.206,0.975,-0.09,0.4,1.0,-0.5,729,869,0,,,,
R,,9048653.0,-0.198,0.977,-0.102,0.5,0.2,-0.5,730,870,0,,,,
R,,9048712.0,-0.203,0.979,-0.143,1.8,-0.6,-1.3,736,876,0,,,,
R,,9048772.0,-0.264,0.909,-0.205,0.6,-1.2,0.0,734,877,0,,,,
R,,9048833.0,-0.16,0.973,-0.088,0.8,-0.5,0.7,740,878,0,,,,
R,,9048892.0,-0.172,0.984,-0.18,0.6,-0.4,0.7,737,875,0,,,,
R,,9048953.0,-0.179,0.96,-0.158,0.4,1.0,0.9,730,869,0,,,,
R,,9049014.0,-0.139,0.982,-0.143,0.7,1.0,0.7,719,857,0,,,,
R,,9049073.0,-0.148,0.989,-0.156,0.5,0.0,0.2,715,850,0,,,,
R,,9049132.0,-0.174,0.98,-0.166,0.2,0.1,-0.2,714,847,0,,,,
R,,9049193.0,-0.119,0.993,-0.177,-0.6,0.0,-0.3,713,850,0,,,,
R,,9049252.0,-0.166,0.972,-0.114,-0.3,-0.3,-0.7,719,854,0,,,,
R,,9049342.0,-0.214,0.964,-0.166,0.6,0.0,-0.7,726,860,0,,,,
R,,9049403.0,-0.183,0.987,-0.147,0.0,-1.2,-0.5,726,864,0,,,,
R,,9049462.0,-0.307,0.914,-0.16,-0.1,-1.2,-0.6,728,868,0,,,,
R,,9049522.0,-0.198,0.975,-0.162,-0.2,-0.5,-0.5,731,870,0,,,,
R,,9049583.0,-0.188,0.969,-0.138,0.0,-1.5,-0.3,732,871,0,,,,
R,,9049672.0,-0.221,0.972,-0.12,0.0,-1.3,-0.1,737,876,0,,,,
R,,9049734.0,-0.225,0.96,-0.158,0.0,-0.6,0.0,741,876,0,,,,
R,,9049792.0,-0.21,0.94,-0.162,0.6,0.0,0.5,738,875,0,,,,
R,,9049852.0,-0.182,0.982,-0.197,0.0,1.3,0.4,739,871,0,,,,
R,,9049913.0,-0.163,0.978,-0.12,-0.1,-0.1,0.4,732,870,0,,,,
R,,9049972.0,-0.171,0.993,-0.083,0.4,-1.1,-0.9,735,869,0,,,,
R,,9050033.0,-0.253,0.924,-0.194,0.1,-0.9,-0.8,738,873,0,,,,
R,,9050092.0,-0.169,0.961,-0.197,0.4,-0.4,0.5,738,872,0,,,,
R,,9050153.0,-0.217,0.965,-0.179,0.3,0.0,0.7,737,872,0,,,,
R,,9050212.0,-0.144,0.998,-0.144,0.2,1.0,0.6,730,866,0,,,,
R,,9050273.0,-0.174,0.984,-0.172,0.4,-0.7,0.5,732,866,0,,,,
R,,9050333.0,-0.243,0.955,-0.21,0.3,-1.0,0.0,737,866,0,,,,
R,,9050392.0,-0.162,0.962,-0.24,-0.3,0.2,0.2,739,874,0,,,,
R,,9050454.0,-0.176,0.974,-0.177,-0.6,0.9,0.5,733,867,0,,,,
R,,9050512.0,-0.175,0.969,-0.145,-0.8,0.5,0.4,726,861,0,,,,
R,,9050573.0,-0.162,0.978,-0.158,-0.6,0.5,0.4,724,857,0,,,,
R,,9050632.0,-0.157,0.978,-0.137,-0.4,0.1,0.4,721,852,0,,,,
R,,9050693.0,-0.154,0.979,-0.16,-0.4,0.1,0.4,720,850,0,,,,
R,,9050752.0,-0.148,0.986,-0.155,-0.8,-0.1,0.4,723,855,0,,,,
R,,9050813.0,-0.133,0.983,-0.15,-1.2,-0.5,0.4,721,854,0,,,,
R,,9050873.0,-0.127,0.994,-0.124,-1.8,-0.7,0.8,719,853,0,,,,
R,,9050932.0,-0.139,0.983,-0.109,-1.8,-0.6,1.1,720,852,0,,,,
R,,9050993.0,-0.097,1.001,-0.085,-2.1,-0.7,1.2,720,853,0,,,,
R,,9051052.0,-0.091,0.992,-0.06,-2.4,-0.5,1.4,723,855,0,,,,
R,,9051113.0,-0.128,0.988,-0.049,-1.8,0.0,1.8,722,853,0,,,,
R,,9051174.0,-0.024,0.988,0.01,-0.8,0.1,2.1,717,851,0,,,,
R,,9051233.0,-0.015,0.99,0.019,-0.8,1.7,1.2,713,848,0,,,,
R,,9051292.0,-0.086,0.986,-0.073,-0.3,-0.4,2.0,721,853,0,,,,
R,,9051352.0,-0.011,1.033,-0.029,-0.6,-0.7,3.3,720,853,0,,,,
R,,9051413.0,0.016,1.067,-0.076,-1.1,0.7,4.8,719,855,0,,,,
R,,9051472.0,-0.086,1.09,-0.154,-4.2,-0.6,5.7,679,818,0,,,,
R,,9051533.0,-0.224,1.221,-0.223,-2.3,-0.2,2.4,553,706,0,,,,
R,,9051592.0,-0.393,1.099,-0.096,-1.6,-9.2,-0.4,529,682,0,,,,
R,,9051653.0,-0.194,0.657,-0.371,3.2,15.6,-9.7,524,686,0,,,,
R,,9051712.0,0.262,0.895,-0.138,6.3,-2.4,-4.0,488,686,0,,,,
R,,9051773.0,0.607,1.022,0.311,8.1,6.7,-2.3,476,695,0,,,,
R,,9051834.0,0.154,1.034,0.314,4.6,10.8,0.6,461,697,0,,,,
R,,9051892.0,0.175,0.995,0.633,-0.4,6.4,-1.7,504,707,0,,,,
R,,9051953.0,0.141,1.32,-0.117,-0.7,2.9,-0.1,599,743,0,,,,
R,,9052012.0,-0.068,0.978,-0.01,0.1,-0.1,-0.2,636,779,0,,,,
R,,9052073.0,-0.082,1.03,-0.187,1.6,0.8,-1.7,655,791,0,,,,
R,,9052132.0,-0.026,1.032,-0.166,-1.0,-2.8,-0.5,668,804,0,,,,
R,,9052193.0,0.011,0.968,-0.072,-0.5,1.6,-1.8,675,812,0,,,,
R,,9052282.0,-0.026,0.988,-0.221,-1.4,0.7,0.0,684,817,0,,,,
R,,9052342.0,0.015,1.043,-0.101,0.6,2.6,-1.2,685,817,0,,,,
R,,9052403.0,-0.042,1.055,-0.099,1.1,-5.1,1.0,690,823,0,,,,
R,,9052462.0,-0.034,0.975,-0.153,1.2,0.0,0.1,695,828,0,,,,
R,,9052523.0,-0.033,1.014,-0.156,0.1,-1.9,0.8,701,833,0,,,,
R,,9052584.0,-0.042,1.003,-0.218,-2.5,-0.3,0.1,706,838,0,,,,
R,,9052642.0,-0.007,1.059,-0.055,-4.6,-1.1,1.0,705,840,0,,,,
R,,9052703.0,-0.042,0.877,-0.072,-4.1,-1.2,1.1,711,846,0,,,,
R,,9052762.0,-0.063,0.998,-0.018,-4.1,-2.4,2.5,719,853,0,,,,
R,,9052823.0,-0.01,0.987,0.052,-3.1,-4.4,2.7,717,852,0,,,,
R,,9052882.0,0.009,0.992,0.067,-1.6,-3.3,3.7,720,854,0,,,,
R,,9052943.0,0.006,0.974,0.003,-0.2,-2.1,5.9,720,855,0,,,,
R,,9053002.0,0.129,1.108,-0.029,1.8,-0.4,7.9,721,860,0,,,,
R,,9053063.0,0.103,1.006,-0.04,7.3,-1.8,12.8,670,859,0,,,,
R,,9053123.0,-1.01,1.484,0.014,11.2,-31.0,7.8,136,782,0,,,,
R,,9053182.0,-0.53,1.487,0.784,-10.5,-34.0,-1.8,240,770,0,,,,
R,,9053245.0,-0.084,1.715,0.126,-19.2,-24.3,-10.0,387,730,0,,,,
R,,9053302.0,0.414,1.334,0.253,-24.9,-13.3,-9.5,468,728,0,,,,
R,,9053363.0,0.263,0.989,-0.011,-21.6,-2.9,-8.5,495,724,0,,,,
R,,9053422.0,0.279,0.809,-0.09,-14.3,1.5,-5.2,503,726,0,,,,
R,,9053483.0,0.216,0.639,-0.427,-4.1,10.8,-2.9,512,730,0,,,,
R,,9053542.0,0.352,0.51,-0.836,8.6,7.4,2.3,516,729,0,,,,
R,,9053603.0,-0.445,1.5,0.247,16.1,-0.9,4.7,300,816,0,,,,
R,,9053663.0,-0.109,1.354,-0.099,13.9,1.1,1.2,575,855,0,,,,
R,,9053722.0,-0.179,1.079,-0.028,8.6,5.2,-2.8,710,855,0,,,,
R,,9053783.0,-0.054,0.996,0.178,6.8,2.0,1.4,721,866,0,,,,
R,,9053842.0,-0.137,0.975,-0.02,7.4,2.0,1.4,715,852,0,,,,
R,,9053903.0,-0.032,1.016,-0.09,5.3,0.0,0.8,704,840,0,,,,
R,,9053964.0,-0.035,1.022,-0.139,3.6,-0.5,0.0,683,818,0,,,,
R,,9054023.0,-0.083,0.987,-0.127,3.4,0.1,0.3,679,812,0,,,,
R,,9054083.0,-0.076,0.967,-0.221,3.2,0.0,0.9,680,809,0,,,,
R,,9054143.0,-0.051,0.971,-0.201,3.9,0.3,1.4,678,806,0,,,,
R,,9054203.0,-0.099,0.982,-0.158,4.5,0.4,2.4,677,805,0,,,,
R,,9054262.0,-0.099,1.053,-0.041,8.0,0.8,4.6,673,802,0,,,,
R,,9054323.0,0.059,1.13,-0.189,11.5,0.2,5.4,652,785,0,,,,
R,,9054382.0,0.356,1.334,-0.304,6.1,3.8,3.0,565,728,0,,,,
R,,9054443.0,-0.151,1.248,0.541,-12.8,7.3,-5.6,518,707,0,,,,
R,,9054502.0,-0.04,1.158,0.12,-20.0,-0.2,-6.7,530,708,0,,,,
R,,9054563.0,0.166,1.1,-0.032,-20.5,-4.4,-5.5,537,709,0,,,,
R,,9054623.0,0.325,0.803,-0.409,-15.9,0.6,-3.7,545,718,0,,,,
R,,9054684.0,0.318,0.668,-0.785,-1.5,4.5,2.4,547,718,0,,,,
R,,9054743.0,0.015,1.041,-1.07,10.9,3.5,5.0,522,722,0,,,,
R,,9054802.0,-0.252,1.424,-0.645,12.0,-2.4,1.6,625,787,0,,,,
R,,9054863.0,0.081,1.064,-0.047,6.0,2.2,-2.3,682,820,0,,,,
R,,9054922.0,-0.02,1.032,-0.065,4.0,0.2,-0.4,687,821,0,,,,
R,,9054983.0,-0.091,1.026,-0.103,3.4,1.5,-1.8,689,820,0,,,,
R,,9055042.0,0.013,1.013,-0.126,1.4,-0.3,-0.7,683,815,0,,,,
R,,9055103.0,-0.08,1.016,-0.045,0.3,0.3,-0.4,680,812,0,,,,
R,,9055163.0,-0.032,1.003,-0.131,0.3,0.4,-0.5,685,814,0,,,,
R,,9055252.0,-0.023,0.984,-0.154,0.2,0.0,-0.1,683,813,0,,,,
R,,9055313.0,-0.059,1.024,-0.131,-0.1,1.0,-0.3,683,809,0,,,,
R,,9055375.0,-0.009,0.981,-0.078,-0.8,1.4,0.0,682,809,0,,,,
R,,9055433.0,-0.037,0.982,-0.118,-0.4,-1.0,-0.6,684,810,0,,,,
R,,9055493.0,-0.064,1.027,-0.156,0.0,-1.7,-0.8,684,810,0,,,,
R,,9055552.0,-0.189,1.037,0.208,-2.1,0.2,-1.0,690,819,0,,,,
R,,9055613.0,-0.063,1.009,-0.106,-0.7,-0.1,-0.3,705,840,0,,,,
R,,9055672.0,-0.067,0.996,-0.08,-1.8,-1.5,0.5,713,849,0,,,,
R,,9055733.0,-0.088,0.981,-0.064,-0.9,-0.6,0.3,715,854,0,,,,
R,,9055792.0,0.01,1.014,-0.072,-0.4,-0.8,0.8,719,859,0,,,,
R,,9055853.0,-0.025,0.996,-0.063,-0.1,-0.3,0.3,717,861,0,,,,
R,,9055913.0,-0.043,0.984,-0.055,0.2,-0.5,0.4,720,870,0,,,,
R,,9055973.0,-0.04,0.98,-0.058,0.3,-0.2,0.2,714,870,0,,,,
R,,9056033.0,-0.017,1.007,-0.067,0.1,-0.9,0.3,721,870,0,,,,
R,,9056094.0,-0.028,0.987,-0.062,0.4,-1.1,0.5,726,871,0,,,,
R,,9056153.0,-0.014,1.002,-0.063,0.5,-0.6,0.0,729,873,0,,,,
R,,9056212.0,0.007,1.018,-0.084,-0.2,-0.4,0.0,731,868,0,,,,
R,,9056273.0,-0.024,0.992,-0.071,-0.2,-0.4,0.0,735,872,0,,,,
R,,9056333.0,-0.028,0.996,-0.079,-0.3,-0.7,0.4,733,867,0,,,,
R,,9056393.0,-0.011,1.006,-0.061,-0.6,-0.9,0.5,734,866,0,,,,
R,,9056453.0,0.0,0.999,-0.066,-0.8,-0.6,0.2,735,870,0,,,,
R,,9056513.0,0.003,1.001,-0.044,-0.8,-0.7,0.0,735,872,0,,,,
R,,9056573.0,-0.003,1.007,-0.032,-0.4,-0.4,-0.4,735,869,0,,,,
R,,9056632.0,-0.013,0.999,-0.048,-0.2,-0.6,0.0,734,871,0,,,,
R,,9056692.0,-0.014,0.996,-0.039,-0.7,-0.6,0.0,732,871,0,,,,
R,,9056752.0,-0.017,1.0,-0.024,-0.4,-0.2,0.0,733,870,0,,,,
R,,9056814.0,-0.001,0.999,-0.032,0.0,-0.3,0.1,732,870,0,,,,
R,,9056873.0,0.003,0.999,-0.04,0.4,-0.4,0.3,732,870,0,,,,
R,,9056933.0,-0.001,1.008,-0.041,0.1,-0.3,0.3,732,873,0,,,,
R,,9056993.0,0.011,1.005,-0.046,-0.3,-0.4,0.1,732,874,0,,,,
R,,9057052.0,-0.002,0.998,-0.027,-0.5,-0.5,0.0,731,875,0,,,,
R,,9057113.0,0.006,1.003,-0.03,-0.5,-0.5,-0.1,729,876,0,,,,
R,,9057172.0,-0.003,1.0,-0.023,-0.7,-0.6,-0.1,729,873,0,,,,
R,,9057233.0,0.012,1.001,0.002,-0.4,-0.6,-0.1,731,877,0,,,,
R,,9057292.0,-0.008,0.995,-0.004,0.4,-0.3,-0.1,729,875,0,,,,
R,,9057353.0,0.006,1.001,-0.022,0.3,-0.6,-0.1,729,880,0,,,,
R,,9057413.0,0.007,1.008,-0.02,0.0,-0.5,-0.3,731,879,0,,,,
R,,9057504.0,-0.003,0.996,-0.003,0.0,-0.4,-0.4,729,877,0,,,,
R,,9057563.0,0.01,1.002,-0.007,0.2,-0.3,-0.5,731,878,0,,,,
R,,9057623.0,-0.01,1.014,-0.029,0.3,-0.4,-0.5,734,878,0,,,,
R,,9057683.0,-0.022,1.005,-0.024,0.0,-0.5,-0.3,730,878,0,,,,
R,,9057743.0,-0.02,0.999,-0.016,0.0,-0.4,-0.3,733,880,0,,,,
R,,9057803.0,-0.021,0.993,-0.017,0.0,-0.4,-0.2,727,877,0,,,,
R,,9057863.0,-0.019,1.0,-0.014,0.0,-0.4,-0.1,729,879,0,,,,
R,,9057922.0,-0.019,1.0,-0.013,0.0,-0.3,-0.2,731,881,0,,,,
R,,9057982.0,-0.018,0.998,-0.014,0.0,-0.3,-0.1,733,882,0,,,,
R,,9058042.0,-0.018,0.997,-0.015,0.1,-0.4,-0.1,736,882,0,,,,
R,,9058103.0,-0.022,0.998,-0.02,0.2,-0.4,-0.1,736,883,0,,,,
R,,9058163.0,-0.024,0.999,-0.02,0.1,-0.4,-0.1,737,882,0,,,,
R,,9058224.0,-0.021,1.0,-0.024,0.1,-0.3,-0.2,738,884,0,,,,
R,,9058283.0,-0.023,1.0,-0.022,0.0,-0.4,-0.1,742,884,0,,,,
R,,9058342.0,-0.022,1.004,-0.026,0.0,-0.4,-0.1,740,885,0,,,,
R,,9058403.0,-0.021,0.992,-0.04,-0.1,-0.1,-0.2,739,883,0,,,,
R,,9058462.0,0.017,1.047,-0.039,-1.2,-0.6,-0.8,727,868,0,,,,
R,,9058523.0,-0.07,0.958,0.017,-3.3,-0.9,-1.5,723,866,0,,,,
R,,9058583.0,-0.043,0.974,0.096,0.4,0.1,-1.3,711,850,0,,,,
R,,9058643.0,-0.035,1.04,-0.071,0.4,0.0,-1.9,708,844,0,,,,
R,,9058703.0,-0.104,0.926,0.052,0.4,0.0,-2.6,713,849,0,,,,
R,,9058763.0,-0.124,1.114,-0.192,-0.3,1.2,-2.7,719,856,0,,,,
R,,9058823.0,-0.087,1.025,-0.005,-1.8,-1.3,-0.7,728,864,0,,,,
R,,9058882.0,-0.13,0.982,0.039,-2.1,-2.5,0.5,734,870,0,,,,
R,,9058944.0,-0.126,0.989,0.046,-1.2,-1.8,0.4,738,880,0,,,,
R,,9059002.0,-0.096,1.057,0.009,-1.8,-1.2,0.4,734,882,0,,,,
R,,9059063.0,-0.076,1.086,0.039,-4.0,-1.7,0.2,688,892,0,,,,
R,,9059123.0,-0.071,1.106,0.073,-5.4,-1.7,-0.4,522,895,0,,,,
R,,9059183.0,-0.107,1.111,0.059,-7.3,-1.8,-1.2,239,903,0,,,,
R,,9059243.0,0.0,1.149,0.137,-9.9,-1.6,-2.0,121,900,0,,,,
R,,9059303.0,-0.009,1.307,0.0,-13.2,-1.3,-2.9,100,898,0,,,,
R,,9059363.0,-0.121,1.509,-0.354,-17.5,-3.5,-5.9,81,879,0,,,,
R,,9059422.0,-0.289,1.382,0.25,-19.4,-3.6,-4.8,77,837,0,,,,
R,,9059483.0,-0.157,-0.513,-0.33,-9.2,-3.2,2.7,360,690,0,,,,
R,,9059542.0,-0.139,0.25,-0.344,9.0,5.3,7.2,403,678,0,,,,
R,,9059604.0,-0.159,0.321,-0.317,22.6,5.0,10.2,416,667,0,,,,
R,,9059663.0,-0.135,0.923,-0.179,31.2,-1.5,9.7,428,680,0,,,,
R,,9059723.0,0.006,1.612,-0.151,37.3,0.5,7.3,430,689,0,,,,
R,,9059783.0,-0.133,1.967,0.293,34.0,4.3,6.5,316,695,0,,,,
R,,9059843.0,-0.406,1.647,1.42,17.6,5.8,2.5,200,709,0,,,,
R,,9059903.0,0.002,0.6,-0.213,-9.7,6.3,-6.7,547,708,0,,,,
R,,9059962.0,0.0,1.075,0.08,-9.7,2.7,-10.1,646,775,0,,,,
R,,9060023.0,-0.16,0.988,-0.279,-8.5,4.6,-6.0,690,826,0,,,,
R,,9060082.0,0.082,1.068,-0.097,-7.3,2.4,-3.5,714,855,0,,,,
R,,9060143.0,-0.039,1.015,-0.151,-6.6,-1.2,-0.7,728,870,0,,,,
R,,9060203.0,-0.08,1.053,-0.203,-7.0,-2.0,-0.3,716,881,0,,,,
R,,9060263.0,-0.043,1.011,-0.018,-5.8,-2.0,-0.1,625,889,0,,,,
R,,9060354.0,-0.119,0.897,0.047,-6.1,-0.3,-0.3,492,892,0,,,,
R,,9060413.0,0.016,1.067,0.103,-7.7,-1.4,-0.6,372,895,0,,,,
R,,9060473.0,0.03,1.203,0.033,-10.8,0.0,-1.3,254,898,0,,,,
R,,9060533.0,0.01,1.489,-0.118,-15.8,-0.4,-2.6,126,894,0,,,,
R,,9060593.0,0.073,2.052,-0.913,-21.8,-6.1,-4.4,76,880,0,,,,
R,,9060653.0,-0.041,2.014,0.317,-24.8,-3.1,-3.6,63,833,0,,,,
R,,9060712.0,0.126,0.067,0.141,-8.5,10.4,8.4,426,711,0,,,,
R,,9060773.0,-0.109,-0.024,-0.379,10.0,12.4,14.9,430,694,0,,,,
R,,9060833.0,-0.207,0.417,-0.477,25.9,13.4,20.0,436,663,0,,,,
R,,9060893.0,-0.64,1.222,-0.556,37.4,16.4,17.6,433,659,0,,,,
R,,9060953.0,-1.281,2.312,-0.501,40.9,23.8,10.3,394,692,0,,,,
R,,9061014.0,-1.109,2.16,0.61,30.9,-2.8,7.2,311,719,0,,,,
R,,9061073.0,0.082,1.702,1.606,5.1,-5.5,-5.1,312,744,0,,,,
R,,9061133.0,2.034,0.959,-0.127,-8.9,19.5,-5.6,527,721,0,,,,
R,,9061193.0,0.078,1.224,-0.507,-5.4,9.1,-11.0,642,776,0,,,,
R,,9061252.0,0.406,1.15,-0.448,-8.9,11.2,-9.8,675,806,0,,,,
R,,9061313.0,-0.006,1.008,-0.149,-11.6,4.5,-5.1,707,846,0,,,,
R,,9061373.0,-0.009,1.037,-0.095,-6.7,3.5,-3.1,710,870,0,,,,
R,,9061433.0,-0.062,1.065,-0.157,-6.9,-0.2,-1.8,609,884,0,,,,
R,,9061493.0,-0.199,0.948,-0.082,-7.0,0.0,-2.8,433,894,0,,,,
R,,9061553.0,-0.08,0.881,0.083,-7.0,-1.5,-2.1,241,899,0,,,,
R,,9061613.0,-0.147,0.952,0.14,-6.5,-0.8,-1.9,192,903,0,,,,
R,,9061703.0,-0.012,1.266,0.043,-9.8,-0.5,-2.5,173,900,0,,,,
R,,9061764.0,-0.009,1.575,-0.198,-16.3,-2.5,-4.0,178,894,0,,,,
R,,9061823.0,0.338,1.984,-0.389,-23.3,-6.9,-7.8,85,881,0,,,,
R,,9061883.0,-0.326,0.739,0.173,-25.4,-4.6,-5.8,98,820,0,,,,
R,,9061943.0,-0.084,-0.09,0.451,-8.2,2.3,4.0,428,668,0,,,,
R,,9062002.0,0.025,0.154,-0.34,11.6,4.6,12.8,403,635,0,,,,
R,,9062063.0,-0.259,0.423,-0.366,25.3,8.6,15.2,383,620,0,,,,
R,,9062123.0,-0.505,1.129,-0.347,35.0,4.6,13.7,363,638,0,,,,
R,,9062183.0,-0.769,1.841,-0.268,39.8,-1.8,8.9,344,656,0,,,,
R,,9062243.0,0.279,2.016,0.83,31.9,-2.6,6.6,287,682,0,,,,
R,,9062303.0,-0.505,1.751,1.294,17.0,11.4,-0.4,293,705,0,,,,
R,,9062363.0,-0.366,0.857,0.036,-7.9,-2.9,-6.4,571,729,0,,,,
R,,9062423.0,0.368,1.37,-0.065,-12.7,0.0,-9.7,657,788,0,,,,
R,,9062485.0,0.047,0.912,-0.254,-12.8,6.2,-5.1,687,821,0,,,,
R,,9062542.0,0.024,1.055,-0.101,-6.6,1.7,-2.0,712,863,0,,,,
R,,9062603.0,-0.054,1.009,-0.253,-5.9,-1.0,-0.2,682,880,0,,,,
R,,9062663.0,-0.002,1.018,-0.148,-6.9,0.2,-1.0,591,888,0,,,,
R,,9062723.0,0.011,0.956,-0.045,-7.3,-1.9,-0.8,463,894,0,,,,
R,,9062783.0,-0.097,0.871,0.056,-6.9,-1.0,-0.7,339,895,0,,,,
R,,9062843.0,-0.096,0.994,0.051,-7.1,1.6,-0.6,328,896,0,,,,
R,,9062903.0,0.089,1.19,0.044,-9.2,2.4,-1.1,285,902,0,,,,
R,,9062963.0,0.016,1.316,-0.068,-13.9,0.9,-1.3,155,900,0,,,,
R,,9063023.0,0.19,1.791,-0.362,-21.4,-3.3,-1.9,66,889,0,,,,
R,,9063083.0,-0.145,1.858,-0.136,-28.9,-2.0,-4.1,58,863,0,,,,
R,,9063144.0,0.052,-0.158,-0.551,-22.1,11.8,1.3,317,644,0,,,,
R,,9063203.0,-0.282,0.143,-0.46,5.4,19.8,18.1,412,679,0,,,,
R,,9063263.0,-0.284,0.198,-0.255,14.2,15.0,22.4,437,662,0,,,,
R,,9063323.0,-0.739,0.753,-0.482,26.0,16.5,22.1,456,662,0,,,,
R,,9063383.0,-1.04,1.468,-0.341,36.6,7.4,13.2,471,677,0,,,,
R,,9063443.0,-0.472,1.877,0.0,38.3,10.9,4.7,449,689,0,,,,
R,,9063502.0,-0.289,1.89,0.349,32.3,17.4,2.6,398,685,0,,,,
R,,9063563.0,-0.787,1.845,1.501,2.9,-4.0,-2.7,317,699,0,,,,
R,,9063623.0,0.534,0.957,-0.406,-5.7,4.9,-7.8,580,729,0,,,,
R,,9063683.0,0.067,1.154,-0.313,-9.6,-2.9,-14.2,654,787,0,,,,
R,,9063743.0,-0.206,0.894,-0.377,-13.2,12.4,-7.5,684,822,0,,,,
R,,9063803.0,0.191,1.037,0.035,-9.2,4.1,-4.8,721,863,0,,,,
R,,9063865.0,0.031,1.104,-0.091,-6.6,0.9,-1.7,719,878,0,,,,
R,,9063923.0,-0.045,1.068,-0.118,-6.8,-0.2,-2.1,657,883,0,,,,
R,,9063983.0,-0.07,0.982,0.001,-6.6,-1.0,-2.0,595,888,0,,,,
R,,9064042.0,-0.115,0.945,0.057,-6.8,-0.9,-1.5,525,888,0,,,,
R,,9064103.0,-0.007,1.01,0.133,-7.2,-1.2,-1.4,435,887,0,,,,
R,,9064163.0,-0.006,1.149,0.105,-9.8,-0.6,-1.6,251,889,0,,,,
R,,9064223.0,0.122,1.298,0.081,-13.8,-1.1,-2.6,109,886,0,,,,
R,,9064283.0,0.023,1.693,-0.458,-19.2,-6.0,-4.1,78,881,0,,,,
R,,9064343.0,-0.373,1.603,0.306,-24.5,-7.8,-7.2,78,868,0,,,,
R,,9064403.0,0.317,0.505,-0.638,-16.6,-1.8,0.8,381,734,0,,,,
R,,9064463.0,-0.093,0.234,-0.183,4.2,10.5,10.0,432,717,0,,,,
R,,9064523.0,-0.088,0.133,-0.196,17.2,10.9,12.3,437,700,0,,,,
R,,9064584.0,-0.139,0.602,-0.3,29.1,7.4,15.3,440,680,0,,,,
R,,9064643.0,-0.187,1.333,-0.309,38.6,7.3,14.7,445,684,0,,,,
R,,9064703.0,-0.728,2.165,0.109,39.9,4.9,9.7,382,700,0,,,,
R,,9064763.0,-0.309,2.032,0.746,29.1,-1.1,7.0,346,719,0,,,,
R,,9064823.0,-0.612,1.692,1.651,1.4,2.7,-5.3,358,733,0,,,,
R,,9064883.0,0.715,1.01,-0.73,-5.3,15.5,-10.9,607,750,0,,,,
R,,9064943.0,0.069,1.297,0.056,-11.4,-5.4,-11.7,669,804,0,,,,
R,,9065003.0,-0.188,0.877,-0.235,-13.8,9.5,-9.0,689,827,0,,,,
R,,9065063.0,0.086,1.034,-0.013,-9.9,6.5,-4.4,723,866,0,,,,
R,,9065123.0,0.047,1.022,-0.03,-6.5,1.9,-1.6,717,879,0,,,,
R,,9065183.0,0.016,1.09,-0.023,-5.5,0.5,-1.4,659,886,0,,,,
R,,9065245.0,-0.033,0.983,0.019,-5.9,-1.1,-1.6,592,886,0,,,,
R,,9065303.0,-0.088,0.957,0.066,-7.0,-1.4,-1.4,511,885,0,,,,
R,,9065363.0,-0.007,1.002,0.136,-7.0,-0.6,-1.0,399,887,0,,,,
R,,9065423.0,-0.018,1.193,0.05,-9.7,-0.1,-1.0,269,888,0,,,,
R,,9065483.0,-0.095,1.396,-0.113,-14.4,0.4,-2.0,118,892,0,,,,
R,,9065543.0,0.215,1.904,-0.62,-20.9,-8.1,-2.5,84,881,0,,,,
R,,9065603.0,-0.089,2.159,0.219,-26.0,-6.9,-3.3,62,863,0,,,,
R,,9065663.0,-0.29,0.086,1.159,-15.9,5.6,8.5,402,755,0,,,,
R,,9065722.0,-0.127,0.294,-0.37,5.7,20.0,15.0,427,741,0,,,,
R,,9065783.0,-0.233,0.356,-0.313,16.6,15.9,20.2,451,710,0,,,,
R,,9065843.0,-0.383,0.78,-0.339,25.9,10.6,21.9,451,680,0,,,,
R,,9065903.0,-0.553,1.437,-0.381,36.1,11.8,15.0,453,684,0,,,,
R,,9065964.0,-0.972,1.939,0.016,37.4,4.6,6.0,446,701,0,,,,
R,,9066053.0,-0.146,1.668,1.057,19.4,0.8,3.3,383,735,0,,,,
R,,9066113.0,0.261,1.995,0.913,-7.1,-5.8,-6.8,456,725,0,,,,
R,,9066173.0,0.692,1.209,-0.038,-7.9,11.3,-8.6,632,772,0,,,,
R,,9066233.0,-0.487,0.981,0.036,-9.5,0.2,-12.6,672,804,0,,,,
R,,9066293.0,-0.101,0.881,-0.265,-13.7,8.4,-7.0,688,827,0,,,,
R,,9066353.0,0.084,1.028,-0.143,-8.0,4.0,-4.1,716,860,0,,,,
R,,9066413.0,0.011,1.06,-0.127,-8.4,0.8,-1.2,726,874,0,,,,
R,,9066473.0,-0.09,1.009,-0.021,-7.5,-0.5,-1.5,712,880,0,,,,
R,,9066533.0,-0.105,1.012,0.011,-5.1,-1.5,-1.5,654,886,0,,,,
R,,9066593.0,-0.115,0.966,0.06,-6.7,-2.2,-0.8,602,890,0,,,,
R,,9066653.0,-0.038,1.075,0.052,-6.2,-2.6,-1.1,557,891,0,,,,
R,,9066714.0,-0.074,1.159,0.062,-9.1,-1.2,-1.7,437,892,0,,,,
R,,9066773.0,0.037,1.266,0.065,-12.0,-0.6,-2.3,242,895,0,,,,
R,,9066833.0,-0.026,1.443,-0.151,-16.1,-2.9,-3.7,103,886,0,,,,
R,,9066893.0,-0.172,1.775,-0.643,-21.6,-10.4,-6.7,86,879,0,,,,
R,,9066953.0,-0.138,1.014,0.161,-21.5,-7.2,-3.1,61,831,0,,,,
R,,9067012.0,-0.002,0.249,0.078,-1.7,5.9,5.7,435,728,0,,,,
R,,9067073.0,-0.047,-0.009,-0.165,11.3,11.4,9.9,455,720,0,,,,
R,,9067133.0,-0.136,0.403,-0.317,26.2,13.1,14.4,453,689,0,,,,
R,,9067193.0,-0.175,1.021,-0.164,34.4,8.5,14.1,455,691,0,,,,
R,,9067253.0,-0.443,1.907,-0.386,40.0,6.8,11.4,425,718,0,,,,
R,,9067313.0,-0.619,1.994,0.124,33.9,-11.0,9.9,374,736,0,,,,
R,,9067375.0,-0.02,1.751,1.593,12.7,-12.8,2.9,312,749,0,,,,
R,,9067433.0,0.545,0.283,-0.013,-8.6,3.1,-3.5,572,742,0,,,,
R,,9067493.0,0.239,1.769,-0.241,-8.9,0.0,-7.2,662,795,0,,,,
R,,9067553.0,0.072,0.935,-0.155,-8.7,4.7,-7.7,677,812,0,,,,
R,,9067613.0,-0.15,0.935,-0.281,-9.7,4.3,-3.9,697,839,0,,,,
R,,9067673.0,-0.085,0.999,-0.164,-7.2,0.7,-1.2,721,864,0,,,,
R,,9067733.0,-0.084,1.0,-0.203,-7.1,-0.4,-0.9,727,875,0,,,,
R,,9067793.0,-0.116,1.009,-0.061,-6.7,-1.8,-0.5,717,880,0,,,,
R,,9067853.0,-0.125,0.945,-0.032,-5.3,-2.5,-0.1,686,885,0,,,,
R,,9067913.0,-0.157,1.002,-0.037,-5.7,-2.1,0.0,656,889,0,,,,
R,,9067973.0,0.073,1.092,0.057,-8.3,-0.9,-0.9,611,889,0,,,,
R,,9068033.0,0.117,1.192,0.065,-11.7,-0.9,-1.4,507,895,0,,,,
R,,9068094.0,-0.16,1.353,-0.031,-15.6,-0.7,-2.2,239,892,0,,,,
R,,9068153.0,-0.153,1.996,-0.753,-20.8,-4.6,-4.9,82,884,0,,,,
R,,9068213.0,-0.173,1.474,0.379,-24.5,-12.4,-3.6,81,863,0,,,,
R,,9068273.0,0.293,-0.799,-0.401,-10.0,2.5,5.9,430,718,0,,,,
R,,9068333.0,-0.065,0.225,-0.363,8.2,14.7,14.0,454,710,0,,,,
R,,9068393.0,-0.069,0.378,-0.246,19.9,15.5,19.8,471,703,0,,,,
R,,9068453.0,-0.357,0.866,-0.335,28.8,13.2,21.7,470,695,0,,,,
R,,9068513.0,-0.674,1.603,-0.258,37.0,15.2,14.1,469,692,0,,,,
R,,9068572.0,-1.118,2.079,-0.163,36.4,14.0,6.4,456,704,0,,,,
R,,9068633.0,-0.59,1.708,0.898,19.1,-6.8,3.8,414,713,0,,,,
R,,9068693.0,0.014,1.93,0.78,-2.8,0.4,-7.9,458,725,0,,,,
R,,9068754.0,0.478,1.094,-0.088,-6.7,17.5,-10.8,618,761,0,,,,
R,,9068813.0,0.004,0.962,0.017,-7.5,-3.7,-7.0,663,801,0,,,,
R,,9068874.0,0.095,0.907,-0.24,-9.6,11.7,-8.6,690,831,0,,,,
R,,9068933.0,-0.039,1.044,-0.08,-8.4,8.5,-5.9,716,859,0,,,,
R,,9068993.0,0.086,1.097,-0.109,-7.6,4.4,-2.9,728,874,0,,,,
R,,9069053.0,-0.054,1.03,0.015,-7.8,1.1,-1.8,708,882,0,,,,
R,,9069113.0,-0.07,1.018,0.023,-5.5,-0.8,-1.2,639,886,0,,,,
R,,9069173.0,-0.047,0.989,0.051,-4.9,-0.6,-0.7,585,889,0,,,,
R,,9069233.0,0.0,1.089,0.054,-6.3,-1.6,-0.5,518,890,0,,,,
R,,9069293.0,0.131,1.172,0.076,-10.8,-0.4,-1.4,341,890,0,,,,
R,,9069353.0,0.008,1.332,-0.056,-15.5,-0.4,-2.0,129,892,0,,,,
R,,9069414.0,-0.022,2.001,-0.815,-21.5,-7.3,-3.1,87,884,0,,,,
R,,9069475.0,-0.15,1.146,0.239,-23.7,-4.1,-3.0,93,854,0,,,,
R,,9069533.0,0.145,-0.226,0.974,-12.1,10.2,8.1,424,732,0,,,,
R,,9069592.0,-0.194,0.153,-0.333,8.4,13.9,12.1,437,703,0,,,,
R,,9069653.0,-0.257,0.444,-0.32,22.2,13.3,16.4,435,674,0,,,,
R,,9069713.0,-0.37,0.979,-0.209,31.2,8.7,16.3,439,660,0,,,,
R,,9069773.0,-0.593,1.748,-0.177,38.0,12.1,8.3,444,679,0,,,,
R,,9069833.0,-0.866,1.954,0.283,33.3,6.5,2.7,429,709,0,,,,
R,,9069893.0,-0.24,1.656,1.228,16.5,5.5,1.6,396,730,0,,,,
R,,9069953.0,0.806,1.75,1.128,-11.6,3.0,-5.9,515,716,0,,,,
R,,9070013.0,0.493,1.288,-0.303,-7.8,9.8,-9.7,647,783,0,,,,
R,,9070073.0,0.004,1.134,0.107,-10.4,4.9,-7.6,682,814,0,,,,
R,,9070133.0,-0.129,1.009,-0.181,-10.6,4.8,-4.6,710,849,0,,,,
R,,9070195.0,-0.131,0.965,-0.206,-7.5,3.1,-3.4,728,871,0,,,,
R,,9070253.0,0.026,1.045,-0.091,-6.0,2.0,-1.5,724,879,0,,,,
R,,9070313.0,-0.054,1.013,-0.06,-5.4,-0.7,-0.9,671,886,0,,,,
R,,9070374.0,-0.028,1.005,0.011,-5.4,-1.1,-0.8,628,893,0,,,,
R,,9070433.0,-0.04,0.996,0.028,-6.5,-0.5,-1.0,548,895,0,,,,
R,,9070493.0,0.104,1.125,0.075,-8.6,0.1,-0.9,402,894,0,,,,
R,,9070553.0,-0.025,1.179,0.049,-11.7,0.4,-1.6,233,893,0,,,,
R,,9070613.0,-0.098,1.362,-0.103,-15.6,-1.5,-1.9,105,892,0,,,,
R,,9070673.0,-0.105,1.897,-0.696,-20.8,-6.2,-3.1,104,881,0,,,,
R,,9070733.0,-0.035,1.226,0.068,-24.0,-4.9,-3.7,74,853,0,,,,
R,,9070793.0,0.111,0.014,0.692,-13.3,4.5,6.5,428,748,0,,,,
R,,9070855.0,-0.044,0.111,-0.197,7.4,12.0,11.2,432,721,0,,,,
R,,9070914.0,-0.159,0.268,-0.313,21.3,15.4,14.0,456,710,0,,,,
R,,9070973.0,-0.421,0.784,-0.312,32.7,11.9,16.3,466,699,0,,,,
R,,9071033.0,-0.427,1.883,-0.375,40.6,5.6,10.8,423,716,0,,,,
R,,9071093.0,-0.486,2.0,0.303,38.4,1.1,5.3,398,740,0,,,,
R,,9071153.0,-0.437,1.802,1.584,16.3,-0.2,3.2,311,745,0,,,,
R,,9071213.0,0.659,1.47,0.783,-12.8,2.6,-5.2,520,726,0,,,,
R,,9071273.0,0.356,1.542,-0.272,-10.0,3.3,-8.8,655,788,0,,,,
R,,9071333.0,0.173,1.011,-0.249,-7.6,5.5,-5.8,685,822,0,,,,
R,,9071393.0,-0.087,0.975,-0.25,-8.7,1.5,-2.6,712,849,0,,,,
R,,9071454.0,-0.073,0.982,-0.109,-5.9,0.6,-1.3,721,864,0,,,,
R,,9071513.0,-0.01,1.044,-0.214,-7.1,0.7,-1.9,723,877,0,,,,
R,,9071575.0,-0.148,0.975,-0.091,-7.9,1.7,-2.5,695,883,0,,,,
R,,9071633.0,0.015,1.018,0.042,-7.8,0.6,-1.6,654,890,0,,,,
R,,9071693.0,-0.078,1.033,0.013,-7.5,0.3,-1.1,590,894,0,,,,
R,,9071753.0,0.057,1.165,0.067,-9.9,0.0,-1.3,457,894,0,,,,
R,,9071813.0,-0.06,1.237,0.023,-13.6,0.5,-2.4,225,893,0,,,,
R,,9071874.0,-0.043,1.497,-0.158,-18.1,-3.1,-3.6,111,886,0,,,,
R,,9071933.0,0.029,1.991,-0.699,-24.5,-9.9,-7.1,95,881,0,,,,
R,,9071994.0,-0.155,1.053,0.036,-21.1,-5.1,-0.8,66,821,0,,,,
R,,9072053.0,0.019,0.114,-0.025,1.1,8.5,6.7,423,732,0,,,,
R,,9072113.0,-0.035,-0.036,-0.17,12.4,12.3,10.5,443,723,0,,,,
R,,9072172.0,-0.083,0.465,-0.228,25.9,11.3,14.4,435,687,0,,,,
R,,9072233.0,-0.362,1.231,-0.198,35.0,5.3,13.4,423,686,0,,,,
R,,9072294.0,-0.465,1.819,0.025,38.2,-1.7,8.8,386,712,0,,,,
R,,9072353.0,-0.176,1.998,0.465,33.7,-7.1,7.9,365,730,0,,,,
R,,9072414.0,-0.359,1.73,1.56,12.0,-5.7,1.6,341,737,0,,,,
R,,9072473.0,0.512,0.979,-1.455,-0.8,1.3,-5.8,607,754,0,,,,
R,,9072533.0,-0.325,1.21,-0.155,-12.7,2.1,-14.3,674,808,0,,,,
R,,9072593.0,-0.154,1.001,-0.05,-11.2,8.4,-4.7,700,840,0,,,,
R,,9072683.0,-0.278,0.946,-0.253,-7.4,1.6,-1.4,727,871,0,,,,
R,,9072744.0,-0.042,1.01,-0.112,-8.1,-1.0,-1.5,723,873,0,,,,
R,,9072803.0,-0.088,1.013,-0.02,-7.7,-1.1,-1.5,705,881,0,,,,
R,,9072863.0,-0.101,1.008,0.023,-6.8,-1.2,-1.7,661,884,0,,,,
R,,9072923.0,-0.1,1.051,0.017,-6.5,-2.2,-1.6,631,887,0,,,,
R,,9072985.0,-0.08,1.135,0.027,-9.0,-2.7,-2.2,482,890,0,,,,
R,,9073043.0,-0.058,1.202,0.104,-12.3,-3.0,-3.0,236,895,0,,,,
R,,9073103.0,-0.119,1.469,-0.123,-16.5,-4.4,-4.4,116,886,0,,,,
R,,9073164.0,-0.342,1.869,-0.857,-20.7,-13.3,-8.1,104,877,0,,,,
R,,9073223.0,0.035,1.278,0.258,-22.0,-15.7,-4.9,80,839,0,,,,
R,,9073284.0,0.143,0.091,0.204,-3.9,0.4,0.9,453,724,0,,,,
R,,9073343.0,0.194,0.09,-0.092,12.9,7.6,4.6,468,719,0,,,,
R,,9073403.0,0.122,0.428,-0.191,27.7,10.3,8.8,461,698,0,,,,
R,,9073462.0,-0.024,1.066,-0.127,36.8,6.0,11.8,458,698,0,,,,
R,,9073523.0,-0.159,1.847,-0.106,39.2,2.2,13.0,410,720,0,,,,
R,,9073583.0,-0.295,2.045,0.257,34.2,-3.9,12.6,387,732,0,,,,
R,,9073643.0,-0.537,1.781,1.659,8.4,-18.3,4.9,375,744,0,,,,
R,,9073705.0,0.384,0.886,-0.735,-3.3,-2.0,-4.9,598,745,0,,,,
R,,9073763.0,-0.102,1.621,-0.28,-10.8,3.9,-12.7,668,802,0,,,,
R,,9073823.0,-0.012,0.958,-0.225,-10.7,5.7,-6.8,683,820,0,,,,
R,,9073914.0,-0.116,0.985,-0.127,-7.9,1.9,-2.2,721,867,0,,,,
R,,9073973.0,-0.056,1.026,-0.13,-6.3,-1.1,-0.7,725,879,0,,,,
R,,9074034.0,-0.143,0.997,-0.129,-6.1,-3.0,-0.2,709,883,0,,,,
R,,9074093.0,-0.123,0.971,-0.045,-6.5,-3.3,-0.4,659,887,0,,,,
R,,9074153.0,-0.101,0.98,0.02,-6.8,-2.2,-0.4,608,893,0,,,,
R,,9074213.0,-0.011,1.07,0.081,-7.5,-1.8,-0.4,543,892,0,,,,
R,,9074273.0,-0.047,1.173,0.069,-9.8,-0.8,-1.1,392,896,0,,,,
R,,9074333.0,-0.115,1.327,-0.008,-14.1,-1.4,-1.9,133,894,0,,,,
R,,9074393.0,0.11,1.613,-0.275,-19.4,-4.7,-3.8,113,883,0,,,,
R,,9074455.0,-0.009,1.656,0.152,-23.9,-8.3,-7.3,86,869,0,,,,
R,,9074513.0,-0.072,1.16,-0.356,-17.0,-0.6,-8.1,336,667,0,,,,
R,,9074574.0,-0.21,0.218,-0.269,3.6,11.5,8.3,409,713,0,,,,
R,,9074633.0,-0.145,0.091,-0.193,15.2,6.7,11.0,450,704,0,,,,
R,,9074693.0,-0.075,0.622,-0.275,25.8,9.0,14.7,451,696,0,,,,
R,,9074753.0,-0.452,1.286,-0.274,35.5,11.2,13.5,414,681,0,,,,
R,,9074813.0,-0.677,1.904,0.008,36.8,5.8,10.9,432,710,0,,,,
R,,9074874.0,-0.54,1.785,0.466,31.7,4.0,3.3,438,725,0,,,,
R,,9074933.0,-0.397,1.584,0.991,13.8,5.8,-1.0,451,737,0,,,,
R,,9074994.0,1.302,0.984,1.371,-13.7,14.4,-6.3,562,728,0,,,,
R,,9075053.0,-0.252,1.957,-0.326,-6.7,9.1,-19.0,661,795,0,,,,
R,,9075115.0,0.094,0.834,-0.313,-9.3,10.5,-5.8,692,829,0,,,,
R,,9075173.0,0.068,0.977,-0.014,-10.2,3.8,-2.8,709,849,0,,,,
R,,9075233.0,0.002,1.03,-0.125,-6.4,4.4,-2.8,724,873,0,,,,
R,,9075292.0,-0.034,1.009,-0.103,-7.1,3.9,-2.4,705,879,0,,,,
R,,9075383.0,0.008,1.025,0.008,-5.1,1.0,-1.1,652,887,0,,,,
R,,9075443.0,-0.082,0.989,-0.009,-5.8,0.4,-0.8,606,884,0,,,,
R,,9075503.0,0.093,1.083,0.086,-7.5,0.7,-0.9,515,886,0,,,,
R,,9075563.0,0.0,1.127,0.054,-10.0,0.3,-0.9,425,884,0,,,,
R,,9075624.0,-0.081,1.255,-0.007,-13.4,-0.5,-0.7,185,885,0,,,,
R,,9075683.0,0.164,1.506,-0.219,-17.9,-4.7,-0.6,76,880,0,,,,
R,,9075744.0,-0.156,1.549,0.292,-24.6,-5.9,-1.6,79,876,0,,,,
R,,9075803.0,-0.085,0.707,-0.142,-19.5,11.6,-1.3,328,746,0,,,,
R,,9075865.0,-0.269,0.31,-0.343,4.1,18.5,13.9,444,725,0,,,,
R,,9075923.0,-0.215,0.195,-0.305,14.6,13.9,16.6,456,689,0,,,,
R,,9075983.0,-0.415,0.737,-0.396,25.8,11.8,19.4,465,688,0,,,,
R,,9076043.0,-0.694,1.422,-0.289,35.8,10.5,14.4,459,688,0,,,,
R,,9076103.0,-0.707,1.93,-0.201,38.3,12.4,7.6,462,705,0,,,,
R,,9076164.0,-0.563,1.915,0.222,33.3,11.1,2.7,449,718,0,,,,
R,,9076223.0,-0.728,1.781,1.62,12.1,10.6,-2.8,421,732,0,,,,
R,,9076284.0,0.366,1.855,0.408,-9.5,7.8,-11.4,533,729,0,,,,
R,,9076343.0,-0.203,1.743,-0.242,-7.2,16.8,-25.5,662,795,0,,,,
R,,9076404.0,0.173,0.949,-0.6,-10.6,8.3,-5.8,692,827,0,,,,
R,,9076463.0,0.197,1.038,0.0,-10.7,4.1,-4.7,716,855,0,,,,
R,,9076525.0,0.005,0.998,-0.038,-4.8,2.7,-3.2,707,880,0,,,,
R,,9076614.0,-0.105,0.991,-0.072,-3.6,0.9,-2.3,571,889,0,,,,
R,,9076673.0,0.026,0.978,0.049,-4.6,-0.1,-2.1,462,895,0,,,,
R,,9076733.0,-0.1,0.989,0.03,-5.6,0.2,-2.1,415,894,0,,,,
R,,9076793.0,0.01,1.07,0.089,-7.1,0.9,-2.3,271,902,0,,,,
R,,9076853.0,-0.041,1.151,0.069,-9.3,0.6,-2.2,200,901,0,,,,
R,,9076914.0,-0.05,1.243,0.044,-12.6,-0.7,-2.3,192,896,0,,,,
R,,9076973.0,0.066,1.525,-0.259,-17.1,-4.1,-2.4,166,892,0,,,,
R,,9077034.0,0.067,1.76,0.028,-25.2,-3.6,-5.2,132,876,0,,,,
R,,9077093.0,-0.335,1.142,-0.061,-17.7,1.1,-7.5,138,770,0,,,,
R,,9077154.0,-0.075,0.017,-0.352,7.0,11.9,10.4,419,703,0,,,,
R,,9077213.0,-0.073,0.168,-0.317,16.0,13.8,15.9,401,676,0,,,,
R,,9077275.0,-0.351,0.793,-0.345,28.1,11.7,19.6,410,670,0,,,,
R,,9077333.0,-0.781,1.551,-0.185,36.3,2.3,13.8,415,670,0,,,,
R,,9077393.0,-0.524,1.8,0.04,36.7,3.5,4.0,426,680,0,,,,
R,,9077454.0,-0.099,1.802,0.748,28.0,-2.2,5.1,394,706,0,,,,
R,,9077513.0,-0.472,1.577,1.394,9.4,-2.6,-2.6,393,728,0,,,,
R,,9077574.0,0.423,0.797,-1.482,-1.6,4.3,-8.4,583,742,0,,,,
R,,9077633.0,-0.095,2.049,-0.399,-10.1,0.0,-14.6,669,801,0,,,,
R,,9077694.0,-0.447,1.068,-0.311,-12.1,8.8,-6.4,685,821,0,,,,
R,,9077753.0,0.136,1.074,-0.004,-10.7,2.0,-3.2,717,859,0,,,,
R,,9077813.0,-0.133,0.987,-0.146,-6.5,0.3,-0.9,728,875,0,,,,
R,,9077874.0,-0.112,1.029,-0.12,-5.0,-1.0,-0.7,715,882,0,,,,
R,,9077932.0,-0.063,1.03,-0.08,-5.6,-3.2,-0.6,644,887,0,,,,
R,,9078025.0,-0.082,0.975,0.059,-7.2,-0.4,-1.1,531,895,0,,,,
R,,9078114.0,-0.016,1.18,0.075,-9.7,1.9,-1.9,385,895,0,,,,
R,,9078173.0,0.003,1.281,0.031,-13.7,0.8,-2.8,147,899,0,,,,
R,,9078234.0,-0.054,1.67,-0.331,-19.2,-4.1,-4.6,111,886,0,,,,
R,,9078293.0,-0.048,1.786,-0.2,-25.8,-10.9,-8.5,99,871,0,,,,
R,,9078353.0,-0.248,2.562,-0.557,-18.4,-3.6,-13.6,265,732,0,,,,
R,,9078413.0,0.025,0.226,-0.291,6.0,9.7,5.5,451,714,0,,,,
R,,9078473.0,0.047,0.04,-0.208,19.3,10.9,8.3,454,704,0,,,,
R,,9078534.0,-0.031,0.63,-0.256,32.1,8.3,12.8,456,698,0,,,,
R,,9078593.0,-0.293,1.522,-0.235,40.7,-2.6,13.5,444,702,0,,,,
R,,9078654.0,-0.105,2.257,0.167,38.2,-2.9,6.4,396,705,0,,,,
R,,9078715.0,-0.139,1.637,1.119,21.1,-3.4,8.1,370,745,0,,,,
R,,9078773.0,-0.457,2.063,0.816,0.0,-7.7,-2.1,459,750,0,,,,
R,,9078833.0,0.428,1.136,-0.185,-10.5,-4.6,-5.1,639,779,0,,,,
R,,9078923.0,0.116,0.913,-0.223,-6.8,4.0,-6.0,685,819,0,,,,
R,,9078984.0,-0.11,0.978,-0.282,-9.2,1.3,-2.9,698,837,0,,,,
R,,9079043.0,-0.088,0.987,-0.144,-7.8,2.2,-2.7,717,861,0,,,,
R,,9079103.0,-0.101,1.0,-0.187,-6.8,0.9,-1.7,727,870,0,,,,
R,,9079164.0,-0.12,1.002,-0.127,-7.4,-2.1,-1.2,726,877,0,,,,
R,,9079223.0,-0.128,0.972,-0.037,-6.8,-2.9,-1.0,705,883,0,,,,
R,,9079284.0,-0.14,1.021,-0.006,-6.3,-3.0,-1.0,635,889,0,,,,
R,,9079343.0,-0.087,1.136,0.003,-8.2,-1.9,-2.2,532,894,0,,,,
R,,9079404.0,-0.048,1.253,0.045,-11.8,-2.8,-2.9,261,898,0,,,,
R,,9079465.0,-0.103,1.401,-0.091,-16.0,-3.2,-5.1,151,894,0,,,,
R,,9079524.0,-0.073,1.938,-0.678,-20.7,-7.2,-8.2,117,885,0,,,,
R,,9079583.0,-0.187,1.699,0.087,-22.0,-13.0,-8.6,99,843,0,,,,
R,,9079643.0,-0.263,-0.223,1.053,-7.2,-10.4,-1.5,441,704,0,,,,
R,,9079703.0,0.185,0.072,-0.263,11.6,0.9,7.6,433,702,0,,,,
R,,9079763.0,0.118,0.268,-0.222,25.3,6.7,9.6,445,690,0,,,,
R,,9079824.0,0.008,0.906,-0.216,37.3,2.3,13.3,433,696,0,,,,
R,,9079883.0,-0.082,1.947,-0.089,40.6,-2.3,12.8,351,697,0,,,,
R,,9079973.0,-0.418,1.831,1.006,22.7,-3.3,8.8,384,736,0,,,,
R,,9080034.0,-0.294,1.534,1.304,-3.9,-6.9,-1.6,390,739,0,,,,
R,,9080093.0,0.391,1.425,-0.233,-8.4,3.6,-8.7,628,767,0,,,,
R,,9080154.0,-0.206,1.16,-0.043,-10.2,-2.9,-9.1,673,807,0,,,,
R,,9080215.0,-0.193,1.017,-0.259,-9.5,6.2,-6.0,687,824,0,,,,
R,,9080274.0,-0.102,0.94,-0.183,-9.9,4.4,-3.9,709,850,0,,,,
R,,9080333.0,0.036,1.039,-0.08,-8.2,1.6,-1.8,721,864,0,,,,
R,,9080393.0,-0.128,0.992,-0.078,-8.3,-0.1,-1.0,725,873,0,,,,
R,,9080454.0,-0.066,0.97,0.0,-6.5,-0.9,-1.0,718,881,0,,,,
R,,9080513.0,-0.092,1.018,0.035,-5.7,-1.5,-0.8,677,885,0,,,,
R,,9080574.0,-0.016,1.096,0.061,-6.8,-2.2,-1.0,644,885,0,,,,
R,,9080633.0,-0.01,1.183,0.082,-10.4,-1.7,-1.4,516,885,0,,,,
R,,9080694.0,0.039,1.286,0.03,-14.5,-0.9,-2.5,251,888,0,,,,
R,,9080753.0,-0.055,1.61,-0.338,-18.8,-4.2,-4.0,99,882,0,,,,
R,,9080814.0,0.025,1.594,0.179,-24.5,-9.5,-6.3,82,871,0,,,,
R,,9080875.0,-0.089,0.079,-0.352,-18.0,-0.7,-6.1,377,688,0,,,,
R,,9080933.0,-0.147,0.254,-0.384,6.1,10.3,7.1,429,702,0,,,,
R,,9080994.0,-0.009,0.122,-0.258,19.0,10.4,10.8,460,695,0,,,,
R,,9081053.0,-0.091,0.585,-0.223,30.4,7.2,13.5,460,696,0,,,,
R,,9081114.0,-0.041,1.382,-0.2,37.6,8.9,13.7,446,705,0,,,,
R,,9081173.0,-0.487,2.085,0.338,38.0,6.6,11.7,416,728,0,,,,
R,,9081234.0,-0.352,1.852,0.903,25.3,-1.5,9.4,433,743,0,,,,
R,,9081293.0,-0.016,2.078,1.187,-2.2,1.5,-3.0,497,748,0,,,,
R,,9081354.0,0.366,1.31,-0.435,-7.6,10.2,-8.8,642,778,0,,,,
R,,9081414.0,0.189,1.048,-0.005,-9.4,-5.6,-7.2,671,804,0,,,,
R,,9081473.0,-0.256,0.983,-0.296,-8.5,6.7,-6.3,690,825,0,,,,
R,,9081534.0,-0.029,0.951,-0.224,-6.7,7.5,-5.2,714,852,0,,,,
R,,9081595.0,0.189,1.104,-0.096,-6.2,4.1,-2.4,727,869,0,,,,
R,,9081654.0,-0.047,1.01,-0.069,-6.5,1.6,-1.3,723,875,0,,,,
R,,9081713.0,0.042,1.015,-0.032,-6.1,-0.4,-0.4,690,881,0,,,,
R,,9081774.0,0.067,1.028,0.009,-5.3,0.0,-0.2,663,886,0,,,,
R,,9081833.0,0.004,1.052,0.004,-7.3,0.5,-0.6,630,888,0,,,,
R,,9081893.0,0.102,1.118,0.091,-9.6,0.3,-0.7,524,885,0,,,,
R,,9081954.0,-0.017,1.283,-0.021,-13.1,1.2,-0.6,392,882,0,,,,
R,,9082013.0,0.101,1.51,-0.276,-18.1,-1.8,-0.7,80,881,0,,,,
R,,9082074.0,-0.343,1.712,-0.103,-24.7,-6.2,-2.0,92,877,0,,,,
R,,9082133.0,0.062,0.502,-0.269,-17.4,7.5,-0.7,384,749,0,,,,
R,,9082194.0,-0.211,0.484,-0.549,1.6,25.8,12.3,453,726,0,,,,
R,,9082253.0,-0.32,0.271,-0.326,13.8,16.6,17.6,472,709,0,,,,
R,,9082315.0,-0.525,0.678,-0.357,25.4,13.7,18.0,461,690,0,,,,
R,,9082374.0,-0.6,1.351,-0.294,35.1,12.6,12.8,483,708,0,,,,
R,,9082433.0,-0.718,1.852,0.078,37.9,13.1,7.3,491,720,0,,,,
R,,9082494.0,-0.291,2.044,0.527,30.7,4.9,5.7,484,738,0,,,,
R,,9082553.0,-0.421,1.709,1.459,10.0,4.8,-3.3,469,746,0,,,,
R,,9082614.0,1.016,0.369,0.262,-10.4,9.0,-4.9,578,749,0,,,,
R,,9082673.0,-0.142,1.45,-0.466,-5.5,13.7,-17.3,655,791,0,,,,
R,,9082734.0,0.232,1.079,-0.013,-7.6,7.2,-8.4,687,821,0,,,,
R,,9082793.0,-0.165,0.932,-0.242,-9.1,9.8,-7.5,712,850,0,,,,
R,,9082854.0,0.119,1.045,-0.166,-6.8,2.9,-2.7,728,869,0,,,,
R,,9082914.0,-0.008,1.058,-0.075,-7.7,1.7,-2.0,726,880,0,,,,
R,,9082975.0,-0.066,0.993,0.023,-5.4,-0.1,-1.6,672,888,0,,,,
R,,9083034.0,-0.056,0.999,0.011,-4.5,0.2,-1.0,637,891,0,,,,
R,,9083093.0,-0.039,1.009,0.052,-5.7,-0.6,-0.9,576,893,0,,,,
R,,9083154.0,0.078,1.113,0.084,-8.3,0.2,-1.3,441,892,0,,,,
R,,9083213.0,0.026,1.146,0.089,-11.9,0.1,-1.4,252,894,0,,,,
R,,9083274.0,-0.017,1.426,-0.115,-16.3,-1.6,-1.4,136,890,0,,,,
R,,9083333.0,0.022,1.972,-0.767,-22.7,-4.7,-3.3,110,880,0,,,,
R,,9083394.0,-0.173,1.844,0.231,-24.7,0.8,-1.4,80,841,0,,,,
R,,9083454.0,-0.011,0.037,0.15,-4.7,19.3,10.1,464,736,0,,,,
R,,9083513.0,-0.185,0.143,-0.291,10.1,15.2,14.9,465,718,0,,,,
R,,9083574.0,-0.14,0.619,-0.331,23.3,14.0,20.2,459,689,0,,,,
R,,9083632.0,-0.532,1.269,-0.306,33.5,14.8,17.8,464,695,0,,,,
R,,9083695.0,-0.882,1.842,-0.254,38.7,9.6,11.4,461,708,0,,,,
R,,9083753.0,-0.568,1.962,0.361,35.0,-5.3,7.0,453,723,0,,,,
R,,9083814.0,-0.162,1.69,1.625,12.4,-1.6,0.7,438,742,0,,,,
R,,9083874.0,0.228,1.577,0.203,-9.1,1.6,-7.7,519,747,0,,,,
R,,9083934.0,0.51,1.032,-0.325,-8.0,7.3,-8.8,654,789,0,,,,
R,,9083994.0,-0.007,1.041,0.22,-10.1,2.2,-12.3,682,816,0,,,,
R,,9084053.0,-0.152,0.989,-0.073,-10.1,6.5,-4.2,713,851,0,,,,
R,,9084113.0,-0.06,1.008,-0.151,-7.3,2.3,-3.1,729,872,0,,,,
R,,9084173.0,0.031,1.065,-0.115,-7.2,-0.3,-1.9,715,880,0,,,,
R,,9084234.0,-0.127,1.0,-0.052,-6.6,-1.5,-2.2,644,888,0,,,,
R,,9084324.0,-0.06,0.973,0.056,-6.6,-0.7,-2.0,534,893,0,,,,
R,,9084385.0,0.081,1.046,0.131,-7.8,-0.3,-2.2,394,894,0,,,,
R,,9084444.0,-0.112,1.152,0.066,-10.1,-1.0,-2.5,198,895,0,,,,
R,,9084503.0,-0.019,1.298,0.025,-13.6,-2.0,-3.4,175,894,0,,,,
R,,9084564.0,-0.029,1.686,-0.477,-19.2,-6.1,-5.4,103,888,0,,,,
R,,9084624.0,-0.16,2.098,0.24,-25.6,-9.4,-8.7,124,875,0,,,,
R,,9084684.0,0.048,-0.732,-0.975,-10.9,-2.2,0.2,415,723,0,,,,
R,,9084744.0,0.017,0.243,-0.406,8.0,9.1,10.3,424,713,0,,,,
R,,9084803.0,0.077,0.18,-0.265,22.1,9.1,10.8,442,698,0,,,,
R,,9084864.0,-0.183,0.833,-0.241,34.0,5.1,13.3,446,695,0,,,,
R,,9084923.0,-0.124,1.673,-0.068,37.6,0.4,11.0,405,697,0,,,,
R,,9084984.0,-0.382,1.864,0.275,37.9,-0.8,8.7,377,717,0,,,,
R,,9085043.0,-0.331,1.762,1.042,21.8,-8.9,6.7,386,727,0,,,,
R,,9085105.0,-0.164,1.448,1.315,-10.5,-2.5,-4.2,435,747,0,,,,
R,,9085164.0,0.571,0.686,-0.04,-9.5,1.7,-5.6,650,785,0,,,,
R,,9085224.0,-0.052,1.13,0.077,-12.2,4.5,-12.8,676,814,0,,,,
R,,9085284.0,-0.231,0.958,-0.187,-10.1,5.1,-3.2,709,848,0,,,,
R,,9085343.0,-0.144,0.969,-0.17,-7.5,0.5,-1.9,724,868,0,,,,
R,,9085404.0,-0.028,1.037,-0.143,-8.0,-1.9,-1.3,719,880,0,,,,
R,,9085463.0,-0.124,0.998,-0.084,-7.4,-3.2,-1.6,665,886,0,,,,
R,,9085524.0,-0.158,0.96,-0.001,-6.8,-2.5,-1.6,574,894,0,,,,
R,,9085583.0,-0.135,1.007,0.021,-7.3,-1.2,-2.1,492,897,0,,,,
R,,9085644.0,-0.081,1.077,0.068,-8.7,-0.6,-2.3,389,895,0,,,,
R,,9085734.0,-0.057,1.249,0.05,-12.1,-1.8,-3.6,154,894,0,,,,
R,,9085793.0,-0.028,1.512,-0.268,-16.6,-5.8,-5.2,163,889,0,,,,
R,,9085855.0,-0.158,1.898,-0.35,-23.4,-16.1,-12.1,115,871,0,,,,
R,,9085914.0,-0.179,2.657,-0.335,-18.1,-14.8,-5.5,167,760,0,,,,
R,,9085974.0,0.177,0.103,-0.129,5.6,4.2,5.4,398,710,0,,,,
R,,9086034.0,0.188,0.122,-0.198,16.8,9.4,9.4,394,709,0,,,,
R,,9086093.0,-0.141,0.58,-0.237,30.7,12.4,13.0,407,688,0,,,,
R,,9086154.0,-0.232,1.496,-0.21,36.4,6.7,12.5,355,693,0,,,,
R,,9086213.0,-0.548,1.913,-0.019,39.0,4.7,9.3,364,707,0,,,,
R,,9086274.0,-0.541,1.878,0.585,28.1,-12.2,8.0,354,728,0,,,,
R,,9086333.0,0.044,1.532,1.629,3.4,-10.0,-1.0,348,742,0,,,,
R,,9086394.0,0.383,0.882,-1.592,-0.9,9.3,-7.9,593,748,0,,,,
R,,9086454.0,0.15,1.403,0.04,-15.2,2.0,-11.9,671,804,0,,,,
R,,9086515.0,-0.213,1.06,-0.187,-8.4,7.9,-6.7,694,835,0,,,,
R,,9086574.0,-0.034,1.001,-0.161,-9.4,0.8,-2.5,716,858,0,,,,
R,,9086633.0,-0.013,1.041,-0.201,-8.4,-0.5,-1.3,723,872,0,,,,
R,,9086694.0,-0.152,0.984,-0.134,-8.4,-2.4,-1.0,710,881,0,,,,
R,,9086752.0,-0.08,1.024,0.007,-6.8,-2.9,-1.1,649,888,0,,,,
R,,9086814.0,-0.128,0.978,0.033,-6.3,-1.6,-1.1,593,890,0,,,,
R,,9086874.0,-0.083,1.036,0.086,-7.7,-1.5,-1.1,502,888,0,,,,
R,,9086934.0,-0.145,1.127,0.057,-9.4,-0.7,-1.6,334,892,0,,,,
R,,9086994.0,-0.059,1.263,0.029,-12.1,-1.4,-2.4,161,894,0,,,,
R,,9087054.0,-0.07,1.465,-0.252,-16.9,-5.7,-4.2,108,884,0,,,,
R,,9087114.0,-0.104,1.83,-0.304,-23.9,-12.1,-8.7,90,873,0,,,,
R,,9087173.0,-0.1,1.884,-0.046,-20.1,-4.5,-4.9,157,776,0,,,,
R,,9087235.0,-0.072,0.288,-0.217,1.9,8.8,6.2,391,719,0,,,,
R,,9087293.0,-0.03,0.0,-0.156,13.7,7.6,8.7,405,706,0,,,,
R,,9087354.0,-0.02,0.503,-0.239,27.3,7.2,11.9,413,688,0,,,,
R,,9087414.0,-0.13,1.221,-0.083,36.0,4.9,12.2,413,697,0,,,,
R,,9087474.0,-0.339,1.861,0.296,36.3,3.6,11.9,359,720,0,,,,
R,,9087534.0,-0.427,1.918,0.37,32.3,1.8,8.4,369,736,0,,,,
R,,9087593.0,-0.4,1.688,1.273,15.4,-0.2,2.7,369,734,0,,,,
R,,9087654.0,0.074,0.42,0.464,-11.1,4.5,-4.7,572,734,0,,,,
R,,9087713.0,0.198,1.495,0.063,-13.2,6.7,-7.5,661,794,0,,,,
R,,9087774.0,-0.042,1.066,-0.196,-9.1,9.5,-9.1,687,819,0,,,,
R,,9087833.0,-0.021,0.991,-0.17,-10.3,2.5,-3.5,711,849,0,,,,
R,,9087894.0,-0.081,0.998,-0.238,-6.6,0.8,-1.6,728,869,0,,,,
R,,9087956.0,-0.037,1.022,-0.13,-7.1,0.4,-1.5,722,878,0,,,,
R,,9088014.0,-0.073,0.879,-0.026,-6.6,-1.5,-1.2,668,884,0,,,,
R,,9088074.0,-0.029,0.965,0.022,-6.8,-0.7,-1.1,627,892,0,,,,
R,,9088133.0,0.016,1.017,0.074,-7.8,-0.3,-1.1,580,892,0,,,,
R,,9088194.0,0.032,1.127,0.073,-9.6,1.2,-1.3,488,892,0,,,,
R,,9088253.0,0.04,1.23,0.084,-12.9,0.5,-1.3,277,891,0,,,,
R,,9088314.0,-0.036,1.499,-0.151,-17.7,-2.1,-1.7,147,885,0,,,,
R,,9088374.0,0.032,2.041,-0.818,-25.0,-5.3,-5.1,82,875,0,,,,
R,,9088434.0,-0.138,1.432,-0.069,-22.9,-3.6,-0.7,98,821,0,,,,
R,,9088494.0,0.069,0.123,-0.239,1.5,19.7,10.7,427,735,0,,,,
R,,9088554.0,-0.22,0.068,-0.371,12.8,13.8,14.8,432,723,0,,,,
R,,9088616.0,-0.206,0.678,-0.266,25.6,10.6,21.0,445,704,0,,,,
R,,9088673.0,-0.644,1.369,-0.339,34.9,12.7,16.7,438,701,0,,,,
R,,9088734.0,-0.938,2.08,-0.161,38.3,10.3,9.0,411,701,0,,,,
R,,9088793.0,-0.582,1.772,0.268,32.9,4.0,2.2,392,716,0,,,,
R,,9088854.0,-0.243,1.592,1.099,15.0,4.0,-0.7,413,739,0,,,,
R,,9088914.0,0.01,1.62,0.914,-6.1,7.6,-7.6,452,742,0,,,,
R,,9088974.0,0.628,1.226,-0.176,-8.9,16.9,-9.4,648,788,0,,,,
R,,9089034.0,-0.174,1.067,0.044,-9.6,-1.7,-12.4,680,814,0,,,,
R,,9089094.0,-0.208,0.95,-0.244,-11.3,10.1,-7.4,700,836,0,,,,
R,,9089154.0,0.052,1.134,-0.018,-8.9,6.7,-4.2,724,868,0,,,,
R,,9089213.0,-0.082,1.01,-0.091,-7.8,1.4,-2.2,718,880,0,,,,
R,,9089274.0,-0.061,1.036,0.016,-5.4,0.0,-1.6,665,885,0,,,,
R,,9089335.0,-0.044,0.996,0.0,-4.9,-0.5,-1.2,633,887,0,,,,
R,,9089394.0,-0.093,1.001,-0.034,-7.2,-1.6,-1.1,603,884,0,,,,
R,,9089454.0,0.14,1.068,0.168,-8.9,0.0,-1.2,520,887,0,,,,
R,,9089514.0,-0.025,1.146,0.121,-10.8,0.3,-1.4,404,884,0,,,,
R,,9089574.0,-0.023,1.34,-0.018,-13.7,0.0,-1.6,140,881,0,,,,
R,,9089634.0,0.104,1.757,-0.554,-19.7,-6.1,-2.5,78,879,0,,,,
R,,9089694.0,-0.084,1.527,0.03,-25.1,-8.7,-1.8,101,865,0,,,,
R,,9089753.0,-0.007,0.079,1.272,-16.8,13.6,8.6,430,747,0,,,,
R,,9089814.0,-0.138,0.263,-0.388,6.4,18.3,16.8,438,717,0,,,,
R,,9089874.0,-0.196,0.371,-0.248,19.5,14.7,21.2,444,700,0,,,,
R,,9089934.0,-0.425,0.994,-0.313,29.6,12.6,20.7,440,690,0,,,,
R,,9089994.0,-0.526,1.597,-0.45,38.3,18.0,14.8,452,706,0,,,,
R,,9090055.0,-0.846,2.011,-0.2,38.0,2.5,10.7,447,718,0,,,,
R,,9090114.0,-0.062,1.957,0.862,26.0,-10.7,5.7,423,752,0,,,,
R,,9090174.0,-0.194,1.617,1.349,-2.8,-1.9,-5.9,458,763,0,,,,
R,,9090234.0,0.699,1.163,-0.575,-5.7,22.5,-12.3,630,774,0,,,,
R,,9090293.0,0.387,1.228,-0.264,-10.1,-6.2,-9.9,676,811,0,,,,
R,,9090353.0,-0.131,1.007,-0.427,-10.5,14.7,-9.6,700,837,0,,,,
R,,9090414.0,0.173,1.016,0.005,-7.8,2.2,-5.3,723,862,0,,,,
R,,9090474.0,0.038,1.047,-0.146,-6.3,1.2,-3.0,719,876,0,,,,
R,,9090534.0,-0.045,1.046,-0.085,-7.0,-1.7,-2.8,654,884,0,,,,
R,,9090594.0,-0.13,0.963,-0.031,-6.3,-0.8,-2.7,531,893,0,,,,
R,,9090654.0,-0.153,0.951,0.048,-6.4,1.1,-2.5,447,897,0,,,,
R,,9090715.0,0.019,1.037,0.074,-7.6,0.8,-2.6,430,895,0,,,,
R,,9090774.0,-0.009,1.158,0.075,-9.6,0.7,-2.6,233,898,0,,,,
R,,9090833.0,0.003,1.292,0.059,-13.0,-0.8,-3.2,166,894,0,,,,
R,,9090894.0,0.008,1.527,-0.265,-17.5,-4.6,-4.2,139,885,0,,,,
R,,9090954.0,-0.162,1.089,-0.178,-24.9,-8.2,-8.1,116,875,0,,,,
R,,9091014.0,-0.291,0.663,0.206,-19.3,-3.2,-4.9,226,762,0,,,,
R,,9091074.0,0.117,0.04,-0.296,5.6,11.2,10.6,417,713,0,,,,
R,,9091134.0,0.037,0.069,-0.361,20.4,11.4,11.6,423,713,0,,,,
R,,9091194.0,-0.054,0.661,-0.294,32.7,8.3,13.1,426,706,0,,,,
R,,9091253.0,0.088,1.607,-0.216,39.6,6.1,13.5,385,713,0,,,,
R,,9091314.0,-0.294,2.194,0.283,39.0,-3.1,13.2,369,737,0,,,,
R,,9091374.0,-0.165,1.849,1.005,22.8,-8.8,8.6,361,756,0,,,,
R,,9091435.0,-0.379,1.766,1.068,-8.6,-5.0,-2.5,474,739,0,,,,
R,,9091494.0,0.403,1.197,-0.154,-10.7,-1.1,-6.7,649,784,0,,,,
R,,9091554.0,-0.078,1.111,0.06,-10.7,-1.7,-10.3,675,808,0,,,,
R,,9091614.0,-0.05,0.899,-0.221,-10.6,4.7,-5.8,706,843,0,,,,
R,,9091674.0,-0.185,1.009,-0.17,-7.6,0.3,-3.0,727,874,0,,,,
R,,9091734.0,-0.017,1.05,-0.193,-6.0,-0.7,-1.3,708,884,0,,,,
R,,9091793.0,-0.108,1.022,-0.115,-7.5,-1.9,-2.3,631,889,0,,,,
R,,9091854.0,-0.09,0.953,0.043,-7.4,-2.1,-1.9,555,894,0,,,,
R,,9091914.0,-0.138,0.944,0.084,-6.6,-0.3,-1.7,505,898,0,,,,
R,,9091974.0,-0.033,1.059,0.089,-6.3,-2.3,-1.4,392,897,0,,,,
R,,9092034.0,-0.072,1.198,0.022,-9.8,-1.8,-2.1,177,900,0,,,,
R,,9092095.0,-0.052,1.392,-0.077,-14.3,-2.1,-3.5,119,894,0,,,,
R,,9092154.0,0.074,1.704,-0.462,-19.7,-6.8,-5.5,98,885,0,,,,
R,,9092214.0,-0.055,1.603,0.02,-23.7,-9.4,-7.8,108,860,0,,,,
R,,9092274.0,-0.412,-1.079,-0.217,-7.9,-2.8,2.7,423,721,0,,,,
R,,9092333.0,-0.058,0.234,-0.343,6.1,5.8,10.2,403,704,0,,,,
R,,9092394.0,-0.017,0.308,-0.242,20.8,6.5,12.7,406,711,0,,,,
R,,9092454.0,-0.09,0.838,-0.267,33.3,5.8,14.1,419,701,0,,,,
R,,9092514.0,-0.243,1.719,-0.121,39.1,4.6,11.7,369,713,0,,,,
R,,9092574.0,-0.543,1.986,0.431,35.7,-2.4,8.4,356,730,0,,,,
R,,9092634.0,-0.255,1.606,0.87,20.5,-7.6,7.0,381,752,0,,,,
R,,9092694.0,-0.254,1.479,1.253,-1.5,-7.6,-2.1,405,759,0,,,,
R,,9092754.0,0.46,1.204,-0.396,-6.0,7.4,-8.9,625,768,0,,,,
R,,9092816.0,0.209,1.008,0.035,-12.9,-1.6,-9.4,677,810,0,,,,
R,,9092874.0,-0.084,0.886,-0.116,-8.7,6.6,-4.5,692,828,0,,,,
R,,9092934.0,-0.088,0.981,-0.068,-7.9,3.4,-3.4,713,855,0,,,,
R,,9092994.0,-0.045,1.008,-0.222,-7.9,0.0,-1.4,722,866,0,,,,
R,,9093054.0,-0.128,0.979,-0.123,-8.6,-0.9,-1.5,723,871,0,,,,
R,,9093114.0,-0.095,0.986,-0.042,-7.3,-1.6,-2.1,712,877,0,,,,
R,,9093174.0,-0.12,0.995,0.006,-6.3,-2.5,-1.4,676,884,0,,,,
R,,9093234.0,-0.072,1.08,0.038,-6.8,-2.5,-1.9,621,892,0,,,,
R,,9093294.0,-0.139,1.122,0.063,-9.3,-3.3,-2.1,496,890,0,,,,
R,,9093354.0,0.0,1.235,0.108,-12.2,-4.0,-2.6,232,894,0,,,,
R,,9093414.0,0.018,1.489,-0.123,-15.7,-5.2,-4.2,118,894,0,,,,
R,,9093504.0,-0.094,0.443,-0.03,-21.8,-3.3,-6.3,85,861,0,,,,
R,,9093566.0,-0.395,-1.459,-0.934,-11.8,1.1,3.0,437,718,0,,,,
R,,9093624.0,-0.104,0.307,-0.41,5.9,5.1,10.1,411,720,0,,,,
R,,9093684.0,0.067,0.3,-0.266,20.1,5.2,12.9,426,693,0,,,,
R,,9093744.0,-0.068,0.846,-0.226,32.1,5.1,16.2,392,687,0,,,,
R,,9093804.0,-0.22,1.75,-0.087,37.9,3.2,15.8,386,705,0,,,,
R,,9093864.0,-0.469,1.964,0.373,35.7,5.6,10.5,377,726,0,,,,
R,,9093924.0,-0.528,1.806,0.903,22.6,2.2,5.3,378,729,0,,,,
R,,9093984.0,-0.288,2.153,1.139,-5.1,4.5,-6.3,483,745,0,,,,
R,,9094044.0,0.567,1.103,-0.427,-8.2,9.5,-8.3,651,786,0,,,,
R,,9094104.0,-0.037,1.057,-0.125,-10.2,-1.4,-10.7,679,812,0,,,,
R,,9094164.0,-0.218,1.006,-0.22,-9.2,4.9,-6.0,703,840,0,,,,
R,,9094225.0,-0.016,1.02,-0.053,-5.5,3.0,-2.4,711,866,0,,,,
R,,9094284.0,0.109,1.088,-0.155,-6.6,2.0,-2.4,658,879,0,,,,
R,,9094344.0,-0.075,0.989,-0.097,-6.6,0.1,-1.8,519,889,0,,,,
R,,9094404.0,-0.095,0.94,-0.002,-7.0,2.5,-4.4,418,893,0,,,,
R,,9094464.0,0.036,0.958,0.111,-7.8,1.2,-1.5,406,894,0,,,,
R,,9094524.0,0.081,1.078,0.114,-8.5,2.2,-1.6,355,898,0,,,,
R,,9094584.0,0.023,1.202,0.06,-11.1,1.6,-1.4,169,892,0,,,,
R,,9094644.0,-0.001,1.423,-0.09,-15.3,-0.2,-1.4,119,884,0,,,,
R,,9094704.0,0.014,1.898,-0.729,-21.4,-7.8,-2.4,86,880,0,,,,
R,,9094764.0,-0.119,2.362,0.242,-27.0,-5.8,-3.6,85,856,0,,,,
R,,9094824.0,0.326,-0.053,0.48,-10.7,15.6,9.0,414,743,0,,,,
R,,9094884.0,-0.158,0.169,-0.292,7.0,18.7,13.1,375,717,0,,,,
R,,9094946.0,-0.141,0.445,-0.349,20.6,16.2,18.3,412,706,0,,,,
R,,9095004.0,-0.39,0.965,-0.213,29.9,11.4,19.4,428,667,0,,,,
R,,9095064.0,-0.562,1.635,-0.202,37.3,12.6,13.8,433,676,0,,,,
R,,9095125.0,-0.769,1.949,0.011,35.5,3.4,7.7,427,700,0,,,,
R,,9095184.0,0.043,1.743,0.986,21.8,-8.9,6.4,388,729,0,,,,
R,,9095244.0,-0.241,1.482,1.31,-6.8,-4.1,-5.9,424,745,0,,,,
R,,9095303.0,0.694,1.106,-0.1,-7.7,9.2,-8.1,628,767,0,,,,
R,,9095364.0,0.147,1.134,-0.01,-9.0,-5.8,-7.1,674,805,0,,,,
R,,9095424.0,-0.116,0.934,-0.401,-8.9,7.2,-6.0,693,823,0,,,,
R,,9095484.0,-0.005,0.957,-0.314,-8.4,4.4,-5.0,705,836,0,,,,
R,,9095544.0,0.147,1.101,-0.06,-7.5,2.0,-2.5,719,859,0,,,,
R,,9095604.0,-0.105,1.034,-0.151,-7.4,1.0,-1.8,714,877,0,,,,
R,,9095666.0,-0.083,0.952,0.024,-7.8,-0.1,-1.7,658,886,0,,,,
R,,9095724.0,-0.012,1.002,0.085,-7.3,1.0,-1.4,624,889,0,,,,
R,,9095784.0,0.07,1.086,0.098,-8.1,0.1,-1.5,557,889,0,,,,
R,,9095844.0,0.03,1.172,0.089,-10.5,0.0,-1.7,412,890,0,,,,
R,,9095904.0,-0.014,1.307,-0.031,-15.0,0.2,-2.8,175,884,0,,,,
R,,9095964.0,0.046,1.782,-0.49,-20.5,-5.1,-4.0,91,878,0,,,,
R,,9096024.0,-0.061,1.497,-0.085,-26.1,-11.3,-2.4,108,860,0,,,,
R,,9096084.0,0.042,-0.866,0.927,-8.3,2.2,8.8,455,727,0,,,,
R,,9096144.0,0.069,0.288,-0.413,8.6,14.5,13.9,400,693,0,,,,
R,,9096204.0,-0.061,0.471,-0.331,21.4,12.0,17.0,442,683,0,,,,
R,,9096264.0,-0.345,1.14,-0.273,31.1,8.6,18.2,433,672,0,,,,
R,,9096326.0,-0.701,1.68,-0.106,36.5,6.1,13.0,470,697,0,,,,
R,,9096384.0,-0.735,1.863,0.189,34.3,3.0,4.1,446,701,0,,,,
R,,9096444.0,-0.054,1.603,0.854,21.6,-2.2,3.7,435,732,0,,,,
R,,9096504.0,-0.423,1.492,1.344,-1.4,0.1,-5.8,443,750,0,,,,
R,,9096564.0,0.737,1.061,-0.955,-4.4,15.5,-9.7,621,766,0,,,,
R,,9096625.0,0.111,1.072,-0.071,-10.9,-8.3,-10.5,672,806,0,,,,
R,,9096684.0,-0.696,0.92,-0.666,-10.5,14.1,-9.5,697,833,0,,,,
R,,9096744.0,0.248,1.082,0.008,-9.2,2.8,-3.5,723,865,0,,,,
R,,9096804.0,-0.084,1.061,-0.209,-7.9,1.4,-2.5,712,879,0,,,,
R,,9096864.0,-0.031,1.029,-0.022,-7.9,1.8,-3.0,649,888,0,,,,
R,,9096924.0,0.003,0.993,0.018,-6.9,0.3,-1.7,613,889,0,,,,
R,,9096984.0,-0.076,0.958,0.053,-8.0,0.2,-1.7,551,888,0,,,,
R,,9097045.0,0.032,1.088,0.115,-8.9,0.2,-1.5,417,889,0,,,,
R,,9097104.0,0.058,1.197,0.071,-12.3,0.3,-2.0,156,890,0,,,,
R,,9097165.0,-0.023,1.541,-0.232,-17.4,-3.2,-3.0,100,884,0,,,,
R,,9097224.0,-0.097,2.181,-0.698,-25.2,-10.6,-5.4,108,876,0,,,,
R,,9097284.0,-0.134,2.132,-0.141,-20.8,-2.9,-3.7,162,805,0,,,,
R,,9097344.0,0.037,0.081,-0.385,5.1,12.3,11.0,449,730,0,,,,
R,,9097404.0,0.003,0.028,-0.302,17.4,13.9,13.9,439,704,0,,,,
R,,9097464.0,-0.147,0.694,-0.271,28.5,17.1,16.7,439,690,0,,,,
R,,9097524.0,-0.399,1.53,-0.245,35.5,11.0,16.7,431,712,0,,,,
R,,9097584.0,-0.779,1.997,0.109,36.9,11.0,10.9,415,729,0,,,,
R,,9097644.0,-1.03,1.87,0.424,28.9,-11.4,8.3,400,749,0,,,,
R,,9097705.0,-0.06,1.563,1.51,4.2,-15.4,-0.6,415,756,0,,,,
R,,9097766.0,1.123,0.588,-0.764,-7.7,4.9,-4.4,590,745,0,,,,
R,,9097824.0,0.183,2.191,-0.296,-11.9,3.3,-10.6,667,800,0,,,,
R,,9097883.0,0.191,0.927,-0.258,-8.7,10.2,-9.1,686,822,0,,,,
R,,9097944.0,0.098,1.068,-0.108,-11.7,1.3,-2.7,714,854,0,,,,
R,,9098004.0,-0.077,1.111,-0.228,-7.5,0.4,-1.8,726,873,0,,,,
R,,9098064.0,-0.122,1.006,-0.101,-7.5,-0.1,-2.4,693,884,0,,,,
R,,9098154.0,-0.035,0.992,0.019,-6.9,-0.7,-2.0,626,885,0,,,,
R,,9098214.0,-0.096,1.014,0.057,-7.5,-1.1,-2.1,558,886,0,,,,
R,,9098274.0,-0.057,1.079,0.067,-9.3,-1.2,-2.3,402,888,0,,,,
R,,9098364.0,-0.063,1.29,-0.002,-14.0,-2.6,-4.1,113,881,0,,,,
R,,9098424.0,-0.099,1.548,-0.441,-19.1,-9.0,-6.0,127,878,0,,,,
R,,9098486.0,0.0,1.703,-0.096,-26.0,-15.5,-11.0,95,869,0,,,,
R,,9098544.0,0.252,-1.302,-0.126,-12.8,-8.8,0.3,437,755,0,,,,
R,,9098604.0,0.181,0.151,-0.21,7.2,4.2,5.5,454,723,0,,,,
R,,9098665.0,0.243,0.323,-0.244,23.3,9.6,9.5,450,712,0,,,,
R,,9098724.0,-0.195,0.993,-0.151,34.8,4.9,11.6,447,709,0,,,,
R,,9098784.0,-0.091,1.595,0.105,37.8,1.1,11.7,451,721,0,,,,
R,,9098844.0,-0.356,1.876,0.356,36.4,6.6,9.3,455,750,0,,,,
R,,9098904.0,-0.704,1.734,0.658,22.9,-7.5,7.8,441,753,0,,,,
R,,9098964.0,-0.036,1.457,1.389,-2.2,-10.0,-1.0,453,764,0,,,,
R,,9099024.0,0.333,1.008,-1.118,-3.5,11.0,-9.0,622,769,0,,,,
R,,9099084.0,-0.093,1.255,-0.04,-14.4,-1.2,-12.0,678,811,0,,,,
R,,9099144.0,-0.316,0.929,-0.255,-12.1,9.5,-7.2,697,838,0,,,,
R,,9099206.0,0.021,1.012,-0.09,-9.2,-0.2,-2.4,722,866,0,,,,
R,,9099264.0,-0.044,1.034,-0.159,-5.7,-1.9,-1.6,710,877,0,,,,
R,,9099324.0,-0.171,0.992,-0.168,-6.3,-3.4,-2.2,625,886,0,,,,
R,,9099384.0,-0.153,0.988,-0.068,-7.0,-3.3,-2.4,481,892,0,,,,
R,,9099444.0,-0.194,0.953,0.017,-7.6,-1.2,-2.4,375,898,0,,,,
R,,9099504.0,-0.071,1.057,0.079,-7.9,-1.5,-2.4,289,899,0,,,,
R,,9099564.0,-0.162,1.15,0.065,-9.2,-2.0,-2.5,171,900,0,,,,
R,,9099625.0,-0.144,1.225,0.008,-11.5,-1.7,-3.6,131,896,0,,,,
R,,9099684.0,-0.014,1.563,-0.325,-16.8,-7.5,-5.4,123,892,0,,,,
R,,9099745.0,0.109,1.952,0.024,-25.1,-7.2,-11.5,114,870,0,,,,
R,,9099804.0,0.027,1.657,-0.333,-24.5,2.6,-11.4,314,721,0,,,,
R,,9099866.0,-0.027,0.118,-0.314,6.5,3.6,7.7,359,701,0,,,,
R,,9099924.0,0.22,0.147,-0.232,18.4,3.7,12.4,410,693,0,,,,
R,,9099984.0,-0.016,0.64,-0.29,31.8,4.5,15.0,419,689,0,,,,
R,,9100044.0,-0.135,1.768,-0.101,38.0,-0.1,14.2,348,691,0,,,,
R,,9100104.0,-0.396,1.962,0.183,37.2,3.1,11.3,386,713,0,,,,
R,,9100165.0,-0.532,1.771,0.499,25.8,-10.6,10.0,351,733,0,,,,
R,,9100224.0,0.026,1.436,1.315,1.5,-14.2,0.4,352,739,0,,,,
R,,9100285.0,0.087,0.7,0.03,-6.1,7.0,-6.7,585,741,0,,,,
R,,9100344.0,-0.153,2.486,-0.221,-13.2,3.8,-11.5,664,798,0,,,,
R,,9100404.0,0.135,0.871,-0.248,-8.9,8.5,-7.9,682,818,0,,,,
R,,9100464.0,0.063,1.022,-0.227,-9.3,-0.2,-1.6,713,852,0,,,,
R,,9100524.0,-0.016,1.059,-0.175,-7.2,-0.1,-0.4,718,865,0,,,,
R,,9100585.0,-0.095,1.021,-0.098,-7.2,-0.7,-1.4,708,874,0,,,,
R,,9100644.0,-0.031,1.057,-0.031,-6.1,-1.6,-0.9,659,880,0,,,,
R,,9100705.0,-0.098,0.996,0.0,-6.2,-1.5,-1.2,632,881,0,,,,
R,,9100764.0,-0.024,1.055,0.055,-7.2,-2.3,-1.1,569,881,0,,,,
R,,9100825.0,-0.041,1.095,0.101,-9.4,-1.1,-1.4,466,875,0,,,,
R,,9100884.0,0.04,1.167,0.118,-11.5,-1.1,-1.8,243,879,0,,,,
R,,9100944.0,-0.11,1.372,-0.139,-15.3,-3.4,-3.2,105,878,0,,,,
R,,9101003.0,0.079,1.932,-0.744,-21.5,-13.5,-5.4,83,878,0,,,,
R,,9101064.0,-0.049,1.449,0.452,-27.4,-6.5,-1.5,75,845,0,,,,
R,,9101125.0,-0.119,0.137,-0.092,-1.2,5.8,8.8,447,748,0,,,,
R,,9101184.0,-0.105,-0.138,-0.184,15.2,5.7,14.3,462,720,0,,,,
R,,9101274.0,-0.312,1.079,-0.309,33.7,8.8,16.6,452,705,0,,,,
R,,9101335.0,-0.504,1.759,0.025,36.8,11.5,13.2,423,703,0,,,,
R,,9101394.0,-0.955,1.979,0.031,33.2,13.8,5.0,440,723,0,,,,
R,,9101455.0,-0.444,1.59,0.393,22.4,-4.0,3.3,443,733,0,,,,
R,,9101514.0,-0.122,1.459,1.011,7.3,-1.0,-5.1,414,735,0,,,,
R,,9101575.0,0.114,1.718,0.363,-5.3,15.2,-11.1,513,744,0,,,,
R,,9101634.0,0.594,1.046,-0.564,-6.9,25.3,-12.3,653,789,0,,,,
R,,9101694.0,0.091,1.064,-0.184,-11.0,6.5,-11.3,689,824,0,,,,
R,,9101754.0,-0.147,1.0,-0.265,-11.6,5.1,-5.4,712,847,0,,,,
R,,9101814.0,0.101,1.054,-0.113,-7.2,2.0,-2.5,719,867,0,,,,
R,,9101875.0,-0.071,0.968,-0.042,-7.1,2.6,-2.6,686,880,0,,,,
R,,9101934.0,0.044,0.97,0.064,-5.8,1.7,-1.7,645,887,0,,,,
R,,9101996.0,-0.048,0.994,0.033,-5.9,1.6,-1.6,608,889,0,,,,
R,,9102054.0,-0.039,1.028,0.04,-7.4,0.7,-1.1,556,890,0,,,,
R,,9102144.0,-0.012,1.11,0.082,-9.5,0.7,-0.9,387,884,0,,,,
R,,9102205.0,0.007,1.217,0.052,-12.5,-0.1,-1.2,133,887,0,,,,
R,,9102264.0,0.012,1.51,-0.296,-17.5,-4.0,-2.0,100,880,0,,,,
R,,9102325.0,-0.103,1.821,0.136,-25.8,-9.2,-3.5,97,878,0,,,,
R,,9102384.0,0.045,0.301,-0.064,-21.1,10.7,-0.9,333,749,0,,,,
R,,9102444.0,-0.141,0.365,-0.461,3.7,17.5,16.3,403,724,0,,,,
R,,9102504.0,-0.183,0.33,-0.314,14.0,15.4,19.6,422,710,0,,,,
R,,9102564.0,-0.344,0.859,-0.394,25.9,16.7,21.2,457,704,0,,,,
R,,9102625.0,-0.778,1.398,-0.393,34.0,16.0,15.7,465,707,0,,,,
R,,9102684.0,-1.106,1.852,-0.21,37.5,11.3,7.7,468,718,0,,,,
R,,9102746.0,-0.609,1.972,0.279,34.7,1.9,1.2,440,737,0,,,,
R,,9102804.0,-0.367,1.728,1.65,16.1,4.1,-0.5,423,741,0,,,,
R,,9102865.0,0.475,1.585,0.682,-8.5,3.4,-8.4,527,739,0,,,,
R,,9102924.0,0.625,1.347,-0.057,-9.9,13.2,-8.4,660,796,0,,,,
R,,9102984.0,-0.038,1.054,0.039,-8.8,3.0,-12.1,685,819,0,,,,
R,,9103044.0,-0.113,0.975,-0.133,-10.8,4.4,-5.1,710,847,0,,,,
R,,9103104.0,-0.15,1.029,-0.234,-7.4,2.5,-3.6,729,874,0,,,,
R,,9103165.0,0.003,1.033,-0.081,-6.9,1.1,-2.4,707,882,0,,,,
R,,9103224.0,-0.013,1.073,-0.013,-6.6,-1.2,-2.1,648,889,0,,,,
R,,9103285.0,-0.076,0.984,-0.005,-6.8,0.1,-2.2,581,889,0,,,,
R,,9103344.0,-0.083,0.961,0.108,-7.5,0.4,-2.1,495,890,0,,,,
R,,9103405.0,0.041,1.064,0.145,-8.7,0.7,-2.1,387,889,0,,,,
R,,9103466.0,-0.026,1.198,0.036,-11.2,0.1,-2.1,138,893,0,,,,
R,,9103524.0,-0.054,1.378,-0.13,-15.9,-2.6,-3.1,109,886,0,,,,
R,,9103584.0,0.332,2.083,-0.606,-23.9,-10.9,-5.1,99,879,0,,,,
R,,9103644.0,-0.186,1.916,0.676,-28.8,-4.4,-2.0,101,840,0,,,,
R,,9103705.0,-0.119,0.011,0.031,1.9,11.4,11.1,454,726,0,,,,
R,,9103764.0,-0.119,0.083,-0.33,14.8,6.5,14.8,409,701,0,,,,
R,,9103825.0,-0.142,0.536,-0.259,25.4,8.5,16.5,447,701,0,,,,
R,,9103884.0,-0.445,1.366,-0.164,34.5,8.4,13.5,450,717,0,,,,
R,,9103945.0,-0.466,1.781,0.077,34.9,6.7,9.2,441,734,0,,,,
R,,9104004.0,-0.399,1.71,0.241,31.4,2.0,5.5,424,731,0,,,,
R,,9104064.0,-0.343,1.576,0.772,17.0,-0.9,2.8,439,744,0,,,,
R,,9104125.0,-0.054,1.502,1.138,-7.0,2.7,-6.0,474,754,0,,,,
R,,9104184.0,0.476,1.175,-0.298,-9.7,9.4,-9.2,654,789,0,,,,
R,,9104245.0,-0.092,1.055,-0.016,-10.0,0.1,-13.6,684,817,0,,,,
R,,9104304.0,-0.157,0.957,-0.2,-10.4,6.3,-4.9,709,848,0,,,,
R,,9104365.0,-0.126,1.049,-0.153,-7.8,5.0,-4.2,727,870,0,,,,
R,,9104424.0,-0.003,1.029,-0.128,-7.5,0.0,-2.4,723,883,0,,,,
R,,9104484.0,-0.065,1.029,-0.047,-6.5,-0.6,-2.1,669,884,0,,,,
R,,9104544.0,-0.084,0.994,-0.014,-6.5,-1.2,-2.3,619,888,0,,,,
R,,9104604.0,-0.088,0.996,0.058,-7.2,-1.2,-2.2,555,895,0,,,,
R,,9104665.0,-0.038,1.111,0.086,-9.4,-0.5,-2.6,402,893,0,,,,
R,,9104724.0,-0.033,1.243,0.026,-12.3,-1.8,-3.2,169,895,0,,,,
R,,9104785.0,-0.126,1.5,-0.268,-17.5,-5.0,-4.8,154,888,0,,,,
R,,9104846.0,0.176,2.247,-0.502,-25.3,-10.4,-8.9,100,878,0,,,,
R,,9104905.0,-0.665,1.079,0.398,-26.7,-6.3,-7.1,154,802,0,,,,
R,,9104964.0,0.125,-0.007,-0.112,6.8,8.7,9.8,445,716,0,,,,
R,,9105024.0,-0.026,-0.114,-0.142,19.9,8.5,13.3,438,713,0,,,,
R,,9105084.0,-0.081,0.644,-0.23,31.7,9.1,13.5,443,694,0,,,,
R,,9105174.0,-0.181,1.911,0.279,35.8,11.5,10.7,398,719,0,,,,
R,,9105235.0,-0.736,1.86,0.141,30.4,2.0,11.3,386,738,0,,,,
R,,9105294.0,-0.44,1.613,0.667,17.8,-19.6,5.0,392,748,0,,,,
R,,9105354.0,0.141,1.325,1.199,-7.8,-4.7,-3.0,433,757,0,,,,
R,,9105414.0,0.061,0.875,-0.569,-7.1,2.4,-6.6,647,784,0,,,,
R,,9105474.0,0.067,1.131,0.001,-11.9,-4.2,-8.9,677,811,0,,,,
R,,9105535.0,-0.25,0.91,-0.227,-10.4,4.1,-4.5,699,833,0,,,,
R,,9105596.0,-0.097,0.972,-0.236,-7.4,0.0,-2.4,720,857,0,,,,
R,,9105655.0,-0.084,1.038,-0.143,-6.5,-1.5,-1.7,720,873,0,,,,
