side,stage,device_ms,ax,ay,az,gx,gy,gz,toe,heel,phase
L,,238511,-0.349,2.064,-0.402,142.2,-98.2,-9.8,581,481,0
L,,238536,-0.138,0.993,-0.360,131.2,-100.9,-7.2,582,537,0
L,,238546,-0.013,0.877,0.212,128.2,-84.9,-7.4,515,520,0
L,,238556,-0.148,0.799,0.092,127.6,-77.0,-0.1,584,510,0
L,,238566,-0.435,0.752,-0.196,128.6,-54.7,3.2,399,416,0
L,,238576,-0.356,0.935,-0.315,122.4,-31.1,1.7,406,451,0
L,,238586,-0.045,0.967,-0.224,99.1,-26.2,-0.9,478,532,0
L,,238596,0.243,0.975,-0.150,86.3,-20.5,1.2,437,478,0
L,,238606,0.262,0.948,-0.013,76.3,-18.2,-0.8,402,446,0
L,,238616,0.205,0.958,-0.099,65.5,-28.8,-1.4,414,460,0
L,,238626,0.045,0.971,-0.067,57.8,-31.2,-3.5,482,519,0
L,,238636,0.114,1.020,-0.020,51.2,-27.3,-4.6,527,597,0
L,,238646,0.092,1.074,-0.061,46.6,-22.4,-6.9,577,511,0
L,,238656,0.020,1.053,-0.053,42.9,-17.7,-7.3,565,551,0
L,,238666,-0.033,0.976,-0.067,39.4,-9.5,-8.4,480,353,0
L,,238676,-0.044,0.960,-0.078,37.7,1.4,-8.6,554,478,0
L,,238686,-0.001,0.975,-0.112,32.8,4.3,-8.9,425,319,0
L,,238696,0.029,0.986,-0.084,28.4,3.4,-10.3,441,531,0
L,,238706,0.021,0.971,-0.060,24.5,-0.4,-11.0,400,373,0
L,,238716,-0.008,1.041,-0.035,23.0,3.2,-12.6,320,304,0
L,,238726,-0.020,1.045,-0.044,19.8,1.6,-12.8,356,380,0
L,,238736,-0.011,1.037,-0.032,19.2,3.6,-14.8,333,339,0
L,,238746,0.020,0.976,-0.019,16.5,-3.0,-15.5,393,371,0
L,,238756,-0.060,1.015,-0.038,17.3,0.9,-14.7,405,408,0
L,,238766,-0.007,0.967,-0.056,19.1,2.5,-15.8,323,334,0
L,,238776,-0.056,0.991,-0.050,19.4,4.2,-15.8,317,321,0
L,,238786,-0.091,0.996,-0.027,21.2,8.8,-15.8,407,368,0
L,,238796,-0.071,1.005,-0.031,20.1,10.9,-17.2,351,324,0
L,,238806,-0.028,0.993,-0.101,26.0,14.7,-15.1,305,327,0
L,,238816,-0.048,1.018,-0.075,24.6,12.8,-15.9,271,327,0
L,,238826,-0.050,1.022,-0.038,27.3,12.8,-14.4,289,309,0
L,,238836,-0.086,1.031,-0.049,29.7,16.7,-14.7,240,318,0
L,,238846,-0.020,1.047,-0.043,32.4,19.7,-16.6,273,315,0
L,,238856,-0.028,1.051,-0.058,37.8,20.0,-16.1,195,317,0
L,,238866,-0.046,1.082,-0.033,39.9,20.0,-16.3,199,336,0
L,,238876,-0.047,1.042,-0.069,41.7,23.4,-18.6,210,323,0
L,,238886,-0.044,1.023,-0.114,44.8,25.4,-20.1,194,271,0
L,,238896,-0.025,1.026,-0.079,46.9,24.5,-21.4,120,210,0
L,,238906,-0.019,0.986,-0.142,48.3,24.7,-20.5,134,97,0
L,,238916,-0.017,1.013,-0.133,51.2,25.4,-20.5,95,155,0
L,,238926,-0.031,1.046,-0.112,54.2,23.0,-18.5,71,131,0
L,,238936,-0.107,1.095,-0.069,57.2,20.7,-18.6,63,92,0
L,,238946,-0.119,1.155,-0.072,60.6,21.7,-19.8,36,52,0
L,,238956,-0.138,1.201,-0.078,65.4,25.9,-20.4,57,30,0
L,,238966,-0.129,1.235,-0.066,73.0,34.6,-19.5,26,30,0
L,,238976,-0.081,1.260,-0.072,79.3,36.6,-19.9,12,23,0
L,,238986,-0.031,1.292,-0.088,85.1,35.9,-19.2,10,15,0
L,,239224,-0.353,-0.330,-0.065,19.5,176.2,-134.6,28,11,0
L,,239234,-0.190,0.284,0.125,46.3,198.8,-106.8,23,12,0
L,,239244,0.157,0.295,0.131,-2.9,173.1,-123.3,41,15,0
L,,239254,0.696,-0.031,1.119,-53.3,169.0,-111.7,35,15,0
L,,239264,0.714,0.020,0.953,-85.3,128.3,-108.2,28,15,0
L,,239274,0.903,0.092,0.754,-91.7,93.0,-108.2,31,14,0
L,,239284,0.846,-0.002,0.646,-138.0,61.3,-107.0,38,15,0
L,,239294,0.708,0.040,0.571,-168.2,23.7,-108.2,40,15,0
L,,239304,0.681,0.022,0.546,-189.8,1.7,-99.8,50,16,0
L,,239314,0.632,0.147,0.404,-214.4,-17.4,-86.3,60,18,0
L,,239324,0.548,0.210,0.378,-232.4,-26.3,-81.2,53,18,0
L,,239334,0.477,0.357,0.350,-252.5,-29.0,-75.5,46,15,0
L,,239344,0.388,0.510,0.368,-270.7,-22.7,-68.3,51,18,0
L,,239354,0.371,0.682,0.344,-287.0,-8.1,-59.3,55,18,0
L,,239364,0.316,0.801,0.301,-301.3,8.4,-52.9,52,19,0
L,,239374,0.271,1.010,0.264,-310.1,31.0,-44.5,47,20,0
L,,239384,0.166,1.216,0.224,-307.0,65.0,-42.7,31,14,0
L,,239394,0.247,1.242,0.280,-322.0,77.4,-45.8,20,14,0
L,,239404,0.373,1.537,0.242,-310.8,98.7,-55.6,23,12,0
L,,239414,0.346,1.656,0.219,-283.8,130.0,-55.1,31,17,0
L,,239424,0.328,1.800,0.040,-261.0,156.1,-49.4,31,18,0
L,,239434,0.345,1.874,-0.019,-275.3,155.0,-50.6,41,23,0
L,,239444,0.449,1.895,-0.063,-287.9,166.8,-63.0,35,22,0
L,,239454,0.529,2.175,-0.300,-280.0,191.9,-68.6,33,20,0
L,,239464,0.689,2.046,-0.519,-276.2,201.2,-77.1,53,29,0
L,,239474,0.963,1.946,-0.561,-277.8,189.4,-75.9,52,28,0
L,,239484,1.117,1.902,-0.698,-273.8,164.2,-72.9,50,33,0
L,,239494,1.304,1.827,-0.768,-272.8,127.3,-63.8,60,31,0
L,,239504,1.312,1.877,-0.912,-260.4,87.1,-45.8,59,33,0
L,,239514,1.048,1.899,-1.100,-254.1,38.5,-39.4,59,33,0
L,,239524,0.856,1.804,-1.253,-235.4,1.3,-32.9,61,36,0
L,,239534,0.674,1.778,-1.623,-209.3,-20.8,-24.7,62,37,0
L,,239544,0.346,1.802,-2.080,-169.1,-14.0,-15.8,31,29,0
L,,239554,0.428,1.806,-2.419,-95.7,7.4,-18.9,85,26,0
L,,239564,0.428,1.826,-2.132,-13.3,22.1,-10.2,129,38,0
L,,239574,0.654,1.479,-1.825,74.2,13.7,6.7,65,20,0
L,,239584,0.263,1.161,-1.377,87.5,6.0,20.5,173,25,0
L,,239594,0.077,1.243,-1.412,116.3,8.7,20.8,210,47,0
L,,239604,0.315,1.018,0.154,112.3,15.9,21.0,480,51,0
L,,239614,0.690,1.510,1.328,94.2,1.4,25.1,488,520,0
L,,239624,0.967,1.753,1.960,69.0,20.0,18.7,526,537,0
L,,239634,0.977,1.957,-2.285,264.0,92.4,23.0,540,594,0
L,,239644,1.280,1.423,-0.889,174.7,-28.0,20.5,553,588,0
L,,239654,-0.189,1.349,-0.298,123.9,-79.4,-2.8,585,381,0
L,,239664,-0.264,1.150,0.018,115.4,-85.9,2.3,526,578,0
L,,239674,-0.369,0.922,-0.287,115.0,-77.0,6.8,467,354,0
L,,239914,-0.053,1.037,-0.046,21.2,10.6,-8.3,300,347,0
L,,239924,-0.065,1.016,-0.037,22.6,12.6,-8.1,310,359,0
L,,239950,-0.052,1.010,-0.065,24.9,20.0,-10.7,238,314,0
L,,240009,-0.041,1.023,-0.104,37.4,25.5,-13.5,108,66,0
L,,240070,0.049,1.086,-0.125,53.8,22.0,-15.5,81,45,0
L,,240129,-0.109,1.325,-0.075,86.7,21.7,-13.3,29,29,0
L,,240189,0.089,1.473,-0.063,127.8,10.0,-13.5,28,38,0
L,,240250,0.201,2.106,0.540,184.1,47.5,-22.6,17,23,0
L,,240309,0.061,1.387,-0.210,284.2,157.8,-17.9,39,24,0
L,,240370,-0.144,0.373,-0.205,101.0,37.0,-35.2,101,27,0
L,,240429,0.410,0.045,0.800,-83.5,67.2,-75.9,33,14,0
L,,240519,0.431,0.484,0.299,-277.2,31.0,-43.0,76,29,0
L,,240580,0.278,1.474,0.184,-315.2,77.8,-29.5,40,34,0
L,,240639,0.585,2.231,-0.437,-287.8,170.8,-48.3,59,66,0
L,,240700,0.858,1.877,-1.600,-253.5,-4.4,-31.8,34,32,0
L,,240759,0.268,1.236,-1.587,143.4,-38.2,11.6,164,33,0
L,,240820,1.304,1.665,-1.930,174.0,-53.3,18.1,527,282,0
L,,240879,-0.239,0.712,0.169,104.7,-68.0,0.7,415,472,0
L,,240939,0.449,0.944,-0.065,72.1,-34.9,-4.8,458,528,0
L,,241000,-0.023,1.017,-0.036,39.4,-7.0,-3.9,456,534,0
L,,241059,-0.002,0.968,-0.042,22.9,7.0,-6.6,435,382,0
L,,241120,-0.038,0.999,-0.038,29.2,12.2,-7.2,276,212,0
L,,241179,-0.007,1.028,-0.047,42.1,10.1,-7.8,207,357,0
L,,241240,-0.096,1.118,-0.115,52.2,13.3,-14.0,108,91,0
L,,241299,-0.005,1.285,-0.090,80.0,25.5,-9.4,28,18,0
L,,241360,0.069,1.390,-0.097,125.7,15.9,-7.9,17,13,0
L,,241419,0.181,1.927,0.318,187.7,14.0,-16.0,19,15,0
L,,241479,0.138,1.516,0.143,271.1,187.7,-57.4,46,19,0
L,,241570,0.013,-0.570,-0.180,53.6,178.7,-22.1,67,22,0
L,,241629,0.399,0.093,0.412,-109.6,36.4,-69.0,59,19,0
L,,241690,0.204,0.311,0.242,-235.3,-30.2,-51.5,101,23,0
L,,241780,0.321,1.660,-0.185,-280.1,66.6,-43.0,45,25,0
L,,241839,0.561,1.625,-0.708,-261.8,69.5,-41.3,54,27,0
L,,241900,0.301,1.647,-0.971,-203.5,12.5,-27.2,38,34,0
L,,241959,0.240,1.465,-1.251,66.8,37.1,-0.5,75,19,0
L,,242019,0.656,1.662,1.731,-6.2,-51.3,-16.0,436,459,0
L,,242080,-0.252,1.134,-0.346,101.8,-54.8,-8.1,477,245,0
L,,242139,0.290,0.945,-0.151,82.9,-25.4,4.4,515,564,0
L,,242200,0.003,1.014,-0.003,52.8,-10.6,-5.4,413,478,0
L,,242290,0.010,0.997,-0.058,28.5,0.3,-4.4,346,366,0
L,,242349,0.005,0.991,-0.082,22.4,6.5,-7.4,331,341,0
L,,242410,-0.006,1.019,-0.064,30.1,5.3,-6.6,302,243,0
L,,242500,0.005,1.045,-0.109,45.5,4.9,-9.8,122,84,0
L,,242559,0.068,1.149,-0.161,60.4,20.9,-12.3,17,15,0
L,,242650,-0.058,1.381,-0.052,111.3,7.1,-15.6,23,14,0
L,,242740,-0.105,2.154,0.667,209.2,128.5,-49.7,92,32,0
L,,243454,0.125,0.993,0.005,70.2,-0.7,13.5,537,522,0
L,,243464,0.268,1.075,0.000,66.8,-3.8,4.9,536,526,0
L,,243490,0.226,0.996,0.065,53.8,-18.9,-11.9,518,595,0
L,,243549,-0.126,1.008,-0.001,50.6,-4.5,5.2,412,474,0
L,,243610,0.114,1.020,0.011,34.5,-10.9,-4.6,438,366,0
L,,243669,0.047,0.973,-0.085,28.9,-9.4,-5.3,409,397,0
L,,243730,-0.005,1.005,-0.083,30.7,3.5,-6.0,403,411,0
L,,243790,0.055,1.036,-0.130,38.3,14.7,-10.1,338,423,0
L,,243849,-0.077,1.066,-0.107,52.3,15.4,-7.9,216,128,0
L,,243910,0.069,1.101,-0.160,62.6,14.0,-7.0,80,24,0
L,,243969,-0.025,1.273,-0.137,90.5,14.7,-7.5,34,32,0
L,,244030,0.073,1.709,0.034,135.5,6.1,-9.6,23,21,0
L,,244089,0.128,1.823,0.369,199.2,101.2,-52.3,31,16,0
L,,244150,-0.036,1.072,-0.263,127.0,119.0,-72.8,17,10,0
L,,244209,0.232,0.637,-0.144,46.5,161.9,-50.6,40,18,0
L,,244270,0.530,0.110,0.169,-74.4,41.3,-59.3,116,27,0
L,,244330,0.330,0.327,0.237,-204.1,-7.9,-50.4,103,29,0
L,,244389,0.143,1.046,0.187,-246.4,122.9,-24.2,42,22,0
L,,244450,0.801,1.591,-0.416,-254.5,164.6,-49.4,38,23,0
L,,244509,0.512,1.673,-0.542,-217.3,0.1,-38.5,28,14,0
L,,244570,0.250,1.370,-0.997,-117.9,75.8,-30.3,51,24,0
L,,244629,0.538,1.179,-1.257,29.4,20.4,4.4,67,103,0
L,,244690,0.161,1.428,-1.205,110.3,-17.6,-12.0,553,479,0
L,,244750,-0.312,0.823,0.109,74.9,-31.2,10.2,544,623,0
L,,244810,0.319,1.086,0.024,54.8,-16.4,-6.5,559,639,0
L,,244870,-0.152,0.976,0.021,38.2,-10.1,0.0,565,630,0
L,,244959,-0.013,1.004,0.008,26.3,-3.7,-0.8,534,577,0
L,,245020,0.025,0.994,-0.026,26.8,8.7,0.8,389,471,0
L,,245080,0.044,1.038,-0.023,38.4,4.4,-0.6,385,392,0
L,,245139,0.000,1.058,-0.064,44.8,2.1,-5.9,482,552,0
L,,245200,-0.021,1.070,-0.101,59.0,3.6,-4.3,345,506,0
L,,245259,-0.103,1.198,-0.123,83.9,16.0,2.5,190,209,0
L,,245320,0.239,1.676,-0.095,133.8,17.1,-1.8,33,14,0
L,,245379,0.305,2.147,0.443,175.2,-10.9,-34.1,49,36,0
L,,245440,0.006,1.321,-0.736,223.6,81.0,-52.7,25,14,0
L,,245500,0.002,0.110,0.481,86.9,187.5,-50.1,13,9,0
L,,245560,0.487,-0.041,0.401,-47.4,105.2,-69.1,75,25,0
L,,245620,0.413,0.232,0.310,-200.2,35.3,-66.1,79,20,0
L,,245679,0.240,1.074,0.066,-261.2,34.6,-41.9,52,40,0
L,,245740,0.570,1.732,-0.459,-253.9,94.5,-42.0,70,27,0
L,,245799,0.551,1.569,-0.698,-226.4,69.7,-34.2,37,20,0
L,,245860,0.567,1.362,-1.036,-115.5,64.1,-26.1,43,22,0
L,,245919,0.392,1.154,-1.291,20.5,-41.4,1.8,65,18,0
L,,245980,1.349,1.686,-1.823,110.0,6.5,-23.3,541,576,0
L,,246040,-0.089,0.736,0.291,84.7,-64.1,-7.3,501,546,0
L,,246100,0.346,1.040,0.048,45.7,-18.8,-2.1,545,605,0
L,,246634,0.120,1.742,0.064,137.8,-2.7,1.7,33,25,0
L,,246644,0.139,1.778,0.123,147.6,-0.5,0.4,30,24,0
L,,246669,0.240,1.999,0.368,167.6,28.0,-9.3,51,34,0
L,,246730,0.265,1.354,-0.356,245.4,93.3,8.0,57,31,0
L,,246790,-0.313,-0.792,-0.098,118.2,24.9,27.7,8,12,0
L,,246850,-0.070,0.480,-0.052,-29.4,66.7,-50.1,74,37,0
L,,246910,0.179,0.284,0.460,-165.7,0.0,-44.0,86,60,0
L,,246969,0.190,0.558,0.203,-258.0,4.2,-22.3,113,55,0
L,,247030,0.348,1.535,0.211,-276.9,96.7,-30.8,34,45,0
L,,247089,0.597,2.003,-0.788,-268.9,88.6,-53.1,60,50,0
L,,247150,0.494,1.630,-1.164,-202.9,-33.1,-16.3,87,53,0
L,,247209,0.263,1.431,-1.267,72.3,7.0,-6.7,44,15,0
L,,247270,0.701,1.501,-0.826,269.8,122.0,27.5,508,225,0
L,,247330,0.101,1.076,-0.052,85.0,-48.3,-6.3,393,291,0
L,,247390,0.352,0.933,-0.101,61.3,-13.5,0.5,441,274,0
L,,247450,-0.018,0.980,0.011,33.2,-10.7,-11.2,440,368,0
L,,247509,0.070,1.007,0.001,20.9,-3.5,-6.4,476,465,0
L,,247570,-0.009,1.022,0.058,29.4,4.4,-6.7,413,324,0
L,,247629,0.003,1.016,-0.042,47.0,2.8,-1.1,357,303,0
L,,247690,0.029,1.039,-0.091,45.0,1.8,-3.8,216,123,0
L,,247750,0.030,1.073,-0.098,56.9,4.2,-8.1,77,37,0
L,,247810,0.036,1.187,-0.096,79.0,14.5,-2.6,81,40,0
L,,247870,0.046,1.313,-0.031,126.2,-8.8,2.4,49,36,0
L,,247930,0.199,1.940,0.320,173.3,19.6,1.1,30,37,0
L,,247990,0.128,1.547,-0.028,260.3,137.9,-18.4,60,35,0
L,,248049,-0.018,0.415,0.279,91.0,45.6,3.1,11,11,0
L,,248110,0.160,0.007,-0.107,-21.8,148.7,-36.4,15,9,0
L,,248169,0.326,0.089,0.450,-161.3,-30.8,-52.7,26,14,0
L,,248230,0.000,0.614,0.230,-283.7,-65.1,-22.5,28,10,0
L,,248290,0.214,1.569,0.065,-282.8,31.7,-13.0,29,18,0
L,,248350,0.322,2.140,-0.842,-271.6,71.3,-53.2,76,33,0
L,,248410,0.375,1.596,-1.293,-169.3,26.8,-33.5,81,32,0
L,,248500,0.467,0.929,-0.324,68.0,-71.4,-0.3,298,48,0
L,,248560,-0.330,1.547,-0.079,115.1,-68.3,-17.7,453,496,0
L,,248620,-0.261,1.077,-0.114,89.1,-16.2,12.5,350,378,0
L,,248680,0.271,1.005,-0.012,56.2,-33.2,-9.3,384,415,0
L,,248740,-0.041,0.991,-0.037,37.1,-5.9,-6.0,290,318,0
L,,248799,0.080,0.985,-0.072,31.2,0.2,-8.6,371,425,0
L,,248860,-0.016,0.993,-0.076,30.3,1.8,-9.6,315,389,0
L,,248919,-0.035,1.032,-0.081,38.6,2.2,-9.1,367,283,0
L,,248980,0.010,1.037,-0.124,50.0,3.7,-11.4,76,68,0
L,,249040,-0.012,1.154,-0.133,63.2,15.9,-11.6,29,28,0
L,,249100,0.004,1.272,-0.118,99.6,17.2,-11.8,27,31,0
L,,249160,0.137,1.813,0.069,146.9,6.0,-15.6,25,27,0
L,,249250,0.095,1.389,0.085,253.9,182.6,-31.5,78,50,0
L,,249310,-0.122,1.267,0.439,61.1,145.7,-61.9,11,18,0
L,,249814,-0.291,1.155,-0.084,87.2,-83.3,8.1,575,586,0
L,,249824,-0.199,1.026,-0.203,86.2,-64.4,5.8,570,599,0
L,,249850,-0.331,0.772,0.217,72.3,-73.8,15.1,587,535,0
L,,249910,0.313,1.013,-0.063,63.7,-0.7,-3.6,575,654,0
L,,250000,0.014,0.998,-0.001,35.7,1.6,3.7,583,619,0
L,,250060,-0.042,0.991,-0.020,33.6,11.8,-0.4,477,507,0
L,,250120,0.035,1.036,-0.048,35.9,11.6,2.9,426,448,0
L,,250180,-0.020,1.005,-0.074,42.6,10.1,-1.6,399,434,0
L,,250240,-0.007,1.011,-0.137,48.0,16.2,-9.0,319,196,0
L,,250300,-0.127,1.136,-0.102,57.6,19.2,-8.1,196,116,0
L,,250360,0.119,1.311,-0.144,90.0,26.3,-7.1,24,26,0
L,,250419,0.117,1.896,0.087,149.5,9.0,-12.1,53,41,0
L,,250479,0.266,1.963,0.720,206.6,102.1,-66.3,33,38,0
L,,250540,-0.230,1.241,-0.150,99.6,127.3,-88.9,25,23,0
L,,250600,0.345,0.166,0.629,13.9,169.1,-72.9,13,21,0
L,,250660,0.471,0.181,0.344,-121.7,90.0,-69.2,17,17,0
L,,250720,0.360,0.581,0.280,-254.5,36.5,-49.7,26,17,0
L,,250780,0.490,1.597,0.028,-228.9,129.5,-36.8,25,30,0
L,,250839,0.709,1.856,-0.474,-239.4,145.8,-53.7,107,78,0
L,,250900,0.393,1.570,-0.785,-192.2,29.6,-47.1,66,50,0
L,,250990,0.431,0.998,-0.964,118.5,-8.6,15.1,106,71,0
L,,251050,1.468,1.376,-0.987,90.5,-49.9,14.9,557,560,0
L,,251110,-0.132,0.753,0.273,91.6,-50.3,-0.7,525,538,0
L,,251169,0.404,0.947,-0.096,69.5,-18.1,7.2,458,519,0
L,,251260,0.024,0.969,-0.041,40.4,1.4,5.4,508,567,0
L,,251320,0.066,1.027,-0.016,32.4,-1.0,-0.4,408,443,0
L,,251423,0.034,0.986,-0.115,31.7,0.9,-3.3,392,412,0
L,,251440,0.026,1.007,-0.128,33.2,0.2,-2.5,376,418,0
L,,251500,0.104,1.061,-0.122,38.5,1.1,-6.7,269,213,0
L,,251560,-0.036,1.172,-0.103,64.4,10.5,-2.3,92,48,0
L,,251620,0.181,1.180,-0.176,100.3,5.0,3.8,43,39,0
L,,251680,-0.023,1.823,0.072,145.2,-5.9,7.1,47,41,0
L,,251740,0.147,2.034,0.734,221.9,77.3,-12.8,48,38,0
L,,251800,0.081,1.119,-0.460,127.9,68.2,-1.4,51,38,0
L,,251860,-0.600,-0.574,0.103,39.6,132.1,-25.4,20,17,0
L,,251919,0.346,0.096,0.457,-75.8,48.3,-57.0,37,25,0
L,,251980,0.305,0.263,0.167,-192.9,-3.5,-56.7,49,19,0
L,,252070,0.320,1.243,0.047,-307.7,26.7,-46.4,30,26,0
L,,252130,0.378,2.001,-0.613,-270.4,72.1,-46.1,26,35,0
L,,252190,0.545,1.540,-1.075,-214.5,31.6,-34.0,28,42,0
L,,252250,0.458,1.411,-1.534,7.1,56.9,2.4,78,34,0
L,,252309,0.579,1.778,0.898,178.3,35.4,6.9,531,510,0
L,,252370,0.111,0.964,0.244,101.7,-61.4,11.2,507,575,0
L,,252430,0.156,0.931,-0.173,85.1,0.0,5.6,511,536,0
L,,252490,0.051,1.012,-0.011,50.1,-15.5,-8.1,517,529,0
L,,252550,0.067,1.012,-0.041,36.1,1.1,2.1,377,454,0
L,,253264,0.328,0.136,0.244,-151.4,19.8,-47.2,17,11,0
L,,253274,0.366,0.191,0.157,-166.3,11.4,-43.8,17,13,0
L,,253300,0.322,0.385,0.169,-215.3,-7.0,-35.9,37,18,0
L,,253390,0.408,1.644,0.108,-281.9,42.7,-29.8,18,36,0
L,,253480,0.473,1.820,-0.876,-238.4,74.6,-56.2,43,43,0
L,,253540,0.236,1.506,-1.647,-106.6,42.4,-11.6,30,18,0
L,,253599,0.959,0.813,-0.356,89.4,-24.5,10.9,353,278,0
L,,253660,-0.072,1.332,0.037,108.7,-68.2,-12.8,549,523,0
L,,253720,-0.214,1.094,0.186,102.4,-25.2,14.4,478,497,0
L,,253780,0.065,1.039,-0.014,61.1,-24.7,-7.4,523,543,0
L,,253870,0.045,1.004,-0.084,49.3,-3.0,6.3,505,520,0
L,,253930,0.049,0.967,-0.103,38.7,6.9,-1.4,416,447,0
L,,254020,0.023,0.992,-0.146,27.0,2.5,-5.6,413,444,0
L,,254110,0.049,1.042,-0.169,28.1,-0.4,-15.8,331,215,0
L,,254170,-0.114,1.177,-0.091,58.8,25.4,-10.2,170,86,0
L,,254273,0.106,1.787,0.020,141.1,17.7,-17.0,29,30,0
L,,254350,0.254,1.572,0.468,244.0,183.0,-59.5,58,48,0
L,,254410,0.223,0.900,-0.294,144.3,108.2,-63.9,20,23,0
L,,254470,0.221,0.072,0.324,40.6,127.6,-68.6,34,31,0
L,,254573,0.361,0.332,0.258,-204.6,14.0,-73.0,64,26,0
L,,254620,0.192,0.847,0.252,-281.6,16.0,-66.0,57,36,0
L,,254680,0.418,1.805,-0.025,-254.0,104.2,-56.8,32,41,0
L,,254740,0.871,1.847,-0.846,-262.2,124.6,-69.3,63,79,0
L,,254800,0.241,1.544,-1.670,-145.8,16.4,-14.9,29,20,0
L,,254889,0.794,1.769,-0.808,100.4,-12.5,9.5,471,412,0
L,,254950,-0.112,0.750,0.328,93.5,-70.9,19.3,416,423,0
L,,255010,0.521,1.003,-0.089,67.9,-11.8,3.7,444,496,0
L,,255070,-0.109,0.971,0.022,41.2,-5.6,-10.0,441,445,0
L,,255160,0.022,1.037,-0.027,19.6,5.0,-6.3,463,476,0
L,,255220,-0.042,1.003,-0.028,22.0,8.6,-1.5,427,475,0
L,,255280,0.033,1.027,-0.063,27.7,13.5,-3.4,411,426,0
L,,255383,0.011,1.029,-0.161,42.0,2.1,-12.6,283,297,0
L,,255400,-0.022,1.060,-0.144,44.8,7.4,-12.1,261,278,0
L,,255460,-0.056,1.214,-0.080,72.8,16.5,-4.6,62,85,0
L,,255520,-0.051,1.407,-0.069,114.5,11.9,-2.1,66,69,0
L,,255580,0.191,1.816,0.140,157.1,6.4,-17.2,56,66,0
L,,255640,0.271,1.540,0.492,250.0,170.9,-62.5,64,67,0
L,,255700,0.328,1.059,-0.266,155.5,154.8,-71.3,9,20,0
L,,255760,-0.097,0.422,-0.511,37.3,122.7,-65.5,31,14,0
L,,255820,0.405,0.131,0.437,-137.6,8.6,-66.0,16,13,0
L,,255880,0.396,0.465,0.195,-236.4,-11.2,-35.0,89,38,0
L,,255940,0.286,1.252,0.244,-270.9,66.8,-15.3,34,35,0
L,,256000,0.623,2.050,-0.455,-261.8,128.8,-48.3,27,30,0
L,,256060,0.645,1.788,-0.945,-240.9,57.8,-24.5,33,35,0
L,,256150,0.335,1.025,-1.281,112.4,17.7,14.6,82,64,0
L,,256240,-0.266,1.121,-0.238,96.6,-61.6,-4.5,437,448,0
L,,256745,-0.126,1.215,-0.074,66.8,25.0,-17.2,21,25,0
L,,256755,-0.067,1.212,-0.086,75.7,29.1,-17.0,23,24,0
L,,256780,0.007,1.239,-0.099,93.8,27.6,-16.5,22,29,0
L,,256840,0.087,1.730,-0.001,141.2,31.0,-29.8,19,24,0
L,,256930,0.203,1.212,-0.093,244.5,227.7,-92.8,100,62,0
L,,256990,-0.365,0.028,0.301,71.6,217.1,-100.2,11,9,0
L,,257080,0.858,0.020,0.309,-90.7,94.9,-114.8,70,23,0
L,,257140,0.610,0.341,0.195,-225.5,6.6,-90.6,105,32,0
L,,257200,0.790,1.148,0.080,-257.4,114.0,-62.3,34,34,0
L,,257291,1.027,1.571,-0.599,-247.1,119.6,-25.3,31,44,0
L,,257350,0.264,1.582,-0.586,-178.1,26.8,5.1,29,46,0
L,,257410,0.872,1.007,-1.155,0.2,84.7,14.3,16,29,0
L,,257513,0.000,1.501,-0.695,120.6,20.7,-3.6,515,429,0
L,,257530,0.134,1.166,0.073,106.0,-16.7,17.0,454,422,0
L,,257590,0.068,1.035,-0.150,61.5,-27.3,-19.5,546,463,0
L,,257650,0.064,0.988,-0.006,36.7,13.9,0.8,449,354,0
L,,257710,0.012,1.007,0.022,23.4,0.9,14.0,517,409,0
L,,257770,0.104,1.060,0.089,31.1,4.5,20.8,424,379,0
L,,257860,0.091,0.978,-0.097,54.6,-16.2,17.4,364,386,0
L,,257920,0.075,1.073,-0.108,47.4,-20.0,14.9,274,247,0
L,,257980,0.065,1.129,-0.090,56.4,-10.3,19.1,183,177,0
L,,258041,0.389,1.247,-0.142,88.9,-21.1,28.1,31,23,0
L,,258130,-0.025,1.901,0.206,159.7,-30.5,44.5,25,21,0
L,,258190,0.179,1.748,0.533,236.8,55.5,39.6,64,42,0
L,,258293,-0.375,0.747,-0.510,13.9,-106.6,65.1,62,17,0
L,,258310,-0.292,0.370,0.461,-11.4,-120.2,44.0,81,26,0
L,,258371,-0.255,0.184,0.265,-152.5,-68.5,41.8,49,12,0
L,,258430,-0.088,0.453,0.224,-239.8,-13.7,50.9,45,15,0
L,,258490,-0.158,1.190,-0.027,-321.8,-28.9,39.9,20,15,0
L,,258550,-0.009,2.336,-0.437,-299.6,-1.2,-9.8,18,16,0
L,,258610,-0.493,1.910,-1.055,-219.1,-45.1,-68.6,26,18,0
L,,258670,0.477,1.122,-1.354,-69.4,33.6,-35.6,27,15,0
L,,258760,0.162,1.530,0.633,302.4,55.1,10.6,438,459,0
L,,258850,0.044,1.071,-0.149,103.1,-41.0,9.5,387,375,0
L,,258940,-0.091,0.981,0.008,35.2,-4.4,-22.9,404,441,0
L,,259030,0.050,1.021,-0.004,26.4,8.1,-19.9,428,462,0
L,,259090,-0.054,0.993,-0.017,30.5,9.9,-15.4,224,258,0
L,,259180,-0.123,1.069,-0.082,50.9,14.1,-19.6,105,89,0
L,,259240,-0.036,1.117,-0.093,64.3,13.1,-21.2,20,33,0
L,,259300,-0.026,1.194,-0.093,92.1,29.6,-20.4,19,23,0
L,,259390,0.242,1.933,0.229,164.2,20.5,-31.2,29,33,0
L,,259450,0.386,1.773,0.492,282.6,196.9,-58.1,53,48,0
L,,259510,0.353,0.854,-0.086,181.3,108.0,-51.6,7,16,0
L,,259570,0.056,-0.028,0.184,-55.5,127.6,-82.0,9,12,0
L,,259630,0.423,0.156,0.473,-175.2,12.3,-67.7,16,32,0
L,,259690,0.331,0.429,0.290,-280.7,3.8,-42.3,18,21,0
L,,260195,-0.075,0.989,-0.016,38.9,6.7,-6.6,532,509,0
L,,260205,-0.065,1.003,-0.019,36.1,7.7,-5.6,554,584,0
L,,260230,-0.107,1.015,0.007,31.9,6.7,-4.9,470,540,0
L,,260291,-0.046,1.011,-0.058,27.5,16.1,-5.3,415,431,0
L,,260350,-0.113,1.038,-0.027,30.5,6.7,-5.0,319,346,0
L,,260411,-0.106,1.041,-0.089,43.8,13.6,-10.7,250,300,0
L,,260470,-0.072,1.057,-0.146,47.3,25.5,-16.0,115,163,0
L,,260560,-0.028,1.229,-0.118,87.0,37.2,-29.4,20,25,0
L,,260621,-0.037,1.656,-0.002,128.5,24.9,-40.3,16,20,0
L,,260680,0.021,2.446,0.754,198.1,117.3,-84.0,53,31,0
L,,260740,-0.138,0.891,-0.406,164.6,254.8,-70.7,23,21,0
L,,260800,0.208,0.455,-0.273,22.0,129.7,-47.7,69,14,0
L,,260860,0.833,0.149,0.551,-135.3,15.4,-81.7,45,15,0
L,,260951,0.270,0.690,0.335,-283.4,65.9,-22.8,52,19,0
L,,261010,0.373,1.589,0.217,-272.8,168.9,-30.4,18,23,0
L,,261070,0.976,2.199,-0.711,-291.2,167.4,-55.7,20,20,0
L,,261130,0.454,1.654,-1.629,-189.5,52.7,-25.6,33,31,0
L,,261190,0.575,1.014,-1.578,111.8,39.0,32.1,161,106,0
L,,261250,0.227,1.658,-1.080,131.5,-48.7,-13.1,512,509,0
L,,261310,-0.325,0.908,-0.025,91.7,-41.9,9.1,420,420,0
L,,261371,0.157,1.037,0.006,57.1,-18.2,-3.2,406,391,0
L,,261430,-0.059,1.006,-0.008,32.4,5.1,-2.9,416,390,0
L,,261491,-0.005,1.011,-0.034,18.6,3.5,-7.9,344,352,0
L,,261581,-0.036,1.011,-0.045,29.1,10.7,-3.4,351,305,0
L,,261640,0.036,1.002,-0.106,34.0,13.7,-7.0,316,193,0
L,,261701,-0.054,1.050,-0.120,48.7,7.9,-11.0,238,152,0
L,,261760,-0.027,1.127,-0.130,63.2,18.7,-9.3,39,58,0
L,,261820,0.000,1.216,-0.168,88.8,18.3,-11.4,26,24,0
L,,261880,0.238,1.514,-0.052,125.7,21.7,-14.6,35,30,0
L,,261940,0.427,2.102,0.527,198.0,36.3,-33.7,33,47,0
L,,262000,-0.132,1.071,-0.549,193.6,146.5,-8.1,60,50,0
L,,262060,-0.845,-0.286,-0.200,113.6,72.3,-10.2,11,8,0
L,,262121,0.102,0.119,0.343,-89.8,26.8,-44.1,27,17,0
L,,262210,0.315,0.392,0.173,-247.1,38.7,-26.3,17,10,0
L,,262270,0.117,1.219,0.139,-285.3,35.6,-12.5,12,12,0
L,,262331,0.289,2.016,-0.368,-280.0,66.4,-24.2,16,15,0
L,,262390,0.232,1.851,-1.076,-226.7,89.8,-39.2,17,16,0
L,,262451,0.546,1.367,-1.607,-45.4,52.2,-18.0,19,17,0
L,,262541,1.673,1.836,-1.120,99.8,-24.2,-0.5,502,507,0
L,,262600,-0.243,0.625,0.347,106.3,-40.1,7.9,452,462,0
L,,262661,0.406,1.021,-0.024,55.5,-21.9,-2.5,467,471,0
L,,262720,-0.121,0.969,0.001,32.5,1.7,-10.6,511,560,0
L,,262781,0.046,1.039,0.012,21.4,0.3,-4.0,448,488,0
L,,262840,-0.034,0.997,-0.021,25.5,12.3,-5.2,401,446,0
L,,262900,0.020,1.022,-0.034,31.8,5.6,-3.4,286,341,0
L,,262959,0.049,1.065,-0.077,45.5,5.0,-4.7,303,201,0
L,,263465,0.173,0.045,0.281,-190.8,40.3,-25.9,59,24,0
L,,263475,0.171,0.138,0.340,-207.7,33.9,-24.5,66,27,0
L,,263500,0.246,0.372,0.382,-248.7,14.0,-19.1,59,26,0
L,,263560,0.166,1.108,0.230,-317.3,1.9,-12.0,26,22,0
L,,263621,0.016,2.283,-0.275,-310.8,97.3,-37.3,29,26,0
L,,263710,0.630,1.447,-1.638,-160.8,-25.2,-22.1,27,24,0
L,,263770,0.230,1.163,-1.323,118.5,-3.0,-4.6,303,313,0
L,,263831,0.048,1.565,-0.319,127.6,-52.9,-5.3,552,606,0
L,,263890,-0.368,0.914,0.113,81.3,-32.7,0.2,563,622,0
L,,263951,0.327,0.989,0.015,54.1,-32.4,-9.6,532,591,0
L,,264010,-0.095,0.991,0.027,38.2,-1.4,-4.4,472,523,0
L,,264071,0.058,1.006,-0.029,25.5,-1.9,-4.5,402,435,0
L,,264130,0.005,0.994,-0.013,23.2,8.8,-6.3,394,441,0
L,,264190,0.046,1.027,-0.021,36.9,4.0,-9.4,440,489,0
L,,264250,0.000,1.043,-0.051,56.9,0.7,-10.7,383,429,0
L,,264340,-0.140,1.223,-0.065,84.4,13.8,-0.5,108,132,0
L,,264400,0.117,1.427,-0.116,120.3,10.6,-6.4,33,56,0
L,,264491,0.118,2.356,0.787,212.7,55.3,-42.3,75,67,0
L,,264550,-0.036,0.834,-0.738,185.8,155.3,-22.7,52,44,0
L,,264611,-0.827,-0.725,0.643,33.3,84.2,-81.6,47,20,0
L,,264701,0.320,0.083,0.319,-168.4,41.5,-59.2,27,20,0
L,,264760,0.247,0.557,0.223,-259.7,28.9,-42.0,68,31,0
L,,264821,0.450,1.385,0.142,-296.5,72.3,-48.3,25,40,0
L,,264880,0.651,2.248,-0.645,-288.4,110.9,-48.4,26,29,0
L,,264940,0.273,1.688,-1.234,-205.9,3.1,-21.8,38,29,0
L,,265000,0.351,1.016,-1.345,98.2,49.6,1.8,189,192,0
L,,265060,0.479,1.502,-0.776,137.4,-40.4,-14.9,489,527,0
L,,265121,-0.435,0.754,-0.053,81.0,-49.4,5.3,387,421,0
L,,265180,0.266,1.058,0.000,52.7,-25.3,-7.7,451,497,0
L,,265241,-0.089,0.991,-0.008,40.1,3.4,-7.6,416,449,0
L,,265300,0.042,1.010,-0.052,27.2,1.2,-0.8,432,497,0
L,,265361,-0.016,0.978,-0.063,23.1,9.1,-6.6,374,430,0
L,,265420,0.046,1.026,-0.059,23.3,1.2,-8.1,429,474,0
L,,265480,0.034,1.054,-0.081,30.5,2.5,-11.5,297,336,0
L,,265541,-0.064,1.072,-0.070,45.4,6.5,-12.1,358,374,0
L,,265600,-0.036,1.139,-0.107,73.5,18.4,-8.1,48,45,0
L,,265661,0.040,1.262,-0.169,104.5,3.6,-11.0,21,38,0
L,,265720,0.082,1.917,0.084,138.1,3.7,-28.5,65,80,0
L,,265781,0.157,1.719,0.720,231.1,177.8,-68.3,70,54,0
L,,265840,0.355,1.625,-0.406,169.9,175.5,-71.4,14,18,0
L,,265930,0.010,0.170,0.238,-56.3,108.6,-95.9,43,21,0
L,,266020,0.354,0.328,0.224,-216.6,30.6,-73.6,20,10,0
L,,266080,0.113,1.153,0.231,-283.0,42.7,-54.6,13,12,0
L,,266140,0.589,1.912,-0.238,-263.9,136.0,-60.6,21,17,0
L,,266201,0.774,1.750,-0.908,-228.6,87.2,-45.2,32,18,0
L,,266260,0.646,1.471,-1.916,-13.3,51.3,-7.9,33,14,0
L,,266975,-0.044,1.622,-0.032,123.9,13.0,-14.4,79,63,0
L,,266985,0.035,1.644,-0.025,133.7,13.4,-19.0,77,55,0
L,,267010,0.255,1.857,0.110,150.8,5.4,-16.1,71,54,0
L,,267071,0.306,1.421,0.400,251.1,192.4,-43.4,90,47,0
L,,267130,0.229,0.638,-0.172,172.6,91.3,-42.0,14,13,0
L,,267220,0.397,0.197,0.575,-86.5,65.1,-72.8,35,19,0
L,,267281,0.384,0.255,0.244,-194.4,24.2,-53.6,39,14,0
L,,267371,0.194,1.444,0.074,-283.3,102.9,-49.9,25,20,0
L,,267430,0.601,1.901,-0.789,-269.5,89.5,-49.2,24,16,0
L,,267491,0.534,1.619,-1.198,-191.1,-36.6,-13.0,40,21,0
L,,267550,0.168,1.564,-1.164,1.1,-31.2,-16.3,31,17,0
L,,267611,0.527,1.840,0.987,141.6,13.1,8.4,490,487,0
L,,267701,-0.355,1.031,-0.009,101.7,-19.1,7.0,455,462,0
L,,267760,0.097,1.009,-0.068,43.2,-20.1,-5.2,379,418,0
L,,267821,-0.019,1.016,-0.008,30.6,2.4,0.0,419,452,0
L,,267880,0.055,1.028,-0.046,28.3,5.4,-2.9,468,498,0
L,,267941,0.035,1.027,-0.074,37.0,4.4,-3.9,425,383,0
L,,268000,0.014,1.028,-0.108,46.4,5.6,-4.5,331,377,0
L,,268060,0.035,1.041,-0.183,52.1,0.7,-7.2,227,205,0
L,,268121,-0.032,1.205,-0.125,63.8,5.8,-6.7,28,26,0
L,,268180,0.107,1.277,-0.157,98.4,7.2,-3.9,66,47,0
L,,268241,0.218,1.634,0.015,138.4,0.9,-4.4,34,50,0
L,,268300,0.158,2.077,0.659,231.3,101.2,-19.6,39,56,0
L,,268361,-0.015,1.654,0.003,109.1,81.7,-16.0,55,45,0
L,,268420,-0.674,-0.593,-0.784,42.4,79.9,-26.8,42,11,0
L,,268481,0.115,-0.024,0.485,-93.3,36.2,-45.0,13,12,0
L,,268541,0.123,0.218,0.175,-215.6,20.0,-40.3,24,12,0
L,,268630,0.290,1.513,0.147,-312.7,22.7,-51.9,13,11,0
L,,268691,0.387,2.382,-0.778,-290.9,73.6,-70.1,25,15,0
L,,268750,0.549,1.712,-1.397,-225.0,-42.7,-34.3,27,13,0
L,,268810,0.227,1.159,-1.248,122.4,-10.5,1.4,324,85,0
L,,268871,0.484,1.379,-1.208,162.8,-31.3,-1.6,409,394,0
L,,268930,-0.444,0.688,-0.159,100.3,-57.4,-3.7,407,403,0
L,,268991,0.406,1.054,-0.002,68.4,-38.4,-8.6,453,413,0
L,,269050,-0.035,0.997,-0.062,41.0,-5.4,-6.7,442,431,0
L,,269111,0.048,1.025,-0.080,29.9,1.1,-7.4,430,433,0
L,,269200,0.022,0.977,-0.127,29.1,7.7,-9.3,362,331,0
L,,269260,-0.001,0.969,-0.145,30.5,4.4,-11.2,183,102,0
L,,269321,0.004,1.122,-0.137,40.3,26.4,-15.9,138,38,0
L,,269380,0.019,1.181,-0.125,67.1,21.9,-10.2,31,17,0
L,,269441,0.072,1.260,-0.162,102.0,4.9,-10.0,51,23,0
L,,269500,0.086,1.666,0.012,149.8,3.8,-14.4,63,30,0
L,,269560,0.589,1.888,0.628,235.9,99.6,-48.9,54,31,0
L,,269621,-0.045,1.321,0.523,57.7,108.0,-34.3,24,14,0
L,,269680,-0.550,-1.781,-0.669,28.8,124.6,-32.3,53,11,0
L,,269741,0.144,-0.005,0.508,-139.7,-4.6,-72.4,13,7,0
L,,270246,0.187,1.065,0.012,56.0,-30.0,-11.0,401,318,0
L,,270256,0.042,1.045,-0.022,48.5,-26.3,-13.6,450,351,0
L,,270281,-0.024,0.996,0.016,44.9,-10.9,-11.3,408,370,0
L,,270340,0.095,0.970,-0.078,31.8,-2.6,-0.9,483,514,0
L,,270401,-0.013,1.002,-0.028,25.3,4.4,-9.7,401,440,0
L,,270491,-0.002,0.991,-0.067,25.2,6.9,-6.8,414,393,0
L,,270581,-0.006,1.048,-0.132,44.2,3.7,-13.3,251,255,0
L,,270640,-0.095,1.133,-0.095,61.3,16.4,-13.3,112,25,0
L,,270701,0.056,1.145,-0.182,92.2,10.2,-11.2,17,23,0
L,,270760,0.119,1.688,-0.067,136.0,24.4,-26.6,22,27,0
L,,270821,-0.033,2.265,0.619,196.3,118.4,-59.0,53,62,0
L,,270911,0.080,0.626,-0.289,124.1,132.7,-121.2,11,11,0
L,,271000,0.397,0.153,0.407,-75.6,88.6,-81.4,20,11,0
L,,271061,0.496,0.287,0.232,-195.4,21.0,-67.4,35,11,0
L,,271121,0.123,0.949,0.158,-285.1,3.9,-30.9,32,11,0
L,,271180,0.197,1.696,-0.040,-224.0,114.5,-26.0,18,19,0
L,,271241,0.632,1.777,-0.647,-254.0,143.8,-68.1,15,16,0
L,,271300,0.748,1.411,-0.950,-193.6,-20.1,-29.4,17,19,0
L,,271361,0.286,1.240,-1.145,76.4,-44.0,10.2,28,13,0
L,,271420,1.350,1.487,-1.776,198.6,95.9,25.9,525,481,0
L,,271481,-0.152,0.976,0.012,99.5,-82.2,2.4,359,292,0
L,,271541,0.229,0.907,-0.121,89.4,2.3,-0.4,516,591,0
L,,271601,0.034,1.027,-0.023,45.2,-11.1,-9.3,465,502,0
L,,271661,0.030,1.008,-0.037,26.6,15.9,-12.3,566,503,0
L,,271720,-0.061,0.999,-0.038,14.8,7.2,-16.7,511,464,0
L,,271824,-0.076,1.024,-0.038,31.7,10.9,-8.8,458,481,0
L,,271840,-0.019,1.036,-0.050,36.1,15.2,-9.1,407,372,0
L,,271901,-0.037,1.073,-0.075,53.2,14.9,-14.7,196,168,0
L,,271960,-0.003,1.151,-0.122,71.0,24.2,-13.7,40,45,0
L,,272021,-0.012,1.217,-0.135,101.2,24.0,-14.7,37,20,0
L,,272081,0.132,1.797,0.066,139.3,27.3,-26.9,55,28,0
L,,272141,0.413,1.707,0.496,216.9,132.9,-57.2,52,43,0
L,,272201,-0.024,1.551,-0.289,140.1,133.1,-58.3,31,18,0
L,,272260,-0.126,0.411,-0.324,38.1,114.5,-83.9,34,15,0
L,,272320,0.070,0.082,0.477,-122.6,96.5,-71.4,36,12,0
L,,272380,0.279,0.348,0.256,-230.6,84.3,-64.4,45,11,0
L,,272441,0.220,1.333,0.161,-286.5,79.9,-69.7,21,15,0
L,,272500,0.500,2.122,-0.432,-282.1,97.0,-61.6,17,17,0
L,,272561,0.702,1.861,-0.972,-254.7,37.5,-43.1,20,17,0
L,,272621,0.510,1.781,-1.353,56.5,52.2,3.9,36,11,0
L,,272680,0.715,1.026,1.886,63.0,-125.7,10.7,452,123,0
L,,272741,-0.129,1.339,-0.050,100.6,-60.5,-7.9,497,135,0
L,,272831,0.089,0.919,-0.086,68.4,0.0,2.7,460,489,0
L,,272891,0.011,1.031,-0.023,39.2,-9.6,1.4,430,487,0
L,,272951,0.090,1.002,-0.062,26.9,2.5,1.8,437,487,0
L,,273041,0.056,0.986,-0.023,35.1,10.5,-2.4,428,400,0
L,,273545,0.330,0.128,0.585,-72.9,63.4,-64.6,32,10,0
L,,273555,0.424,0.102,0.531,-94.9,51.3,-60.2,29,8,0
L,,273581,0.276,0.105,0.352,-157.2,22.1,-55.3,34,11,0
L,,273641,0.198,0.499,0.262,-262.6,0.0,-42.0,66,15,0
L,,273701,0.368,1.414,0.236,-327.8,54.2,-47.5,31,18,0
L,,273760,0.492,2.352,-0.609,-293.5,83.3,-51.6,21,14,0
L,,273821,0.288,1.774,-1.521,-216.3,-63.7,-41.3,30,13,0
L,,273880,-0.098,1.282,-0.832,111.7,-21.3,-7.2,264,111,0
L,,273941,0.396,1.435,-1.202,146.1,-73.0,4.6,389,480,0
L,,274000,-0.459,0.680,-0.180,100.1,-68.2,-1.3,441,480,0
L,,274061,0.386,0.952,0.041,64.6,-31.5,-8.9,472,514,0
L,,274121,-0.066,0.958,-0.044,39.6,-0.7,-11.4,515,576,0
L,,274181,0.057,1.021,-0.049,22.4,2.1,-8.9,386,306,0
L,,274241,0.009,0.996,-0.072,25.5,0.7,-11.2,416,330,0
L,,274300,-0.017,1.014,-0.083,32.4,4.1,-12.2,451,503,0
L,,274361,0.040,1.038,-0.132,40.7,4.6,-18.2,329,321,0
L,,274419,-0.057,1.216,-0.101,64.1,13.6,-17.4,103,61,0
L,,274510,0.028,1.455,-0.089,124.8,17.5,-14.6,22,28,0
L,,274571,0.252,2.005,0.386,173.4,33.0,-27.7,32,21,0
L,,274630,0.117,1.223,0.078,269.6,179.5,-25.1,46,34,0
L,,274691,-0.112,0.744,0.403,183.0,139.0,-32.9,17,15,0
L,,274750,0.264,0.194,0.547,-76.3,89.6,-72.6,46,32,0
L,,274840,0.306,0.357,0.215,-228.5,47.6,-53.2,31,13,0
L,,274901,0.214,1.267,0.211,-291.7,57.3,-44.0,21,14,0
L,,274991,0.731,2.030,-0.923,-303.5,84.4,-63.9,18,15,0
L,,275050,0.339,1.781,-2.257,-194.0,-34.6,-16.9,27,14,0
L,,275111,0.355,0.818,0.063,108.4,20.3,2.3,419,94,0
L,,275213,-0.366,0.928,0.055,90.5,-70.6,-5.2,489,403,0
L,,275231,-0.160,1.010,-0.066,95.0,-38.0,15.6,349,386,0
L,,275321,-0.017,1.001,-0.005,39.1,-10.8,-11.5,437,461,0
L,,275380,0.025,1.018,-0.026,28.8,5.1,-3.6,327,348,0
L,,275440,-0.027,0.990,-0.016,33.4,6.5,-2.2,398,411,0
L,,275500,-0.022,1.001,-0.020,41.8,2.0,1.4,302,347,0
L,,275561,0.041,1.024,-0.132,44.2,4.3,-8.2,296,201,0
L,,275621,0.012,1.037,-0.168,49.7,5.8,-12.3,90,32,0
L,,275710,0.037,1.265,-0.131,98.2,14.9,-11.7,26,16,0
L,,275771,0.002,1.681,-0.007,147.2,11.9,-14.4,34,17,0
L,,275831,0.012,2.433,0.798,214.9,93.4,-40.9,31,20,0
L,,275891,-0.008,0.848,-0.496,157.8,159.7,-34.9,23,27,0
L,,275981,0.176,0.163,0.252,-42.2,95.5,-72.1,44,14,0
L,,276041,0.305,0.033,0.288,-168.5,-17.9,-58.1,22,9,0
L,,276101,0.076,0.487,0.195,-273.9,-24.7,-29.6,41,11,0
L,,276191,0.395,2.005,-0.214,-280.5,68.8,-46.0,18,14,0
L,,276250,0.410,1.889,-0.698,-250.0,68.5,-48.9,20,13,0
L,,276311,0.305,1.588,-1.577,-87.6,98.1,-21.3,27,12,0
L,,276371,0.558,0.889,-1.065,93.0,-24.0,4.6,93,35,0
L,,277085,0.223,1.940,0.236,164.0,32.2,-29.1,29,26,0
L,,277095,0.308,2.020,0.382,171.2,40.4,-36.4,40,28,0
L,,277121,0.046,2.176,0.815,219.8,126.6,-64.8,59,44,0
L,,277181,-0.006,0.811,-0.284,136.1,170.9,-52.9,23,15,0
L,,277241,-0.121,-1.299,0.014,7.4,173.0,-81.1,36,17,0
L,,277301,0.549,0.139,0.528,-123.8,57.1,-77.6,29,27,0
L,,277361,0.466,0.352,0.221,-230.8,5.6,-56.6,42,16,0
L,,277451,0.475,1.507,0.185,-302.5,95.2,-49.6,14,17,0
L,,277511,0.872,2.244,-0.710,-321.7,135.3,-43.4,13,19,0
L,,277601,0.334,1.442,-1.492,116.6,50.8,12.7,24,16,0
L,,277661,0.819,0.906,2.109,50.4,-8.6,18.5,432,171,0
L,,277721,-0.548,1.489,-0.585,117.8,-86.8,0.2,562,229,0
L,,277781,-0.207,0.944,-0.175,96.3,0.4,4.4,480,490,0
L,,277841,0.093,0.987,-0.052,45.2,-26.1,-3.4,500,420,0
L,,277901,-0.041,0.940,-0.057,35.4,7.2,-0.9,551,512,0
L,,277960,0.013,1.021,-0.068,22.9,6.6,-6.7,509,389,0
L,,278021,-0.024,1.010,-0.075,24.9,10.6,-6.2,425,304,0
L,,278081,0.035,1.012,-0.117,38.2,10.1,-6.3,329,345,0
L,,278141,0.003,1.043,-0.153,43.7,5.7,-8.4,227,155,0
L,,278201,0.072,1.184,-0.147,58.1,18.7,-12.8,39,23,0
L,,278261,0.063,1.238,-0.142,98.9,11.9,-12.8,26,16,0
L,,278321,0.058,1.587,0.027,145.8,23.5,-15.7,36,22,0
L,,278381,0.027,2.191,0.783,213.5,102.4,-40.3,58,28,0
L,,278441,-0.136,0.972,-0.450,165.2,139.0,-17.9,33,14,0
L,,278500,-0.234,0.482,0.026,27.2,112.0,-43.8,57,21,0
L,,278561,0.251,-0.015,0.296,-94.1,7.4,-76.1,22,13,0
L,,278651,0.217,0.520,0.213,-254.8,-4.9,-37.0,38,14,0
L,,278710,0.185,1.491,0.130,-322.2,27.4,-41.0,29,18,0
L,,278801,0.699,1.970,-0.859,-301.9,54.9,-45.0,24,14,0
L,,278861,0.417,1.674,-2.480,-123.9,7.5,-11.7,32,10,0
L,,278921,-0.088,1.073,0.345,86.7,-17.8,-4.7,339,234,0
L,,278981,-0.129,1.348,0.132,112.7,-118.6,2.3,542,601,0
L,,279041,-0.216,0.984,-0.104,101.0,-41.4,6.3,398,457,0
L,,279100,0.183,1.026,-0.038,56.7,-25.4,-9.5,465,538,0
L,,279161,-0.054,0.966,-0.056,31.6,6.7,-10.9,456,411,0
L,,279221,0.040,1.004,-0.086,15.4,0.0,-16.4,439,395,0
L,,279281,-0.022,1.014,-0.069,25.5,9.1,-14.0,404,394,0
L,,279341,0.003,1.036,-0.114,42.0,11.8,-9.7,313,298,0
L,,279401,-0.024,1.072,-0.138,53.5,14.9,-12.7,178,151,0
L,,279460,-0.071,1.237,-0.120,75.4,22.5,-9.8,31,18,0
L,,279551,0.028,1.815,0.045,160.7,15.7,-14.7,29,17,0
L,,279611,0.154,2.127,0.869,235.2,102.0,-44.2,92,29,0
L,,279671,0.097,0.990,-0.333,154.6,100.3,-30.3,23,15,0
L,,279731,-0.750,-1.653,-0.506,57.8,113.8,-36.8,44,12,0
L,,279791,0.452,-0.031,0.690,-114.7,15.0,-52.1,21,12,0
L,,279851,0.320,0.304,0.153,-224.5,-1.9,-40.9,31,10,0
L,,280356,0.063,1.030,-0.012,36.9,-21.2,-9.9,389,447,0
L,,280366,-0.009,1.050,-0.008,34.2,-13.5,-11.4,379,434,0
L,,280391,-0.013,0.955,-0.041,32.1,7.9,-10.1,503,532,0
L,,280451,-0.010,1.020,-0.017,16.8,7.9,-7.3,486,436,0
L,,280511,-0.007,1.007,-0.033,27.6,12.1,-5.3,403,274,0
L,,280571,0.009,1.025,-0.056,40.5,10.7,-6.0,408,263,0
L,,280631,0.032,1.013,-0.120,52.0,8.2,-9.7,353,317,0
L,,280691,-0.084,1.116,-0.125,60.4,16.4,-13.3,169,44,0
L,,280751,0.110,1.231,-0.142,83.6,11.2,-12.1,28,13,0
L,,280811,-0.006,1.967,0.100,144.8,5.7,-18.0,36,16,0
L,,280871,0.146,2.373,0.915,225.4,95.4,-44.5,57,38,0
L,,280931,0.222,1.199,-0.467,129.7,126.6,-64.6,38,14,0
L,,280991,-0.108,0.527,-0.078,42.4,142.1,-62.9,28,13,0
L,,281051,0.449,0.062,0.463,-107.9,60.6,-57.1,63,15,0
L,,281111,0.345,0.336,0.218,-228.6,5.5,-34.9,91,18,0
L,,281171,0.099,1.188,0.187,-285.6,30.8,-28.7,30,15,0
L,,281231,0.433,1.882,-0.281,-294.2,86.8,-40.3,19,12,0
L,,281291,0.584,2.020,-0.891,-262.5,91.9,-47.3,17,12,0
L,,281351,0.776,1.582,-2.125,8.1,54.1,4.6,31,11,0
L,,281411,0.695,1.302,2.865,67.3,-22.1,3.5,438,423,0
L,,281471,0.138,1.112,0.027,120.2,-73.0,1.4,519,592,0
L,,281531,0.406,0.942,-0.151,80.8,-16.1,-8.9,481,554,0
L,,281591,-0.022,1.029,-0.040,37.7,-8.9,-11.3,508,581,0
L,,281651,-0.066,0.941,-0.047,17.0,9.8,-8.8,420,472,0
L,,281711,-0.038,1.008,-0.003,14.9,13.5,-8.4,386,322,0
L,,281771,-0.032,1.008,-0.045,24.7,18.0,-8.2,425,375,0
L,,281831,0.019,1.012,-0.073,38.1,16.2,-9.3,389,282,0
L,,281891,-0.057,1.051,-0.125,45.7,22.2,-15.8,213,290,0
L,,281981,-0.050,1.182,-0.102,70.7,27.3,-15.2,34,18,0
L,,282041,-0.133,1.461,-0.024,107.8,32.2,-20.4,40,25,0
L,,282101,0.304,1.845,0.311,158.6,50.1,-33.6,42,23,0
L,,282161,0.278,1.318,-0.180,255.3,161.7,-39.6,65,29,0
L,,282220,0.679,1.134,0.620,178.3,118.3,4.4,20,16,0
L,,282281,0.328,-0.098,0.416,-63.2,16.3,-81.8,22,13,0
L,,282371,0.220,0.348,0.248,-208.9,56.8,-29.5,69,16,0
L,,282431,0.097,1.075,0.224,-291.6,60.0,-29.6,32,12,0
L,,282491,0.319,1.906,-0.156,-290.7,80.5,-49.4,19,10,0
L,,282551,0.499,1.874,-0.535,-266.2,107.6,-57.9,28,10,0
L,,282611,0.388,1.565,-1.753,-106.5,95.1,-24.2,29,11,0
L,,282671,0.596,1.046,-0.970,107.0,-30.3,-1.3,120,20,0
L,,282761,-0.254,1.031,0.349,115.6,-45.0,4.7,547,284,0
L,,282821,-0.214,0.960,-0.140,107.3,-14.2,6.0,446,357,0
L,,282881,0.073,1.068,-0.047,50.6,-14.7,-2.1,481,516,0
L,,282971,-0.037,1.006,-0.061,27.1,10.4,-4.6,541,468,0
L,,283031,-0.009,1.012,-0.045,25.4,16.0,-4.3,464,432,0
L,,283091,-0.024,1.004,-0.083,31.6,13.3,-5.3,443,511,0
L,,283625,0.229,0.177,0.393,-182.2,61.5,-52.8,21,14,0
L,,283635,0.263,0.175,0.280,-190.1,70.7,-49.4,25,11,0
L,,283661,0.359,0.338,0.264,-236.3,59.2,-50.7,44,12,0
L,,283721,0.110,1.157,0.208,-307.0,87.3,-52.2,29,13,0
L,,283811,0.830,2.577,-0.673,-271.4,81.4,-61.1,42,15,0
L,,283872,0.463,1.658,-2.479,-208.6,-30.7,-11.8,36,13,0
L,,283931,1.112,1.095,0.271,150.2,-38.9,12.8,286,197,0
L,,283991,-0.097,1.080,0.083,110.7,-143.6,20.2,452,475,0
L,,284050,0.183,1.110,-0.041,115.8,-4.3,-4.6,400,427,0
L,,284111,0.073,0.988,-0.104,50.0,-16.8,-14.7,415,469,0
L,,284171,0.000,0.961,-0.044,38.5,9.5,-1.4,496,504,0
L,,284231,0.072,1.024,-0.073,35.2,-0.2,-2.5,494,565,0
L,,284291,0.012,0.990,-0.133,35.4,2.7,-6.3,372,349,0
L,,284381,0.036,1.020,-0.166,36.0,1.9,-9.5,163,142,0
L,,284441,0.101,1.084,-0.188,47.9,2.3,-10.3,63,13,0
L,,284501,-0.023,1.274,-0.126,78.6,13.6,-10.5,24,12,0
L,,284561,0.135,1.424,-0.082,128.5,4.7,-4.4,39,17,0
L,,284622,0.085,2.081,0.434,176.5,21.9,-8.6,24,16,0
L,,284681,0.155,1.430,-0.122,274.3,128.2,5.3,62,36,0
L,,284771,0.018,-0.266,-0.374,-12.1,98.7,-12.6,21,23,0
L,,284832,0.222,0.101,0.484,-127.6,36.3,-36.6,39,22,0
L,,284921,0.139,0.734,0.233,-282.3,13.4,-29.4,56,27,0
L,,284981,0.350,1.655,0.101,-320.3,34.3,-56.4,71,23,0
L,,285041,0.336,2.229,-0.778,-319.4,98.4,-56.9,93,29,0
L,,285131,0.627,1.623,-1.770,74.2,-11.9,6.7,89,37,0
L,,285191,1.089,1.687,-0.202,124.3,-65.7,-1.2,487,369,0
L,,285251,-0.132,0.786,0.350,118.5,-81.2,1.8,456,492,0
L,,285311,0.255,0.982,-0.046,77.5,-22.2,-7.1,484,560,0
L,,285372,-0.023,0.994,-0.079,46.4,-2.3,-7.3,455,519,0
L,,285431,0.013,1.002,-0.077,27.3,9.7,-5.3,480,535,0
L,,285491,-0.032,1.009,-0.072,22.8,7.2,-7.6,418,492,0
L,,285551,0.006,1.031,-0.094,33.6,7.0,-6.7,301,361,0
L,,285611,0.025,1.045,-0.146,37.8,2.3,-9.6,294,203,0
L,,285671,-0.032,1.075,-0.152,42.8,9.0,-12.7,147,44,0
L,,285731,0.044,1.257,-0.144,75.0,15.7,-11.2,44,15,0
L,,285791,-0.159,1.679,-0.006,130.3,21.0,-22.6,58,24,0
L,,285851,-0.229,2.206,0.676,191.1,62.7,-60.7,33,22,0
L,,285912,0.175,1.181,0.323,250.2,367.1,-77.7,26,15,0
L,,285971,0.108,0.722,0.251,85.3,232.9,-97.7,41,14,0
L,,286031,0.886,0.131,0.430,-102.2,-41.6,-90.5,96,27,0
L,,286091,0.254,0.231,0.360,-238.0,-99.0,-65.0,139,33,0
L,,286151,0.240,1.149,0.328,-279.0,41.1,-23.3,37,15,0
L,,286211,0.482,1.845,-0.286,-270.2,93.8,-32.6,23,16,0
L,,286301,0.305,1.695,-1.000,-214.9,12.9,-17.8,25,14,0
L,,286361,0.362,1.293,-1.382,87.4,-29.2,16.3,98,29,0
L,,286421,0.956,1.612,-0.567,142.3,-14.9,3.1,433,396,0
L,,286926,0.057,1.144,-0.169,51.8,24.9,-16.8,84,28,0
L,,286936,0.083,1.189,-0.141,56.2,26.3,-16.5,51,19,0
L,,286961,0.049,1.231,-0.151,72.1,29.2,-16.2,53,25,0
L,,287021,-0.041,1.356,-0.043,119.4,30.4,-14.7,33,26,0
L,,287082,0.441,2.293,0.326,174.3,18.9,-28.5,31,18,0
L,,287141,0.099,1.307,-0.069,281.6,139.3,-20.6,35,31,0
L,,287202,0.359,0.740,-0.326,202.9,61.9,12.2,17,8,0
L,,287261,0.160,-0.211,1.378,-149.7,46.0,-2.7,14,16,0
L,,287321,0.516,0.022,0.393,-262.9,65.8,20.3,50,14,0
L,,287381,0.549,1.341,-0.174,-367.9,-38.0,41.0,20,14,0
L,,287484,-1.334,1.901,-2.207,-110.1,-114.6,6.6,23,14,0
L,,287501,-1.166,1.595,-2.112,-34.4,-37.1,-21.4,19,14,0
L,,287561,0.318,0.992,1.016,32.6,-78.5,-16.7,35,8,0
L,,287622,0.193,1.079,-0.153,7.9,-40.1,-19.3,165,67,0
L,,287681,0.123,0.905,-0.069,8.0,-0.4,-24.6,329,291,0
L,,287742,0.265,1.104,-0.028,10.0,6.5,-24.2,366,313,0
L,,287801,0.147,0.971,-0.093,6.7,7.2,-27.4,371,394,0
L,,287891,0.099,1.029,-0.038,0.9,22.1,-6.2,367,380,0
L,,287952,0.080,0.976,-0.052,3.8,16.8,-2.4,337,301,0
L,,288041,0.002,0.983,-0.027,-3.1,10.6,-5.6,368,313,0
L,,288101,0.123,0.966,-0.077,-9.8,15.4,-2.7,371,326,0
L,,288162,0.005,1.039,0.044,-8.8,6.4,-5.1,335,357,0
L,,288221,0.102,1.041,0.008,5.5,6.6,1.2,373,427,0
L,,288282,0.020,0.970,-0.050,5.7,1.4,1.8,388,460,0
L,,288341,0.077,1.011,-0.040,4.0,-9.1,2.6,413,466,0
L,,288401,0.040,0.967,-0.077,-2.3,-10.9,6.5,401,457,0
L,,288492,0.117,0.959,-0.074,3.7,-32.9,-1.1,437,523,0
L,,288551,0.085,0.995,-0.002,8.1,-30.1,0.2,514,432,0
L,,288611,0.036,0.965,-0.083,-8.5,-43.9,-17.5,531,411,0
L,,288671,0.046,1.093,0.090,-1.9,-5.3,-13.5,498,546,0
L,,288731,-0.145,1.054,-0.019,12.8,4.4,-10.7,463,483,0
L,,288791,0.071,1.027,0.027,17.5,5.3,-10.3,468,322,0
L,,288851,-0.064,1.013,-0.106,10.9,26.8,-5.1,657,220,0
L,,288912,-0.050,1.007,-0.102,17.0,33.8,-10.7,577,465,0
L,,289001,-0.020,1.033,-0.074,21.8,21.8,-16.5,353,380,0
L,,289061,-0.057,0.995,-0.148,23.5,38.0,-18.1,268,299,0
L,,289122,-0.025,1.077,-0.129,31.2,34.8,-18.1,156,178,0
L,,289211,-0.055,1.160,-0.104,69.3,54.9,-18.2,46,28,0
L,,289272,0.351,1.564,0.000,114.0,-1.8,-22.5,81,38,0
L,,289332,0.381,1.806,0.425,182.4,4.8,-44.2,42,20,0
L,,289391,0.210,0.917,-1.136,175.7,72.2,-15.6,46,34,0
L,,289452,-0.986,-0.930,-0.403,33.2,136.6,-65.1,45,14,0
L,,289511,0.157,0.037,0.282,-76.2,129.5,-3.0,52,14,0
L,,289572,0.170,0.258,0.430,-200.9,147.9,1.5,47,13,0
L,,289631,0.812,1.184,-0.452,-219.1,130.9,-7.9,40,11,0
L,,289691,0.679,1.464,-0.835,-187.1,20.8,-17.6,29,10,0
L,,290466,0.150,1.000,-0.022,-3.2,-3.1,-11.3,451,498,0
L,,290476,0.127,1.007,-0.010,-1.3,-2.1,-10.9,454,500,0
L,,290501,0.092,1.017,0.015,3.5,1.6,-8.4,459,505,0
L,,290561,0.125,0.989,-0.019,14.9,-3.2,-2.7,472,513,0
L,,290665,0.113,1.016,-0.059,4.9,-6.3,-7.2,487,485,0
L,,290681,0.094,0.992,-0.047,3.1,-3.6,-8.1,481,488,0
L,,290742,0.076,0.997,-0.039,4.7,2.2,-9.6,478,445,0
L,,290832,0.033,0.988,-0.047,6.5,0.2,0.0,460,475,0
L,,290921,0.107,1.002,-0.077,3.1,-1.2,-3.3,457,505,0
L,,291011,0.066,1.000,-0.057,4.9,2.1,-0.8,459,496,0
L,,291072,0.037,0.982,-0.063,3.9,1.3,0.0,453,495,0
L,,291131,0.084,0.999,-0.087,8.5,1.1,2.3,459,500,0
L,,291191,0.033,0.992,-0.066,9.2,-4.1,2.3,466,481,0
L,,291251,0.084,1.005,-0.098,11.7,-1.5,0.9,460,503,0
L,,291311,0.040,1.013,-0.105,13.4,4.2,1.7,453,504,0
L,,291372,0.030,1.019,-0.087,18.8,4.9,2.4,428,495,0
L,,291431,0.031,1.019,-0.124,19.1,6.9,-1.6,357,358,0
L,,291492,0.062,1.047,-0.144,29.3,19.3,-1.6,332,399,0
L,,291551,0.000,1.086,-0.113,45.9,25.9,8.6,208,148,0
L,,291612,0.078,1.294,-0.155,68.5,19.6,20.9,39,14,0
L,,291671,0.443,1.236,-0.145,93.1,-3.5,5.1,50,16,0
L,,291731,0.336,1.365,0.091,134.0,5.5,-12.8,70,47,0
L,,291791,0.162,1.142,-0.604,138.8,-48.2,-27.1,67,25,0
L,,291851,0.091,0.460,0.043,99.6,96.3,-11.4,28,10,0
L,,291912,0.448,0.124,0.277,-32.6,100.5,-14.4,49,17,0
L,,291971,0.542,0.343,0.061,-147.2,33.0,4.6,42,20,0
L,,292061,0.443,1.204,-0.156,-176.1,180.9,9.5,34,15,0
L,,292121,0.604,1.430,-0.302,-179.0,140.1,-17.6,29,15,0
L,,292181,0.251,1.449,-0.880,-124.2,101.3,-16.2,27,16,0
L,,292242,0.062,1.241,-0.911,-17.1,112.5,-17.6,16,16,0
L,,292301,0.511,1.202,-0.782,87.5,78.6,-11.4,22,12,0
L,,292362,1.244,1.200,3.093,-95.0,-90.0,4.4,266,197,0
L,,292452,0.039,0.964,-0.294,26.0,-13.1,-39.5,378,375,0
L,,292511,0.237,1.032,0.054,9.8,0.5,-49.9,458,335,0
L,,292572,0.043,0.993,-0.034,6.3,31.5,-30.4,509,423,0
L,,292631,0.010,1.016,0.019,17.2,38.4,-12.6,482,475,0
L,,292692,0.010,1.015,0.003,33.4,40.3,-7.0,454,469,0
L,,292751,0.109,1.022,-0.122,39.4,53.6,-3.9,250,224,0
L,,292811,-0.055,0.990,-0.092,30.0,34.0,-7.4,211,229,0
L,,292872,0.057,1.000,-0.131,36.4,24.0,-5.1,108,115,0
L,,292931,0.063,1.058,-0.119,55.6,25.2,-1.8,28,20,0
L,,292992,0.042,1.135,-0.169,73.2,18.6,-1.7,37,18,0
L,,293051,0.163,1.275,-0.118,109.2,11.2,-3.7,40,15,0
L,,293141,0.091,2.033,0.488,193.5,-10.9,-20.0,36,18,0
L,,293202,0.049,1.342,-0.393,210.0,85.5,9.6,37,21,0
L,,293261,0.026,1.083,0.128,79.4,73.6,5.0,21,10,0
L,,293766,0.403,1.843,-1.904,178.0,-65.7,12.6,546,525,0
L,,293776,-0.529,1.953,-0.151,137.4,-58.3,-28.7,462,414,0
L,,293801,-0.043,1.280,-0.096,127.0,-84.9,-11.5,523,465,0
L,,293862,0.478,0.905,-0.142,77.9,-26.4,-9.5,420,487,0
L,,293921,0.017,1.060,-0.054,52.0,-10.0,-5.3,496,560,0
L,,293982,0.037,0.960,-0.101,30.7,6.9,-4.9,494,548,0
L,,294041,0.029,0.978,-0.086,21.7,11.6,-10.7,495,336,0
L,,294101,0.040,1.024,-0.092,28.3,3.0,-10.0,402,440,0
L,,294162,0.034,0.988,-0.154,33.4,7.0,-10.5,353,200,0
L,,294221,-0.009,1.063,-0.153,46.0,8.2,-11.0,224,102,0
L,,294282,0.006,1.139,-0.145,59.0,13.1,-8.8,54,14,0
L,,294341,0.020,1.286,-0.167,94.5,13.1,-8.4,45,24,0
L,,294402,0.157,1.793,-0.025,143.0,0.9,-14.6,32,17,0
L,,294461,-0.221,2.092,0.773,209.9,128.1,-62.0,38,21,0
L,,294522,0.094,1.450,-0.117,143.2,204.8,-64.8,15,15,0
L,,294582,-0.112,-0.074,-0.404,60.2,153.4,-67.4,33,14,0
L,,294641,0.515,0.109,0.337,-108.7,18.3,-90.3,41,10,0
L,,294702,0.366,0.423,0.243,-223.1,-42.0,-73.0,70,14,0
L,,294791,0.417,1.589,-0.006,-260.5,67.9,-50.8,23,13,0
L,,294851,0.677,1.729,-0.657,-255.2,109.4,-56.7,29,13,0
L,,294912,0.447,1.557,-0.858,-203.6,43.8,-25.9,31,14,0
L,,294971,0.588,1.279,-1.359,48.0,8.5,7.0,29,11,0
L,,295075,-0.480,1.537,0.151,135.6,-74.2,11.9,437,458,0
L,,295122,-0.370,0.674,-0.150,89.7,-77.2,18.2,433,503,0
L,,295181,0.154,1.011,-0.020,61.5,-13.3,-1.8,433,500,0
L,,295241,-0.047,0.970,-0.060,41.9,6.7,-3.8,490,562,0
L,,295301,-0.005,1.031,-0.043,24.2,12.8,-8.7,567,649,0
L,,295362,-0.044,0.990,-0.045,29.1,14.2,-5.7,522,609,0
L,,295421,-0.015,1.012,-0.061,34.0,12.5,-4.6,471,583,0
L,,295482,0.006,1.022,-0.118,43.0,10.9,-7.7,404,460,0
L,,295541,-0.096,1.066,-0.167,46.7,12.8,-11.2,259,73,0
L,,295601,0.048,1.201,-0.169,65.3,23.3,-12.8,51,13,0
L,,295662,-0.005,1.425,-0.111,107.1,22.1,-17.7,44,21,0
L,,295721,0.095,1.990,0.207,161.6,14.2,-41.5,23,17,0
L,,295782,0.121,1.475,0.418,252.0,278.2,-90.3,30,19,0
L,,295872,-0.139,-0.117,0.298,32.9,170.5,-90.2,45,17,0
L,,295931,0.875,0.153,0.461,-91.9,45.1,-89.8,75,19,0
L,,295992,0.384,0.352,0.209,-204.8,-44.5,-68.8,72,21,0
L,,296050,0.237,1.111,0.203,-267.4,44.0,-38.5,68,20,0
L,,296112,0.475,1.677,-0.086,-251.2,136.4,-44.9,27,31,0
L,,296202,0.784,1.603,-0.846,-224.2,49.9,-23.5,33,23,0
L,,296261,0.403,1.359,-1.644,-38.1,-18.6,0.9,33,13,0
L,,296352,1.478,1.521,-1.685,64.5,-28.0,-11.1,387,450,0
L,,296412,-0.049,0.905,0.093,99.6,-41.3,-4.6,393,451,0
L,,296471,0.218,0.911,-0.023,88.6,-1.8,3.2,450,514,0
L,,296532,-0.035,1.013,-0.014,47.2,-10.5,-8.8,521,552,0
L,,297037,0.205,2.116,0.448,179.9,30.2,-35.4,39,23,0
L,,297047,0.147,2.227,0.588,188.3,55.6,-46.9,38,23,0
L,,297071,0.136,1.697,0.678,249.6,173.5,-62.2,30,29,0
L,,297162,-0.695,0.052,-0.314,126.2,100.5,-38.2,19,14,0
L,,297251,0.269,0.175,0.409,-142.5,43.8,-56.6,38,28,0
L,,297312,0.310,0.446,0.206,-252.7,5.8,-32.5,42,17,0
L,,297372,0.135,1.435,0.143,-294.4,42.9,-24.4,32,19,0
L,,297431,0.389,2.118,-0.305,-274.7,94.7,-38.6,72,23,0
L,,297492,0.693,1.756,-0.984,-246.8,21.3,-32.7,52,33,0
L,,297551,0.436,1.563,-1.744,-20.3,-2.8,1.3,32,23,0
L,,297612,0.488,1.434,1.854,93.5,-24.5,26.2,409,461,0
L,,297702,-0.259,0.926,0.058,115.0,-78.8,-6.9,537,573,0
L,,297761,0.310,1.049,-0.020,71.6,-18.6,-4.9,446,514,0
L,,297822,-0.035,0.947,-0.076,46.4,0.7,-5.1,503,524,0
L,,297881,0.051,0.999,-0.077,25.3,7.9,-4.2,446,447,0
L,,297942,0.002,0.967,-0.085,24.9,16.7,-6.8,469,491,0
L,,298001,0.048,0.987,-0.116,34.7,10.1,-6.3,482,201,0
L,,298062,0.034,1.005,-0.139,36.6,5.6,-6.5,385,145,0
L,,298122,-0.036,1.105,-0.115,52.9,3.6,-4.4,188,85,0
L,,298182,0.030,1.287,-0.162,80.5,17.4,1.3,63,15,0
L,,298285,0.154,1.780,0.052,150.9,-14.8,-2.1,35,20,0
L,,298301,0.092,1.936,0.284,161.7,-2.0,-9.3,40,21,0
L,,298362,-0.126,1.393,-0.071,255.5,177.3,-22.8,46,32,0
L,,298421,0.288,0.322,0.097,109.7,88.2,-24.5,22,13,0
L,,298482,-0.051,0.386,-0.120,-34.0,90.0,-35.9,48,26,0
L,,298541,0.146,0.147,0.186,-154.4,-12.2,-43.8,71,20,0
L,,298631,-0.015,0.842,0.278,-267.4,-1.6,-35.2,68,17,0
L,,298692,0.499,1.762,-0.211,-268.1,40.6,-44.5,54,23,0
L,,298751,0.628,1.730,-0.995,-257.3,64.8,-48.8,66,33,0
L,,298812,0.437,1.399,-1.236,-154.9,-35.4,-20.9,39,37,0
L,,298872,0.175,1.054,-0.981,73.1,-38.4,1.5,125,60,0
L,,298932,0.604,1.334,-0.496,113.1,-28.4,6.1,359,419,0
L,,298992,-0.057,0.952,-0.202,99.6,-46.4,-2.3,434,505,0
L,,299095,0.075,0.875,-0.006,45.7,-18.9,-10.5,473,528,0
L,,299112,0.043,0.951,-0.088,42.3,-10.2,-9.7,492,527,0
L,,299171,0.012,0.979,-0.057,24.4,6.9,-3.0,508,425,0
L,,299232,0.009,0.980,-0.063,20.2,12.8,-5.1,480,484,0
L,,299322,0.056,1.035,-0.104,28.5,8.7,-5.4,442,457,0
L,,299412,0.003,1.046,-0.113,44.3,3.1,-5.1,413,320,0
L,,299501,-0.031,1.117,-0.174,61.6,7.0,0.6,100,31,0
L,,299562,0.008,1.289,-0.190,89.6,1.0,4.4,31,13,0
L,,299622,0.155,1.517,-0.100,121.5,-4.9,-2.4,33,20,0
L,,299682,0.147,1.860,0.560,178.0,40.6,-23.3,48,29,0
L,,299742,-0.043,1.096,-0.637,192.6,128.8,3.9,29,24,0
L,,299845,0.154,0.202,0.300,-38.7,26.8,-36.9,59,35,0
L,,299862,0.053,0.099,0.480,-80.1,15.8,-38.5,57,32,0
L,,300577,0.050,1.009,-0.053,23.5,3.7,-10.5,550,531,0
L,,300587,0.049,1.015,-0.032,21.9,3.8,-11.5,548,545,0
L,,300642,-0.014,0.997,-0.056,18.4,12.9,-15.1,525,500,0
L,,300702,-0.044,1.017,-0.072,23.5,14.9,-12.0,483,448,0
L,,300762,0.010,1.043,-0.078,37.3,16.2,-15.4,393,289,0
L,,300822,-0.159,1.066,-0.071,54.6,27.7,-19.0,239,69,0
L,,300881,0.010,1.119,-0.134,63.3,15.9,-15.4,33,16,0
L,,300942,-0.076,1.228,-0.168,88.7,10.0,-21.3,23,13,0
L,,301001,0.113,1.533,-0.091,125.6,16.3,-34.5,19,20,0
L,,301105,0.087,1.079,-0.086,236.7,230.8,-59.4,44,37,0
L,,301122,-0.066,0.849,-0.563,158.0,231.1,-53.6,36,28,0
L,,301182,-0.582,-0.015,-0.070,97.3,162.4,-56.0,14,9,0
L,,301242,0.466,0.122,0.620,-113.7,18.2,-96.8,26,14,0
L,,301302,0.417,0.255,0.188,-196.0,14.8,-64.5,76,15,0
L,,301362,0.255,0.975,0.347,-265.2,53.5,-30.9,56,36,0
L,,301421,0.511,1.547,0.080,-237.7,150.3,-22.3,43,21,0
L,,301482,0.876,1.676,-0.427,-255.7,161.3,-51.5,48,21,0
L,,301541,0.565,1.568,-0.798,-207.6,4.0,-9.8,47,28,0
L,,301602,0.194,1.359,-1.062,56.9,49.1,26.6,52,18,0
L,,301662,-0.191,1.173,0.547,74.8,48.5,11.4,369,365,0
L,,301722,-0.206,1.401,-0.162,118.8,-85.3,13.2,514,586,0
L,,301782,-0.162,1.073,-0.061,76.3,-24.7,9.2,551,634,0
L,,301842,0.152,1.046,0.169,63.2,-24.7,-4.2,545,623,0
L,,301902,-0.029,0.977,-0.085,46.5,2.0,-6.0,527,596,0
L,,301961,0.050,1.018,-0.072,27.7,11.9,-9.8,491,559,0
L,,302052,0.028,0.996,-0.101,25.9,11.6,-7.6,489,394,0
L,,302112,-0.056,1.034,-0.058,37.9,9.3,-9.9,405,473,0
L,,302171,-0.004,0.990,-0.181,42.2,16.6,-14.8,259,182,0
L,,302232,-0.088,1.071,-0.149,49.9,17.3,-13.7,126,33,0
L,,302291,0.043,1.202,-0.176,70.6,15.7,-12.6,41,18,0
L,,302352,-0.169,1.495,-0.107,114.2,21.4,-24.3,37,22,0
L,,302412,0.199,1.900,0.233,170.0,20.5,-25.8,40,26,0
L,,302472,0.335,1.681,0.282,265.5,232.9,-71.6,40,19,0
L,,302532,0.427,0.670,0.133,208.4,143.5,-69.6,12,13,0
L,,302592,0.213,0.451,-0.018,-60.2,126.9,-52.9,49,26,0
L,,302652,0.449,0.116,0.388,-181.4,-6.3,-59.9,60,26,0
L,,302711,0.270,0.506,0.228,-279.8,4.6,-39.4,77,26,0
L,,302772,0.436,1.580,0.171,-301.0,90.0,-46.8,44,26,0
L,,302832,0.525,2.117,-0.702,-276.9,167.2,-69.7,59,29,0
L,,302892,0.652,1.741,-1.196,-237.8,-55.0,-27.7,82,32,0
L,,302952,0.187,1.333,-1.362,68.0,-23.1,4.7,79,34,0
L,,303012,0.787,1.107,2.236,104.4,57.3,20.3,462,298,0
L,,303072,-0.295,1.195,-0.635,118.4,-64.8,-8.2,406,391,0
L,,303132,0.153,1.005,-0.086,82.6,-7.6,-1.8,431,483,0
L,,303222,-0.038,0.996,-0.050,36.7,8.4,-5.9,419,474,0
L,,303282,-0.018,1.009,-0.030,22.3,9.3,-4.5,463,458,0
L,,303787,0.115,1.628,-0.122,257.0,71.1,-1.7,67,52,0
L,,303797,0.211,1.567,-0.338,249.2,68.3,19.9,75,55,0
L,,303822,-0.001,1.485,-0.112,122.5,52.7,1.1,48,26,0
L,,303882,-0.562,0.234,-0.581,37.8,40.8,-5.6,39,12,0
L,,303942,0.075,0.023,0.393,-99.2,16.8,-1.8,48,19,0
L,,304001,0.045,0.195,0.134,-218.7,1.7,1.2,62,17,0
L,,304062,-0.164,1.259,0.198,-301.9,-9.4,-5.0,36,18,0
L,,304122,-0.244,1.932,-0.236,-292.1,23.8,-38.5,18,18,0
L,,304182,0.585,1.674,-0.708,-267.4,109.9,-54.3,28,18,0
L,,304272,0.695,1.356,-1.703,-80.9,-54.2,-18.1,28,20,0
L,,304332,-0.052,1.144,-0.731,101.4,-90.5,-7.3,352,177,0
L,,304391,0.049,1.511,-0.548,154.0,-58.5,5.3,488,465,0
L,,304452,-0.147,0.947,0.138,115.3,-66.1,-12.3,542,626,0
L,,304512,0.208,1.025,-0.049,59.3,-29.6,-5.8,486,563,0
L,,304572,-0.004,0.996,-0.085,38.5,4.7,-8.4,459,490,0
L,,304632,0.047,1.023,-0.054,20.7,5.1,-7.9,367,497,0
L,,304722,0.077,1.031,-0.055,37.1,6.6,-6.3,343,257,0
L,,304782,0.062,1.017,-0.165,42.1,5.8,-9.0,187,74,0
L,,304842,0.056,1.110,-0.109,53.2,6.4,-7.2,80,24,0
L,,304902,0.119,1.196,-0.101,84.9,2.3,1.1,27,18,0
L,,304962,0.057,1.287,-0.101,122.3,-9.5,3.2,28,22,0
L,,305022,0.122,1.939,0.206,173.3,-2.1,-7.6,34,22,0
L,,305082,0.130,1.496,0.174,263.0,159.0,-26.1,32,27,0
L,,305142,-0.089,0.532,-0.193,130.1,79.1,-9.6,16,10,0
L,,305202,0.150,0.134,0.511,-34.8,96.0,-51.2,42,13,0
L,,305262,0.164,0.040,0.182,-159.3,-11.8,-60.1,36,13,0
L,,305322,0.189,0.603,0.204,-258.8,-25.2,-48.3,42,13,0
L,,305382,0.354,1.594,-0.003,-252.0,40.1,-41.3,19,14,0
L,,305442,0.447,1.897,-0.696,-257.2,77.8,-56.5,23,12,0
L,,305502,0.427,1.564,-0.710,-219.1,17.9,-27.7,25,11,0
L,,305562,0.250,1.409,-1.356,-33.8,45.4,-8.9,24,13,0
L,,305622,0.325,1.098,-0.924,95.4,-42.8,3.0,224,137,0
L,,305712,-0.338,1.183,-0.356,111.5,-42.4,-5.6,411,445,0
L,,305802,0.096,1.029,-0.096,54.9,-24.3,-2.0,512,564,0
L,,305862,0.000,0.980,-0.105,36.3,9.6,-7.1,450,474,0
L,,305922,-0.054,0.999,-0.084,14.6,5.7,-10.4,442,326,0
L,,305982,-0.031,1.016,-0.070,22.6,15.6,-13.7,420,183,0
L,,306042,-0.052,0.982,-0.085,31.3,18.6,-10.3,283,69,0
L,,306132,0.043,1.034,-0.176,50.4,14.0,-13.5,66,22,0
L,,306192,-0.033,1.119,-0.174,61.3,14.5,-12.8,43,15,0
L,,306252,-0.025,1.239,-0.158,91.2,13.4,-13.1,28,14,0
L,,306312,0.129,1.667,-0.029,134.1,13.7,-21.7,28,25,0
L,,306372,0.093,2.081,0.583,211.8,114.1,-54.4,33,17,0
L,,306432,0.118,1.141,-0.612,146.2,136.2,-50.4,31,18,0
L,,306492,-0.127,-0.083,-0.296,73.9,178.2,-49.9,25,13,0
L,,306552,0.296,0.146,0.447,-96.6,60.4,-71.2,13,9,0
L,,307056,-0.429,1.064,-0.229,119.2,-20.8,14.7,588,463,0
L,,307066,-0.087,1.036,0.004,113.9,0.9,12.8,586,472,0
L,,307092,0.371,0.944,-0.041,75.5,-8.8,-0.4,575,642,0
L,,307152,-0.072,0.971,-0.081,41.7,6.2,-2.2,562,642,0
L,,307242,-0.002,1.034,-0.050,20.1,15.8,-4.8,416,385,0
L,,307302,-0.029,0.975,-0.105,29.6,24.0,-0.6,397,319,0
L,,307362,0.046,1.019,-0.085,43.7,11.6,-0.7,488,426,0
L,,307422,-0.025,1.010,-0.183,45.5,7.9,-6.7,278,253,0
L,,307482,-0.170,1.057,-0.171,44.8,13.5,-7.7,182,37,0
L,,307542,0.034,1.289,-0.186,68.8,33.8,-7.9,38,13,0
L,,307602,-0.066,1.629,-0.038,115.5,54.1,-26.6,58,19,0
L,,307662,0.020,1.764,0.389,173.6,114.8,-54.9,41,22,0
L,,307722,0.169,1.137,-0.059,210.0,252.3,-51.5,61,21,0
L,,307782,-0.096,0.571,0.538,69.5,137.2,-75.9,83,17,0
L,,307842,0.442,0.228,0.449,-68.7,55.7,-65.3,51,15,0
L,,307902,0.261,0.406,0.219,-181.3,-19.2,-68.1,64,17,0
L,,307962,0.223,0.984,0.204,-254.6,24.2,-63.2,51,17,0
L,,308022,0.461,1.633,-0.093,-249.3,77.4,-59.0,21,16,0
L,,308083,0.662,1.650,-0.529,-254.7,86.3,-58.4,33,16,0
L,,308172,0.462,1.544,-1.718,-44.8,-21.3,-12.6,52,11,0
L,,308232,0.714,1.290,1.818,67.3,-64.9,10.5,438,453,0
L,,308292,-0.138,0.987,-0.040,128.7,-44.9,2.3,504,410,0
L,,308352,0.072,0.960,-0.200,103.1,-7.1,8.1,453,520,0
L,,308413,0.059,0.996,-0.111,53.7,-15.4,-5.8,489,559,0
L,,308472,-0.003,0.960,-0.114,32.2,9.2,1.6,461,442,0
L,,308532,0.000,0.992,-0.085,25.5,8.1,-7.2,420,365,0
L,,308591,-0.041,1.006,-0.081,33.6,18.7,-5.8,447,377,0
L,,308682,0.020,1.026,-0.151,41.9,13.3,-4.4,272,93,0
L,,308742,0.037,1.118,-0.170,60.5,8.4,-2.0,116,32,0
L,,308802,0.162,1.267,-0.185,92.0,7.9,-2.3,63,22,0
L,,308862,0.093,1.717,-0.034,135.5,-11.9,-6.8,36,21,0
L,,308952,0.284,1.618,0.396,262.5,171.5,-41.3,38,23,0
L,,309012,0.051,0.396,-0.051,151.4,86.7,-27.4,11,9,0
L,,309072,-0.049,0.287,0.130,-21.4,59.0,-53.4,24,12,0
L,,309132,0.331,0.184,0.410,-173.9,18.0,-57.0,27,11,0
L,,309192,0.204,0.674,0.307,-274.0,24.0,-41.1,89,19,0
L,,309252,0.533,1.539,0.098,-296.9,100.0,-54.8,18,14,0
L,,309312,0.729,2.037,-0.797,-282.8,65.5,-69.2,24,13,0
L,,309402,-0.096,1.783,-2.153,-65.1,-38.3,-5.5,76,11,0
L,,309462,0.787,1.794,1.529,137.8,-44.3,20.4,370,401,0
L,,309522,-0.050,0.790,-0.226,128.3,-73.2,-3.0,514,510,0
L,,309583,0.562,1.060,-0.158,83.6,-16.1,-1.4,384,429,0
L,,309642,0.002,0.971,-0.065,61.1,-5.5,-4.7,361,395,0
L,,309703,0.073,1.020,-0.069,46.2,1.8,3.3,425,379,0
L,,309762,0.056,0.963,-0.146,35.1,-3.7,-0.7,368,163,0
L,,309822,0.109,0.971,-0.188,33.8,0.4,-6.6,184,60,0
L,,310327,0.327,0.176,0.243,-175.5,-19.2,-69.1,27,10,0
L,,310337,0.276,0.215,0.205,-191.7,-26.3,-65.7,29,9,0
L,,310362,0.241,0.415,0.233,-233.8,-24.6,-62.1,40,10,0
L,,310422,0.392,1.294,0.112,-282.1,49.5,-55.7,37,17,0
L,,310482,0.600,1.925,-0.417,-260.6,73.7,-56.2,24,13,0
L,,310542,0.737,1.683,-0.845,-256.5,-31.1,-26.2,26,12,0
L,,310602,0.240,1.666,-1.836,-46.4,-40.1,-6.7,39,11,0
L,,310663,0.370,1.148,0.490,99.9,-18.6,0.2,483,413,0
L,,310722,-0.157,1.332,-0.065,126.4,-57.7,-15.0,431,460,0
L,,310782,-0.025,0.897,-0.155,85.9,-25.0,-9.5,463,538,0
L,,310842,0.080,0.978,-0.012,43.3,-20.6,-7.8,448,501,0
L,,310902,0.023,1.013,-0.024,29.6,7.2,-2.2,480,492,0
L,,310962,0.012,0.964,-0.042,17.7,9.6,-1.9,483,527,0
L,,311022,0.049,1.017,-0.040,23.7,12.5,-1.8,446,493,0
L,,311125,0.062,1.054,-0.108,44.5,2.9,-3.0,438,406,0
L,,311142,0.065,1.022,-0.105,47.1,2.3,-2.3,434,279,0
L,,311203,0.035,1.066,-0.149,52.0,4.3,1.8,317,151,0
L,,311262,0.027,1.215,-0.166,73.5,1.1,8.5,46,15,0
L,,311322,0.155,1.334,-0.183,106.7,6.9,4.6,59,19,0
L,,311382,0.207,1.622,0.037,144.0,-13.4,3.5,34,21,0
L,,311442,0.062,1.669,0.464,223.7,96.1,-29.8,53,28,0
L,,311502,0.133,1.516,-0.365,174.5,120.4,-34.0,51,17,0
L,,311562,0.007,0.432,-0.605,31.2,105.2,-19.1,21,10,0
L,,311623,0.217,0.100,0.369,-110.3,45.0,-61.8,22,11,0
L,,311682,0.227,0.379,0.192,-221.6,1.7,-60.1,29,9,0
L,,311743,0.393,1.173,0.075,-295.5,5.0,-49.5,20,12,0
L,,311802,0.484,2.129,-0.360,-279.2,56.4,-37.4,24,13,0
L,,311862,0.704,1.588,-0.894,-242.4,0.1,-37.6,27,13,0
L,,311922,0.031,1.585,-1.711,-85.0,-53.8,-8.0,31,13,0
L,,311982,0.262,0.967,0.165,73.4,-65.5,-2.2,292,148,0
L,,312042,-0.322,1.482,0.160,119.8,-57.4,-11.4,461,458,0
L,,312102,-0.345,1.074,-0.166,95.6,-48.0,-7.8,435,480,0
L,,312192,0.105,0.968,-0.040,39.9,-15.9,-12.1,475,442,0
L,,312252,0.020,1.013,-0.046,23.8,2.8,-4.5,420,464,0
L,,312312,0.003,0.981,-0.037,21.2,7.4,-6.5,484,468,0
L,,312373,0.062,1.018,-0.022,28.3,10.0,-8.1,457,351,0
L,,312432,0.033,0.979,-0.129,29.8,8.8,-10.0,429,409,0
L,,312493,0.011,1.046,-0.101,37.9,2.6,-11.6,441,237,0
L,,312552,-0.067,1.089,-0.151,52.5,15.8,-7.2,303,105,0
L,,312612,-0.054,1.200,-0.146,74.6,14.2,0.4,54,17,0
L,,312672,0.114,1.499,-0.162,113.1,3.9,-0.9,22,11,0
L,,312732,0.196,1.893,0.118,155.5,18.4,-34.9,32,23,0
L,,312792,0.349,1.238,0.322,245.9,219.9,-59.7,67,29,0
L,,312852,0.290,0.569,-0.271,128.1,136.8,-91.7,11,9,0
L,,312913,0.233,-0.022,-0.212,-23.3,90.9,-86.1,38,12,0
L,,312972,0.595,0.001,0.351,-145.6,9.8,-74.0,31,10,0
L,,314107,0.195,1.435,-0.195,102.0,28.7,-11.8,24,11,0
L,,314117,0.194,1.498,-0.209,112.0,27.6,-11.7,34,13,0
L,,314142,0.303,1.567,-0.146,128.1,12.6,-26.2,48,27,0
L,,314203,0.101,2.159,0.586,172.2,44.2,-55.1,49,24,0
L,,314292,0.606,1.298,-0.618,151.9,103.3,-102.4,9,12,0
L,,314352,0.110,0.397,-0.179,4.4,100.7,-76.0,34,14,0
L,,314413,0.221,0.190,0.386,-137.9,50.2,-76.4,41,15,0
L,,314502,0.199,0.858,0.238,-268.4,24.7,-38.3,43,14,0
L,,314562,0.221,1.789,-0.147,-257.3,86.9,-35.9,19,16,0
L,,314623,0.535,1.803,-0.650,-253.5,160.1,-58.2,20,14,0
L,,314682,0.519,1.464,-0.912,-168.4,93.8,-27.3,21,15,0
L,,314743,0.280,1.415,-0.910,76.6,6.7,2.3,41,15,0
L,,314802,0.812,1.441,0.256,267.8,58.9,44.7,441,465,0
L,,314863,-0.168,1.130,-0.248,94.9,-57.6,5.1,484,406,0
L,,314922,0.217,0.989,-0.025,88.6,4.9,6.4,592,476,0
L,,314982,0.000,1.035,-0.020,42.7,-10.1,-6.6,578,662,0
L,,315042,0.022,1.008,-0.051,21.4,10.4,-1.6,580,521,0
L,,315102,-0.012,1.010,-0.049,21.9,24.0,-5.9,548,445,0
L,,315163,0.087,1.004,-0.074,33.0,28.8,4.8,495,506,0
L,,315222,-0.105,1.094,-0.063,45.0,41.7,3.8,477,434,0
L,,315283,-0.057,0.934,-0.154,49.1,51.7,2.5,369,208,0
L,,315342,-0.114,1.107,-0.123,50.8,50.3,-0.7,307,73,0
L,,315403,-0.699,1.435,0.048,97.3,97.4,-7.4,38,20,0
L,,315462,0.561,1.973,0.072,164.2,137.2,-38.7,41,18,0
L,,315522,0.106,1.916,0.901,236.6,217.2,-93.0,94,36,0
L,,315583,0.278,0.429,0.189,82.9,150.3,-64.3,30,17,0
L,,315642,0.209,0.314,-0.333,3.9,128.5,-44.5,52,12,0
L,,315703,0.286,0.268,0.362,-129.1,-11.1,-70.6,68,15,0
L,,315762,0.250,0.784,0.284,-220.6,-9.5,-77.4,49,14,0
L,,315823,0.610,1.539,0.131,-255.7,30.8,-66.4,31,14,0
L,,315882,0.665,1.726,-0.201,-244.5,0.0,-44.1,23,15,0
L,,315943,0.442,1.488,-0.523,-175.7,0.9,-26.1,22,17,0
L,,316002,0.549,1.229,-1.174,-5.2,33.7,2.1,24,15,0
L,,316062,0.203,1.021,-0.487,83.5,26.4,3.8,262,162,0
L,,316123,-0.390,1.590,-0.745,151.2,-63.8,-2.9,422,433,0
L,,316182,-0.274,0.893,-0.242,98.7,-8.2,14.9,407,373,0
L,,316243,0.104,1.001,-0.078,43.5,-12.5,-4.4,450,323,0
L,,316302,0.010,1.018,-0.023,26.8,13.7,7.0,473,359,0
L,,316363,0.067,1.045,-0.004,18.6,7.2,10.1,434,386,0
L,,316422,0.067,0.963,-0.067,22.5,14.0,5.8,404,333,0
L,,316483,0.017,1.004,-0.050,24.4,7.0,5.1,377,329,0
L,,316542,0.079,1.040,-0.081,32.4,1.7,6.8,375,305,0
L,,316602,0.056,1.000,-0.128,39.3,4.0,13.1,265,216,0
L,,316663,0.155,1.013,-0.205,38.4,-0.2,16.5,123,99,0
L,,316722,0.120,1.099,-0.162,43.8,-9.2,18.1,27,15,0
