side,stage,device_ms,ax,ay,az,gx,gy,gz,toe,heel,phase
R,,284049,-1.163,1.272,-0.174,-45.7,9.3,-111.0,790,867,0
R,,284074,-0.004,0.788,-0.315,-34.2,21.9,-114.0,792,869,0
R,,284084,-0.203,0.908,-0.064,-34.4,23.5,-109.6,800,873,0
R,,284094,-0.446,0.886,-0.195,-22.4,25.2,-101.1,804,879,0
R,,284104,-0.251,0.909,-0.349,-12.0,14.3,-88.2,811,884,0
R,,284114,-0.098,0.941,-0.393,-15.6,1.1,-78.3,812,883,0
R,,284124,-0.036,0.963,-0.331,-22.4,-5.4,-70.2,816,886,0
R,,284134,-0.010,0.965,-0.301,-24.8,-3.0,-59.7,818,890,0
R,,284144,-0.070,0.951,-0.372,-19.3,-7.0,-53.6,821,889,0
R,,284154,-0.115,0.982,-0.406,-20.7,-8.6,-44.0,822,891,0
R,,284164,-0.102,0.961,-0.409,-21.4,-7.7,-31.7,827,893,0
R,,284174,-0.053,0.926,-0.433,-21.5,-7.9,-26.8,823,893,0
R,,284184,-0.074,0.927,-0.409,-21.1,-6.4,-23.1,824,893,0
R,,284194,-0.054,0.934,-0.374,-23.0,-5.6,-20.5,825,894,0
R,,284204,-0.049,0.949,-0.320,-21.7,-5.5,-18.7,828,895,0
R,,284214,-0.020,0.957,-0.300,-19.4,-4.4,-15.4,828,895,0
R,,284224,-0.018,0.952,-0.305,-14.5,-2.9,-12.3,828,895,0
R,,284234,-0.040,0.942,-0.344,-13.1,-3.8,-9.9,829,897,0
R,,284244,-0.044,0.958,-0.366,-14.6,-8.6,-6.0,827,895,0
R,,284254,-0.021,0.940,-0.350,-14.3,-3.5,-6.2,828,895,0
R,,284264,-0.050,0.937,-0.371,-15.1,-5.9,-5.6,830,897,0
R,,284274,-0.079,0.931,-0.334,-15.1,-6.9,-5.1,830,898,0
R,,284284,-0.045,0.920,-0.327,-14.2,-7.4,-4.4,828,899,0
R,,284294,-0.038,0.917,-0.338,-14.1,-8.1,-5.8,827,899,0
R,,284304,-0.023,0.932,-0.334,-16.3,-8.8,-6.6,829,898,0
R,,284314,-0.011,0.935,-0.332,-14.1,-9.9,-6.7,829,900,0
R,,284324,-0.033,0.936,-0.301,-13.9,-10.9,-6.4,829,900,0
R,,284334,-0.046,0.927,-0.328,-12.4,-11.9,-6.5,829,897,0
R,,284344,-0.011,0.938,-0.311,-15.6,-14.0,-6.1,829,900,0
R,,284354,0.001,0.943,-0.317,-15.4,-11.6,-7.2,830,899,0
R,,284364,-0.004,0.944,-0.309,-16.1,-8.9,-7.0,832,897,0
R,,284374,0.010,0.954,-0.338,-17.2,-7.7,-6.9,835,902,0
R,,284384,-0.044,0.964,-0.343,-18.2,-4.6,-7.1,831,899,0
R,,284394,-0.035,0.960,-0.366,-20.2,-5.6,-5.3,831,902,0
R,,284404,-0.048,0.966,-0.350,-23.1,-6.3,-2.7,830,901,0
R,,284414,-0.082,0.940,-0.366,-23.3,-4.6,-0.6,832,902,0
R,,284424,-0.094,0.949,-0.369,-27.6,-5.1,0.4,832,902,0
R,,284434,-0.067,0.958,-0.342,-27.5,-6.3,0.9,831,902,0
R,,284444,-0.030,0.972,-0.335,-29.2,-8.0,1.4,831,902,0
R,,284454,0.010,0.967,-0.335,-28.7,-8.5,0.5,830,902,0
R,,284464,0.034,0.973,-0.312,-28.7,-7.0,-0.9,825,899,0
R,,284474,0.071,0.968,-0.321,-37.1,-5.8,-2.7,827,901,0
R,,284484,0.040,0.963,-0.314,-35.7,-6.0,-4.8,825,900,0
R,,284494,0.036,1.003,-0.442,-49.2,-12.9,-5.4,820,900,0
R,,284504,0.128,0.993,-0.682,-21.3,-77.9,-0.9,814,890,0
R,,284514,0.008,0.875,-0.392,-26.8,-6.7,-13.3,807,891,0
R,,284524,-0.003,0.971,-0.404,-55.5,-7.8,-10.4,795,885,0
R,,284763,-1.016,1.883,-0.387,-192.4,-49.7,-125.6,104,554,0
R,,284773,-0.641,1.975,-0.591,-162.0,-83.9,-100.0,151,655,0
R,,284783,-0.467,1.291,-0.334,-146.1,-71.4,-89.3,159,702,0
R,,284793,0.019,0.835,-0.400,-128.0,-52.3,-85.4,240,759,0
R,,284803,0.315,0.320,-0.799,-87.7,-61.4,-80.4,261,701,0
R,,284813,0.129,-0.556,-0.240,-72.9,7.3,-22.9,223,669,0
R,,284823,-0.202,-0.528,0.601,-82.2,38.9,-5.8,246,702,0
R,,284833,-0.488,-0.093,0.625,-60.2,57.4,15.6,264,708,0
R,,284843,-0.157,0.058,-0.039,5.3,73.7,42.0,267,710,0
R,,284853,0.124,0.081,-0.446,31.8,92.6,47.8,232,702,0
R,,284863,0.278,0.137,-0.546,46.9,102.4,52.0,208,684,0
R,,284873,0.328,0.186,-0.443,49.9,107.8,56.1,223,684,0
R,,284883,0.311,0.213,-0.264,63.4,121.6,64.1,246,651,0
R,,284893,0.241,0.237,-0.126,76.4,133.7,76.7,239,644,0
R,,284903,0.138,0.272,-0.149,94.6,145.7,91.1,266,680,0
R,,284913,0.094,0.339,-0.156,109.0,152.6,102.3,258,661,0
R,,284923,0.060,0.410,-0.200,121.5,168.7,109.0,280,626,0
R,,284933,0.031,0.528,-0.273,133.1,178.9,125.0,285,641,0
R,,284943,0.094,0.638,-0.344,149.1,183.0,139.3,290,631,0
R,,284953,0.028,0.715,-0.367,154.5,182.2,145.6,265,607,0
R,,284963,-0.036,0.788,-0.361,155.3,177.5,146.7,289,627,0
R,,284973,-0.128,0.857,-0.385,155.2,172.1,151.4,277,597,0
R,,284983,-0.177,0.905,-0.386,155.2,167.6,157.5,283,595,0
R,,284993,-0.174,0.989,-0.414,154.5,162.2,163.8,314,640,0
R,,285003,-0.174,1.059,-0.483,154.3,157.9,164.3,319,638,0
R,,285013,-0.171,1.148,-0.506,152.8,155.0,164.2,302,638,0
R,,285023,-0.207,1.184,-0.546,152.8,151.5,162.7,279,667,0
R,,285033,-0.273,1.230,-0.566,155.5,151.4,162.4,269,663,0
R,,285043,-0.312,1.271,-0.590,161.2,147.6,161.0,232,659,0
R,,285053,-0.351,1.316,-0.642,167.2,141.0,158.6,254,664,0
R,,285063,-0.404,1.369,-0.602,177.5,138.4,152.9,259,661,0
R,,285073,-0.433,1.430,-0.609,187.6,136.0,142.8,240,654,0
R,,285083,-0.469,1.501,-0.621,195.9,137.4,129.2,238,646,0
R,,285093,-0.584,1.532,-0.649,204.0,136.1,118.0,249,663,0
R,,285103,-0.708,1.534,-0.595,202.9,130.7,104.7,247,673,0
R,,285113,-0.818,1.530,-0.521,201.4,122.9,92.7,253,673,0
R,,285123,-0.908,1.502,-0.432,200.4,112.1,80.6,251,682,0
R,,285133,-0.882,1.487,-0.276,195.7,102.5,68.3,229,666,0
R,,285143,-0.764,1.481,-0.092,184.1,100.1,56.5,236,663,0
R,,285153,-0.732,1.498,-0.019,170.0,98.3,45.2,256,673,0
R,,285163,-0.739,1.495,0.037,148.8,92.4,34.3,227,677,0
R,,285173,-0.587,1.490,0.220,116.3,83.0,27.0,223,700,0
R,,285183,-0.547,1.532,0.192,85.2,69.3,12.0,225,699,0
R,,285193,-0.717,1.536,0.048,61.0,55.8,-10.0,253,711,0
R,,285203,-0.916,2.822,-0.842,0.6,-7.8,-37.8,283,693,0
R,,285213,-0.741,1.569,-0.040,-18.2,31.3,-63.2,301,723,0
R,,285453,-0.027,0.922,-0.386,-13.7,-14.9,-26.9,831,902,0
R,,285463,-0.035,0.923,-0.380,-15.4,-10.9,-27.2,828,898,0
R,,285489,-0.036,0.983,-0.300,-22.8,-5.6,-20.8,828,899,0
R,,285548,-0.083,0.945,-0.300,-25.8,2.8,-2.9,828,898,0
R,,285609,-0.060,0.953,-0.242,-25.5,-3.7,3.5,827,900,0
R,,285668,-0.027,0.977,-0.253,-9.8,-1.8,2.5,827,903,0
R,,285729,-0.006,0.967,-0.308,-15.3,-6.9,8.4,821,898,0
R,,285789,-0.043,1.066,-0.485,-45.9,-17.2,-5.5,808,896,0
R,,285848,0.235,1.270,-0.347,-97.0,-7.2,-4.2,694,893,0
R,,285909,0.238,1.470,-0.541,-120.4,-20.5,-42.9,646,880,0
R,,285968,0.649,1.285,-0.811,-185.9,43.1,-114.3,161,776,0
R,,286029,-0.555,1.824,-1.079,-194.8,-94.5,-77.1,123,623,0
R,,286088,-0.304,0.231,0.563,-77.2,183.4,-28.7,199,656,0
R,,286149,0.019,0.205,-0.250,45.7,189.7,41.0,193,545,0
R,,286208,-0.094,0.607,-0.338,120.1,156.9,126.3,255,673,0
R,,286269,-0.188,0.885,-0.387,150.9,143.0,160.3,264,669,0
R,,286359,-0.326,1.423,-0.514,218.2,130.0,145.6,235,685,0
R,,286418,-0.748,1.591,-0.188,196.2,118.7,86.1,239,689,0
R,,286479,-1.218,1.622,-0.016,19.8,15.1,-12.6,209,624,0
R,,286539,0.617,0.289,-0.756,-52.6,-30.0,-78.4,555,676,0
R,,286598,-1.484,1.452,-0.203,-28.4,27.6,-153.1,775,855,0
R,,286659,0.032,1.059,-0.443,-15.1,26.4,-69.9,800,875,0
R,,286749,0.044,0.957,-0.361,-16.6,-12.5,-27.3,821,892,0
R,,286809,-0.040,0.969,-0.334,-21.9,-7.0,-20.8,828,896,0
R,,286869,-0.071,0.940,-0.267,-23.9,-8.4,-12.1,826,893,0
R,,286928,-0.054,0.967,-0.243,-21.1,-4.2,-5.3,818,889,0
R,,286989,-0.075,0.950,-0.318,-15.5,-7.7,4.5,803,878,0
R,,287048,0.049,0.992,-0.444,-27.0,-16.3,-4.7,735,671,0
R,,287109,0.026,1.057,-0.344,-78.3,-14.4,-13.3,705,791,0
R,,287168,0.112,1.434,-0.328,-120.4,-36.2,-38.0,608,898,0
R,,287258,0.797,1.242,-0.873,-193.5,15.2,-131.8,68,536,0
R,,287348,0.484,-0.273,-0.034,-76.4,-40.1,-39.7,156,526,0
R,,287409,0.280,0.183,-0.350,41.4,72.8,38.0,212,574,0
R,,287468,0.030,0.358,-0.160,134.9,141.5,96.8,259,603,0
R,,287529,-0.061,0.855,-0.318,176.0,149.5,150.4,289,671,0
R,,287588,-0.149,1.158,-0.476,192.7,111.1,170.8,264,680,0
R,,287649,-0.485,1.668,-0.598,236.5,70.6,147.8,186,680,0
R,,287708,-0.591,1.725,0.151,168.8,70.9,106.4,192,733,0
R,,287798,-0.970,4.862,-0.513,-56.4,-172.2,-254.2,227,719,9
R,,287859,0.906,1.652,0.129,-78.6,-79.0,-115.2,716,807,0
R,,287918,-0.065,0.752,-0.184,-52.8,34.7,-79.5,806,877,0
R,,287979,-0.014,0.907,-0.350,-24.4,13.0,-55.5,815,886,0
R,,288039,-0.055,0.914,-0.454,-17.6,-3.1,-9.5,822,892,0
R,,288099,-0.084,0.913,-0.400,-21.7,-3.8,-8.7,825,891,0
R,,288159,-0.061,0.932,-0.342,-12.0,-12.1,-2.0,826,889,0
R,,288249,-0.065,0.926,-0.400,-9.2,-16.6,-16.5,823,890,0
R,,288963,-0.769,1.776,0.122,190.8,-9.7,125.4,233,682,0
R,,288973,-0.483,1.831,0.494,146.6,5.6,118.4,203,657,0
R,,289029,-0.795,1.729,0.446,-55.0,0.4,-76.3,278,732,0
R,,289131,-1.629,1.637,-0.039,-56.2,43.1,-156.5,785,860,0
R,,289149,0.460,0.943,-0.124,-84.2,56.7,-103.8,801,871,0
R,,289208,0.015,0.979,-0.244,-40.3,22.8,-63.0,824,889,0
R,,289269,-0.059,0.908,-0.387,-30.5,-3.9,-9.3,829,897,0
R,,289329,-0.045,0.908,-0.382,-20.1,-3.1,1.6,832,898,0
R,,289389,-0.117,0.901,-0.384,-22.2,-20.0,-0.3,829,897,0
R,,289449,0.012,0.938,-0.332,-13.5,-14.9,-7.4,830,897,0
R,,289508,-0.076,0.919,-0.405,-17.0,-12.6,-3.5,830,899,0
R,,289569,0.064,0.948,-0.485,-51.5,-7.2,-22.2,828,898,0
R,,289659,-0.039,1.640,-0.504,-102.4,-38.1,-40.4,679,824,0
R,,289718,0.385,1.557,-0.635,-127.4,-68.3,-66.2,488,881,0
R,,289779,0.853,1.255,-0.843,-197.2,-4.0,-139.1,69,583,0
R,,289838,-0.023,1.263,-0.652,-128.0,-72.7,-123.6,163,648,0
R,,289899,-0.370,0.085,0.143,-3.3,-37.5,37.5,220,644,0
R,,289958,0.246,0.224,0.014,101.2,38.7,96.0,268,604,0
R,,290019,0.124,0.711,-0.264,189.4,121.3,144.2,313,673,0
R,,290079,-0.035,1.075,-0.371,203.3,103.3,168.4,304,668,0
R,,290168,-0.462,1.739,-0.476,209.4,123.1,150.6,252,706,0
R,,290258,-0.693,1.535,0.166,50.8,41.9,-8.4,250,708,0
R,,290349,0.286,0.727,-1.010,-42.2,-94.2,-117.2,668,783,0
R,,290409,0.334,0.990,-0.116,-56.7,5.9,-93.8,800,875,0
R,,290468,-0.015,0.910,-0.385,-32.1,-8.0,-70.3,819,893,0
R,,290529,-0.076,0.950,-0.398,-17.9,-3.7,-19.7,828,897,0
R,,290588,-0.066,0.923,-0.364,-18.0,0.5,-3.0,832,900,0
R,,290649,0.025,0.930,-0.296,-12.5,0.0,1.5,834,901,0
R,,290708,0.006,0.947,-0.339,-12.3,-6.0,2.2,834,902,0
R,,290769,-0.005,0.939,-0.387,-20.0,-3.4,0.4,831,902,0
R,,290859,0.063,0.978,-0.266,-41.9,6.0,-0.6,826,898,0
R,,290918,0.078,0.922,-0.242,-65.6,-11.4,1.4,767,856,0
R,,290979,0.056,1.297,-0.498,-107.1,-11.4,2.6,685,864,0
R,,291069,0.695,1.474,-0.746,-175.7,26.7,-86.6,330,865,0
R,,291128,-0.510,1.570,-0.711,-185.0,-3.6,-116.5,133,665,0
R,,291189,0.094,-0.108,0.869,-104.8,146.5,-27.7,206,622,0
R,,291249,-0.180,0.187,-0.315,43.5,164.5,34.7,224,646,0
R,,291309,-0.053,0.552,-0.321,123.8,152.5,109.3,270,658,0
R,,291412,-0.356,1.143,-0.363,163.1,100.7,150.2,256,659,0
R,,291458,-0.157,1.331,-0.085,216.9,131.3,112.3,233,683,0
R,,291519,-0.798,1.504,-0.115,156.6,114.3,70.7,218,695,0
R,,291579,-1.040,1.450,-0.094,18.8,-0.1,-1.8,277,730,0
R,,291639,1.250,0.836,-0.706,-52.7,-100.1,-44.9,576,708,0
R,,291699,0.527,0.955,-0.110,-45.2,24.2,-75.9,793,867,0
R,,291758,-0.088,0.993,-0.305,-7.2,16.3,-45.0,810,883,0
R,,291819,-0.004,0.940,-0.388,-11.9,-11.2,-5.8,813,883,0
R,,292353,0.597,1.592,-0.805,-192.6,-83.3,-109.0,220,877,0
R,,292363,0.658,1.374,-0.775,-198.2,-61.9,-126.9,177,877,0
R,,292389,0.279,1.197,-0.536,-188.6,21.0,-144.4,147,721,0
R,,292479,0.163,0.184,-0.244,6.7,40.3,33.3,185,584,0
R,,292539,0.222,0.350,-0.141,89.8,126.8,79.3,301,674,0
R,,292628,-0.180,1.000,-0.415,146.7,153.7,144.0,273,672,0
R,,292719,-0.499,1.420,-0.541,175.9,118.6,125.8,215,654,0
R,,292779,-0.757,1.406,-0.159,159.1,64.9,70.6,272,725,0
R,,292838,-0.766,1.475,0.051,37.5,34.4,-8.1,231,705,0
R,,292899,0.883,0.625,-0.635,-45.0,-14.6,-91.2,463,541,0
R,,293001,-0.169,0.851,-0.337,-20.0,22.8,-74.4,804,884,0
R,,293019,-0.101,0.944,-0.359,-18.6,-7.9,-61.8,798,866,0
R,,293079,-0.039,0.954,-0.417,-6.3,-8.4,-24.8,825,892,0
R,,293168,-0.037,0.938,-0.368,-8.1,-9.5,-9.0,829,897,0
R,,293229,-0.068,0.910,-0.336,-7.7,-11.2,0.9,827,899,0
R,,293332,-0.020,0.944,-0.385,-9.9,-6.8,1.8,830,899,0
R,,293349,0.010,0.949,-0.408,-10.5,-6.8,1.7,825,896,0
R,,293452,0.001,0.964,-0.287,-33.1,-15.5,-2.1,654,694,0
R,,293469,-0.030,0.954,-0.253,-37.4,-9.4,-3.5,784,867,0
R,,293529,0.000,1.051,-0.334,-66.9,-12.0,2.7,575,708,0
R,,293619,0.197,1.411,-0.674,-107.3,-34.7,-45.6,379,860,0
R,,293679,0.574,1.324,-0.673,-184.7,23.7,-104.3,150,781,0
R,,293739,-0.605,1.838,-0.729,-168.7,-15.8,-121.8,113,603,0
R,,293829,0.088,0.128,-0.387,29.6,136.1,34.8,232,599,0
R,,293889,-0.077,0.224,-0.174,101.2,148.5,110.1,285,657,0
R,,293949,-0.063,0.744,-0.420,171.0,131.1,168.4,272,623,0
R,,294039,-0.405,1.661,-0.401,225.1,142.6,130.6,237,639,0
R,,294099,-1.115,1.699,-0.121,139.0,115.4,68.8,304,732,0
R,,294159,0.028,2.413,-0.305,-29.3,-119.3,-45.2,280,688,0
R,,294249,0.145,1.098,0.024,-30.1,46.2,-112.0,798,874,0
R,,294309,-0.153,0.954,-0.372,-28.9,-2.3,-52.5,818,890,0
R,,294369,-0.058,0.922,-0.392,-10.9,-11.4,-25.8,827,896,0
R,,294429,-0.031,0.987,-0.322,-17.7,-4.9,-8.1,832,898,0
R,,294489,-0.043,0.942,-0.332,-23.8,-1.6,-2.5,828,898,0
R,,294549,-0.020,0.980,-0.201,-25.4,-0.9,-2.3,813,889,0
R,,294609,-0.097,0.981,-0.335,-21.9,-5.3,-4.4,745,841,0
R,,294668,-0.031,0.978,-0.345,-35.0,-8.1,-0.8,724,871,0
R,,294772,0.124,1.192,-0.268,-99.7,-11.4,-17.8,618,873,0
R,,294789,0.174,1.270,-0.439,-101.8,-10.7,-30.7,627,897,0
R,,294849,0.422,1.517,-0.755,-154.0,-30.0,-94.1,333,906,0
R,,294939,-0.018,1.485,-0.433,-187.1,-78.6,-91.7,189,744,0
R,,295041,0.002,0.296,-0.025,38.0,128.7,7.0,243,641,0
R,,295059,0.030,0.274,-0.064,57.5,140.3,20.0,236,642,0
R,,295119,-0.179,0.447,-0.048,113.4,108.0,86.7,260,635,0
R,,295179,-0.146,0.721,-0.175,147.0,64.9,148.4,258,595,0
R,,295239,-0.071,0.954,-0.248,181.5,42.2,163.4,260,646,0
R,,295744,-0.036,0.903,-0.328,-4.6,-6.6,5.6,836,899,0
R,,295754,-0.047,0.935,-0.376,-10.8,-10.9,6.2,830,895,0
R,,295779,-0.040,0.928,-0.385,-1.0,-8.7,5.4,829,899,0
R,,295869,0.029,0.899,-0.384,-13.2,-20.8,2.5,827,897,0
R,,295929,0.104,0.913,-0.431,-40.7,-21.0,-12.3,826,897,0
R,,295989,-0.052,1.004,-0.417,-78.6,-3.8,-19.1,761,797,0
R,,296049,0.250,1.410,-0.420,-106.4,-27.5,-46.2,618,895,0
R,,296109,0.434,1.569,-0.919,-154.8,-100.5,-97.3,341,882,0
R,,296199,-0.615,1.491,-0.695,-138.1,-50.1,-148.8,156,686,0
R,,296259,0.297,0.121,-0.148,7.4,-22.1,24.0,242,720,0
R,,296319,0.324,0.236,-0.203,118.5,69.2,96.6,291,667,0
R,,296378,0.070,0.797,-0.372,208.0,120.5,153.2,296,677,0
R,,296469,-0.356,1.591,-0.475,214.2,83.6,152.1,230,712,0
R,,296572,-0.858,1.606,0.326,56.2,-70.0,79.9,194,714,0
R,,296619,-0.211,1.794,0.245,-119.6,-147.8,-34.7,161,534,0
R,,296679,0.034,1.482,-0.231,-80.8,56.0,-166.8,761,846,0
R,,296739,-0.335,0.787,-0.333,-44.9,54.2,-64.6,808,883,0
R,,296799,-0.117,0.891,-0.382,-20.2,0.2,-30.4,822,893,0
R,,296889,-0.049,0.923,-0.463,-13.4,-14.2,-2.9,830,896,0
R,,296949,-0.026,0.921,-0.415,-22.3,-9.8,-1.0,827,897,0
R,,297009,-0.068,0.901,-0.381,-19.4,-14.2,-0.9,827,897,0
R,,297099,-0.025,0.922,-0.408,-15.0,-6.9,-3.7,829,899,0
R,,297159,0.045,0.960,-0.467,-39.3,-12.4,-13.1,819,893,0
R,,297219,-0.060,1.004,-0.411,-88.4,-6.1,-16.1,697,792,0
R,,297279,0.211,1.407,-0.375,-113.1,-45.7,-46.4,562,834,0
R,,297339,0.549,1.533,-0.904,-150.5,-74.3,-100.1,284,870,0
R,,297429,-0.478,1.234,-0.372,-137.9,-111.7,-120.1,105,538,0
R,,297519,0.459,0.127,-0.234,62.6,-1.6,48.3,235,585,0
R,,297579,0.146,0.406,-0.101,165.8,97.1,100.5,278,671,0
R,,297639,0.056,0.843,-0.302,221.2,93.3,155.8,308,665,0
R,,297699,0.028,1.367,-0.424,236.6,65.4,180.4,241,688,0
R,,297789,-1.095,1.903,0.053,140.9,41.5,120.6,198,716,0
R,,297849,-0.673,1.585,0.234,-63.0,-78.5,-40.3,239,707,0
R,,297909,1.353,0.511,-1.371,-21.3,-91.4,-79.0,576,686,0
R,,298012,-0.179,0.847,-0.322,-37.5,14.7,-54.3,811,885,0
R,,298029,-0.081,0.902,-0.318,-35.1,5.6,-45.5,814,887,0
R,,298119,-0.075,0.912,-0.412,-16.9,-3.2,-9.7,831,899,0
R,,298222,-0.089,0.900,-0.396,-10.4,-10.3,4.9,831,899,0
R,,298239,-0.078,0.908,-0.405,-9.8,-10.7,5.5,834,900,0
R,,298299,0.004,0.931,-0.364,-19.5,-14.5,3.0,831,901,0
R,,298359,-0.040,0.925,-0.379,-23.6,-11.9,0.7,831,902,0
R,,298419,0.144,0.905,-0.329,-47.0,-20.0,-6.5,820,893,0
R,,298479,0.020,0.955,-0.336,-79.8,-7.0,-12.1,703,838,0
R,,298539,-0.068,1.310,-0.388,-106.4,-36.9,-34.6,659,888,0
R,,298599,0.290,1.574,-0.804,-143.0,-72.0,-79.1,390,881,0
R,,298689,-0.923,1.653,-0.170,-168.0,-23.3,-133.7,132,702,0
R,,299404,-0.089,0.889,-0.481,10.6,-9.3,-6.8,681,762,0
R,,299414,-0.113,0.875,-0.487,7.5,-10.0,-4.5,661,743,0
R,,299469,-0.122,0.865,-0.459,0.9,-15.8,14.8,618,696,0
R,,299529,-0.006,0.890,-0.275,4.3,-17.4,12.1,741,809,0
R,,299589,0.137,0.989,-0.405,3.0,-15.4,13.1,822,892,0
R,,299649,0.000,0.910,-0.443,2.3,1.5,13.0,823,889,0
R,,299709,0.101,0.918,-0.416,-5.9,10.5,8.3,822,891,0
R,,299769,0.023,0.912,-0.458,-24.4,22.7,-15.6,826,890,0
R,,299829,0.050,0.908,-0.451,-38.6,37.3,-21.0,825,894,0
R,,299889,-0.045,0.958,-0.423,-58.3,32.2,-2.3,817,891,0
R,,299949,0.126,1.010,-0.619,-83.5,24.7,21.1,744,864,0
R,,300009,0.459,1.148,-0.322,-94.1,182.4,-61.4,424,588,0
R,,300069,0.241,0.544,-0.782,28.5,322.5,-115.9,465,586,0
R,,300129,-0.024,0.657,-0.713,36.7,217.6,-40.5,537,721,0
R,,300219,-0.078,0.881,-0.369,58.9,89.9,29.1,456,690,0
R,,300279,-0.046,0.986,-0.229,84.5,126.5,-3.9,354,682,0
R,,300339,-0.404,1.022,-0.152,63.4,114.3,-23.3,221,602,0
R,,300399,-0.594,1.262,-0.023,-2.9,-74.5,-55.0,395,567,0
R,,300459,-0.081,1.098,-0.030,-52.0,10.5,-66.4,794,873,0
R,,300519,-0.072,0.917,-0.319,2.3,0.9,-35.4,810,888,0
R,,300579,-0.089,0.922,-0.352,-0.8,-7.3,-11.9,821,894,0
R,,300639,0.052,0.963,-0.322,4.2,-1.8,-15.7,827,895,0
R,,300699,-0.075,0.927,-0.431,-8.4,0.4,-15.5,826,896,0
R,,300790,-0.019,0.946,-0.299,-18.6,6.7,-1.1,829,901,0
R,,300849,0.016,0.957,-0.306,-20.6,4.2,-0.5,822,893,0
R,,300909,-0.007,0.955,-0.321,-26.3,-4.6,-1.8,767,848,0
R,,300968,-0.044,0.976,-0.262,-43.9,2.4,-1.4,810,898,0
R,,301029,-0.018,1.045,-0.229,-54.5,-9.3,7.5,786,889,0
R,,301089,0.142,1.246,-0.380,-77.6,-23.5,-15.7,762,893,0
R,,301149,0.278,1.500,-0.617,-133.2,-32.9,-57.6,728,880,0
R,,301209,0.033,1.200,-0.528,-172.3,12.7,-105.6,222,871,0
R,,301299,-0.118,0.185,0.339,-33.2,115.8,-19.2,176,576,0
R,,301359,0.064,0.206,-0.205,67.1,145.3,32.2,345,662,0
R,,301419,-0.024,0.671,-0.212,132.4,160.5,91.3,300,526,0
R,,301479,-0.187,0.962,-0.331,129.2,136.3,122.3,278,526,0
R,,301540,-0.283,1.180,-0.347,156.5,111.5,118.0,181,541,0
R,,301599,-0.656,1.465,-0.210,147.8,111.0,74.4,217,629,0
R,,301659,-0.292,1.931,-0.501,30.1,-74.3,33.3,200,562,0
R,,301719,0.894,1.138,0.116,-77.4,-63.4,-52.9,504,594,0
R,,301779,0.068,0.955,-0.132,-46.3,49.7,-95.5,790,867,0
R,,301839,-0.070,0.929,-0.273,-17.2,-5.6,-37.5,813,888,0
R,,301899,-0.019,0.985,-0.329,-6.5,-6.5,-22.8,824,895,0
R,,301959,-0.082,0.951,-0.321,-19.6,-0.5,-11.4,825,896,0
R,,302019,-0.113,0.969,-0.252,-17.1,-8.8,-3.7,761,831,0
R,,302080,-0.067,0.959,-0.259,-11.5,-8.5,-2.4,810,893,0
R,,302182,-0.050,0.967,-0.282,-18.4,-4.2,3.6,690,787,0
R,,302644,-0.043,0.232,-0.061,98.8,154.6,49.0,196,595,0
R,,302654,-0.114,0.281,-0.137,116.4,152.6,69.4,208,601,0
R,,302679,0.068,0.453,-0.222,156.9,153.3,103.3,249,591,0
R,,302739,-0.101,0.834,-0.372,165.4,113.8,157.0,316,664,0
R,,302799,-0.194,1.164,-0.360,183.4,81.7,173.8,251,671,0
R,,302859,-0.891,1.767,-0.182,195.6,90.4,108.9,195,662,0
R,,302919,-1.138,1.650,0.210,30.1,3.3,14.6,248,717,0
R,,303009,-0.083,1.891,0.678,-141.9,56.2,-152.1,769,851,0
R,,303069,-0.374,0.869,-0.314,-38.8,24.9,-66.1,811,886,0
R,,303159,-0.056,0.949,-0.361,-5.0,-6.7,-14.7,827,895,0
R,,303219,-0.091,0.936,-0.408,-13.3,-10.2,-1.6,828,897,0
R,,303322,-0.048,0.959,-0.300,-19.1,-7.6,-7.4,673,780,0
R,,303339,0.037,0.972,-0.268,-18.2,-10.0,-10.1,737,815,0
R,,303399,-0.126,0.955,-0.324,-22.6,-13.0,-9.4,691,824,0
R,,303459,-0.023,1.101,-0.437,-32.2,-19.5,-10.0,600,823,0
R,,303519,0.020,1.042,-0.386,-64.6,-18.8,-19.3,587,894,0
R,,303580,0.129,1.328,-0.421,-105.4,-42.0,-71.2,591,895,0
R,,303639,0.511,1.515,-0.838,-156.8,-63.4,-122.7,292,907,0
R,,303699,-0.390,1.670,-0.460,-191.8,0.0,-157.2,72,565,0
R,,303759,0.196,-0.476,-0.292,-78.4,-66.7,-18.5,182,650,0
R,,303849,0.189,0.190,-0.014,96.3,31.8,91.2,222,562,0
R,,303909,0.117,0.663,-0.234,175.7,97.5,137.9,216,567,0
R,,303969,-0.050,1.065,-0.347,204.3,74.5,169.2,256,653,0
R,,304059,-0.329,1.686,-0.403,221.9,98.2,153.3,208,695,0
R,,304120,-1.026,1.623,-0.083,125.7,14.6,91.3,186,688,0
R,,304179,-0.921,2.983,-1.258,-64.7,-166.6,-63.5,233,712,0
R,,304239,1.391,1.132,-0.589,-46.6,-35.1,-139.7,692,787,0
R,,304299,0.192,0.824,-0.145,-74.1,51.1,-116.4,809,882,0
R,,304359,-0.118,0.927,-0.309,-39.1,-9.5,-43.1,825,895,0
R,,304419,-0.048,0.936,-0.333,-21.6,-3.0,-10.5,830,899,0
R,,304479,-0.094,0.930,-0.337,-19.4,-11.1,-0.4,830,899,0
R,,304583,-0.041,0.955,-0.320,-15.7,-7.9,-3.8,828,901,0
R,,304599,-0.015,0.957,-0.302,-14.2,-6.7,-4.2,829,900,0
R,,304660,-0.019,0.916,-0.381,-22.3,-10.5,-8.6,826,895,0
R,,304719,-0.080,0.970,-0.332,-25.7,-7.7,-6.7,776,829,0
R,,304779,-0.051,0.974,-0.341,-57.0,-7.0,-8.1,772,866,0
R,,304839,0.017,1.251,-0.382,-86.2,-29.9,-34.1,674,889,0
R,,304899,0.189,1.523,-0.606,-121.8,-58.7,-60.7,566,878,0
R,,304959,0.716,1.237,-0.908,-174.0,-30.8,-143.9,158,666,0
R,,305019,-0.257,1.493,-0.408,-151.1,-110.6,-111.6,122,565,0
R,,305109,0.277,0.199,-0.202,41.7,6.2,28.7,164,577,0
R,,305169,0.140,0.296,0.024,138.1,91.6,76.5,238,597,0
R,,305229,0.000,0.755,-0.188,198.5,135.5,136.5,260,667,0
R,,305290,-0.057,1.131,-0.333,189.8,90.9,162.3,255,694,0
R,,305392,-0.782,1.669,-0.331,202.4,47.0,127.6,244,709,0
R,,305439,-0.606,1.656,0.102,93.2,16.8,80.3,224,716,0
R,,305944,-0.004,0.929,-0.366,-8.4,-9.3,-0.3,836,902,0
R,,305954,-0.001,0.933,-0.382,-9.5,-10.0,-1.1,832,900,0
R,,306040,-0.015,0.974,-0.469,-29.0,-34.4,-4.6,829,898,0
R,,306099,0.057,0.950,-0.449,-55.1,-13.3,-15.1,635,689,0
R,,306189,0.139,1.458,-0.499,-111.8,-52.6,-45.4,596,894,0
R,,306250,0.664,1.581,-0.786,-165.3,-81.4,-121.8,269,894,0
R,,306339,-0.290,1.333,-0.307,-122.7,-80.5,-100.1,139,586,0
R,,306399,0.171,0.075,-0.094,4.7,-41.4,55.1,239,676,0
R,,306459,0.158,0.306,-0.012,116.1,76.4,96.4,218,608,0
R,,306519,0.068,0.775,-0.285,179.0,117.7,140.4,272,669,0
R,,306580,-0.031,1.172,-0.361,184.5,103.1,150.0,224,612,0
R,,306639,-0.255,1.535,-0.493,205.1,102.6,136.1,160,680,0
R,,306700,-0.874,1.489,-0.214,148.6,83.7,79.1,222,734,0
R,,306759,-0.519,1.421,0.032,36.3,16.4,0.9,238,759,0
R,,306819,-0.080,0.791,0.541,-112.0,-43.0,-81.5,193,416,0
R,,306879,-0.445,1.499,0.262,-114.7,45.9,-137.3,753,838,0
R,,306939,-0.415,0.866,-0.244,-1.8,22.4,-77.9,805,880,0
R,,307000,-0.078,0.871,-0.454,-9.5,-7.3,-34.3,818,889,0
R,,307059,-0.012,0.944,-0.499,-10.0,-10.0,-14.2,826,893,0
R,,307120,-0.032,0.918,-0.407,-14.0,-5.4,-7.4,830,895,0
R,,307179,-0.029,0.929,-0.410,-15.2,-1.3,2.0,833,898,0
R,,307240,0.003,0.927,-0.340,-16.3,-2.7,1.9,832,900,0
R,,307299,0.020,0.954,-0.369,-20.1,0.5,-0.2,832,899,0
R,,307359,0.037,0.962,-0.386,-37.8,7.7,-7.4,830,899,0
R,,307419,-0.035,0.955,-0.371,-67.2,-6.6,-10.0,811,891,0
R,,307479,-0.029,1.138,-0.393,-101.5,-11.6,3.4,683,851,0
R,,307540,0.417,1.480,-0.511,-134.5,-30.8,-45.0,420,634,0
R,,307599,0.397,1.312,-0.630,-186.4,21.6,-117.5,150,629,0
R,,307660,-0.272,1.123,0.014,-155.1,-47.2,-96.6,112,578,0
R,,307719,0.097,0.224,-0.361,4.1,152.8,6.0,209,557,0
R,,307780,-0.046,0.267,-0.190,93.8,160.3,75.3,257,629,0
R,,307839,0.000,0.733,-0.203,149.3,150.9,133.3,273,623,0
R,,307899,-0.115,1.161,-0.224,156.0,171.2,142.0,248,650,0
R,,307959,-0.443,1.560,-0.331,187.1,240.3,86.1,228,620,0
R,,308019,-1.063,1.448,-0.292,93.0,177.8,16.2,215,647,0
R,,308080,-0.939,1.558,-0.044,-22.4,-13.4,-79.7,235,377,0
R,,308139,0.277,1.063,-0.316,-52.5,-20.5,-115.5,778,858,0
R,,308200,-0.099,0.958,-0.262,-5.1,-0.2,-50.4,811,885,0
R,,308259,-0.065,0.917,-0.353,6.4,-12.8,-20.5,817,888,0
R,,308349,-0.030,0.966,-0.384,3.5,-6.6,-7.0,825,895,0
R,,308410,0.000,0.944,-0.334,-8.9,-0.9,0.1,828,898,0
R,,308500,-0.006,0.948,-0.288,-35.8,0.9,0.6,826,897,0
R,,308559,0.000,0.971,-0.368,-22.1,-5.5,-0.6,815,890,0
R,,308620,0.016,1.003,-0.312,-34.7,-10.5,2.4,798,875,0
R,,308679,0.001,1.006,-0.337,-60.6,-4.0,15.3,715,819,0
R,,308740,0.156,1.175,-0.527,-83.4,-8.8,-8.1,661,867,0
R,,309244,-0.427,1.196,-0.419,183.9,117.6,91.4,223,659,0
R,,309254,-0.493,1.271,-0.381,185.0,116.2,84.0,237,666,0
R,,309280,-0.607,1.399,-0.141,174.7,111.3,65.8,193,681,0
R,,309370,-1.009,1.464,0.332,-58.8,-137.4,-55.4,374,589,0
R,,309429,0.008,1.311,0.283,-55.0,52.2,-91.5,789,865,0
R,,309490,-0.081,0.914,-0.406,-2.7,8.6,-44.5,812,885,0
R,,309549,-0.039,0.944,-0.404,-2.4,-10.2,-13.7,825,891,0
R,,309610,-0.036,0.944,-0.356,-5.3,-1.4,-4.5,829,894,0
R,,309712,-0.018,0.931,-0.305,-12.6,-5.9,3.9,830,900,0
R,,309729,0.011,0.942,-0.285,-10.4,-5.9,2.4,834,900,0
R,,309820,-0.030,0.904,-0.448,-15.9,0.0,-8.8,830,897,0
R,,309879,0.049,0.966,-0.305,-32.6,5.4,-5.1,829,895,0
R,,309939,0.029,0.987,-0.366,-44.3,-10.9,0.2,801,871,0
R,,310000,0.127,1.023,-0.237,-74.9,-4.0,-2.2,703,812,0
R,,310059,0.113,1.542,-0.458,-93.4,-24.0,-30.7,655,831,0
R,,310163,0.307,1.270,-0.510,-168.4,30.1,-125.3,142,698,0
R,,310209,-0.043,1.262,-0.336,-151.6,-87.5,-91.0,200,661,0
R,,310299,0.168,0.395,-0.246,20.0,107.7,-13.7,190,652,0
R,,310360,-0.075,0.318,-0.139,90.2,94.1,60.9,278,636,0
R,,310419,-0.066,0.535,-0.202,152.6,83.0,130.9,296,632,0
R,,310479,0.000,0.888,-0.239,206.6,41.0,171.5,244,662,0
R,,310540,-0.162,1.850,-0.284,239.8,79.3,137.9,180,663,0
R,,310599,-1.806,3.159,-0.262,87.6,6.2,8.3,183,710,0
R,,310660,0.266,1.077,-0.197,-49.7,-121.0,-32.9,511,536,0
R,,310750,-0.290,0.840,-0.319,-29.4,43.7,-71.5,796,869,0
R,,310809,0.040,0.887,-0.405,-9.6,3.9,-31.8,816,886,0
R,,310870,0.024,0.918,-0.370,-5.1,2.4,-17.0,824,889,0
R,,310929,-0.063,0.919,-0.445,-15.6,-5.2,-0.4,823,887,0
R,,310990,-0.009,0.918,-0.344,-5.9,-9.6,-2.9,824,892,0
R,,311049,0.007,0.920,-0.407,-8.9,-13.9,-7.1,825,891,0
R,,311110,-0.067,0.931,-0.440,-15.6,-14.4,-9.8,826,891,0
R,,311169,0.063,0.972,-0.418,-33.5,-19.4,-7.2,826,895,0
R,,311229,0.078,0.981,-0.424,-65.2,-14.0,-21.2,799,873,0
R,,311290,0.190,1.342,-0.355,-101.2,-38.0,-43.6,625,890,0
R,,311349,0.578,1.604,-0.961,-150.2,-91.9,-101.9,405,904,0
R,,311410,0.399,1.353,-0.717,-204.9,64.0,-182.2,99,732,0
R,,311469,0.298,-0.728,-0.521,-66.8,-63.8,-28.6,145,594,0
R,,311530,0.592,0.074,-0.390,61.1,46.0,84.3,172,499,0
R,,311589,0.228,0.536,-0.408,162.6,116.1,160.5,217,529,0
R,,311650,-0.070,1.198,-0.519,214.4,88.9,183.4,218,535,0
R,,311709,-0.347,1.540,-0.480,223.8,55.2,170.0,196,610,0
R,,311799,-0.581,1.641,0.080,122.5,15.5,76.0,181,537,0
R,,311860,-0.708,1.498,0.364,-30.1,19.9,-65.7,216,593,0
R,,311919,0.548,0.825,-1.043,-57.9,-83.6,-155.1,685,782,0
R,,311979,-0.063,0.890,-0.218,-69.8,53.6,-121.6,799,870,0
R,,312040,-0.103,0.958,-0.170,-40.5,-13.1,-55.3,824,891,0
R,,312754,0.475,0.183,-0.164,58.5,-50.8,101.0,290,663,0
R,,312764,0.275,0.165,-0.055,76.9,-34.1,114.1,277,687,0
R,,312790,0.174,0.309,-0.135,133.1,-6.1,148.8,218,632,0
R,,312849,0.089,0.744,-0.234,209.6,28.0,187.4,225,603,0
R,,312909,0.106,1.297,-0.383,251.8,23.4,190.6,224,654,0
R,,312969,-0.402,1.877,-0.243,263.7,85.6,150.1,177,691,0
R,,313030,-1.065,1.963,0.075,136.7,50.3,68.8,210,679,0
R,,313089,-0.749,1.434,0.858,-139.7,-122.8,-109.7,328,423,0
R,,313150,-0.896,1.258,0.016,-103.1,49.6,-181.6,772,849,0
R,,313209,-0.280,0.915,-0.378,-71.3,27.0,-93.2,815,882,0
R,,313269,-0.150,0.932,-0.396,-31.9,-4.9,-28.0,828,895,0
R,,313330,-0.153,0.938,-0.392,-17.1,-11.8,-5.4,832,897,0
R,,313419,-0.103,0.912,-0.345,-14.6,-15.6,4.4,826,898,0
R,,313480,0.008,0.947,-0.326,-13.6,-10.5,-6.3,788,868,0
R,,313540,-0.019,0.925,-0.345,-24.7,-23.8,-5.8,759,832,0
R,,313599,-0.064,0.959,-0.337,-29.6,-17.4,-6.0,691,764,0
R,,313660,0.026,1.135,-0.377,-68.8,-21.4,-16.2,526,676,0
R,,313719,0.077,1.297,-0.394,-94.1,-38.0,-42.6,288,514,0
R,,313780,0.681,1.586,-0.756,-146.0,-66.0,-106.9,241,838,0
R,,313839,-0.040,1.437,-0.709,-187.3,79.6,-181.6,46,285,0
R,,313900,0.158,0.494,-0.497,-99.2,-95.2,-66.5,206,329,0
R,,313959,0.261,0.154,-0.653,69.0,-48.1,89.8,187,619,0
R,,314020,0.083,0.345,-0.172,172.2,68.0,136.9,260,511,0
R,,314110,0.194,1.241,-0.265,228.3,85.2,150.4,192,633,0
R,,314169,-0.164,1.832,-0.355,238.6,134.0,135.1,154,341,0
R,,314259,-0.739,1.586,-0.114,85.8,104.0,52.0,205,575,0
R,,314320,-0.333,2.645,0.195,-62.8,55.5,-155.4,247,511,0
R,,314379,0.371,0.955,-0.846,-42.8,-93.9,-122.2,581,640,0
R,,314469,-0.017,0.951,-0.308,-27.3,-0.7,-87.7,811,882,0
R,,314530,-0.051,0.975,-0.411,-20.3,-1.4,-43.2,823,895,0
R,,314589,-0.021,0.959,-0.318,-20.5,-4.1,-11.4,831,897,0
R,,314650,0.011,0.943,-0.326,-15.8,-3.2,0.4,827,899,0
R,,314740,0.051,0.944,-0.278,-19.0,-6.3,-1.9,821,898,0
R,,314799,0.015,0.968,-0.344,-30.5,4.4,1.5,810,893,0
R,,314860,-0.020,0.950,-0.130,-50.8,-6.5,8.8,761,884,0
R,,314919,0.064,1.060,-0.258,-62.0,-3.1,2.3,607,798,0
R,,314980,0.100,1.191,-0.351,-104.9,-9.5,-5.9,568,785,0
R,,315040,0.538,1.504,-0.409,-144.6,16.0,-73.0,386,804,0
R,,315099,0.248,1.375,-0.793,-185.0,44.5,-78.1,119,541,0
R,,315160,0.111,0.810,-0.378,-119.4,-15.1,-66.2,110,234,0
R,,315219,-0.125,0.252,-0.646,5.8,256.2,12.6,235,373,0
R,,315280,-0.202,0.341,-0.326,69.6,207.6,93.3,230,547,0
R,,315339,-0.232,0.811,-0.471,105.3,159.6,150.0,248,614,0
R,,315400,-0.462,1.088,-0.620,134.0,138.2,144.8,273,652,0
R,,315459,-0.437,1.266,-0.660,207.1,163.9,99.6,228,650,0
R,,315520,-0.618,1.352,-0.559,204.2,103.0,69.0,229,666,0
R,,316024,0.004,0.943,-0.330,-11.1,-12.8,-1.0,830,899,0
R,,316034,0.013,0.949,-0.303,-11.3,-12.0,-1.1,826,896,0
R,,316060,0.020,0.949,-0.271,-5.8,-9.5,0.7,826,898,0
R,,316120,-0.071,0.937,-0.418,-14.1,-12.1,-0.7,822,894,0
R,,316179,0.058,0.990,-0.376,-28.4,-12.8,-4.6,819,895,0
R,,316240,0.095,0.991,-0.333,-49.1,-9.4,-8.6,781,882,0
R,,316299,0.125,1.296,-0.512,-93.3,-21.4,-27.2,577,824,0
R,,316360,0.371,1.510,-0.647,-140.9,-49.2,-60.6,376,842,0
R,,316419,0.617,1.370,-0.867,-195.4,15.6,-143.9,161,546,0
R,,316480,-0.220,1.317,-0.551,-148.6,-53.9,-113.3,104,364,0
R,,316540,-0.171,0.062,0.040,2.5,103.1,24.3,198,552,0
R,,316600,0.055,0.268,-0.208,98.7,117.8,86.3,258,618,0
R,,316660,-0.047,0.678,-0.368,171.3,142.3,146.1,285,659,0
R,,316719,-0.083,1.101,-0.493,204.0,124.6,173.1,314,674,0
R,,316780,-0.494,1.620,-0.587,244.6,100.5,157.5,196,641,0
R,,316839,-0.800,1.787,0.034,190.1,65.2,100.3,185,666,0
R,,316900,-0.376,2.591,-0.448,-44.5,-87.9,-57.3,266,685,0
R,,316959,1.493,1.201,-0.411,-82.8,-29.0,-154.5,711,799,0
R,,317020,-0.366,0.932,-0.090,-73.3,55.8,-136.0,808,883,0
R,,317080,-0.054,0.979,-0.271,-29.1,-14.0,-45.0,824,895,0
R,,317140,-0.057,0.965,-0.399,-23.8,-3.0,-17.5,827,898,0
R,,317200,-0.109,0.927,-0.378,-25.7,-7.3,-2.5,809,898,0
R,,317259,-0.100,0.923,-0.263,-17.6,-11.8,8.4,762,872,0
R,,317319,-0.025,0.955,-0.258,-14.7,-10.1,10.3,724,839,0
R,,317379,0.003,0.965,-0.327,-23.7,-1.3,8.8,755,871,0
R,,317440,0.089,0.994,-0.270,-38.4,1.9,3.2,713,830,0
R,,317530,0.104,1.132,-0.308,-76.8,-9.1,-2.3,565,764,0
R,,317589,0.200,1.324,-0.521,-124.1,-25.0,-17.7,287,715,0
R,,317650,0.471,1.547,-1.011,-192.2,60.5,-103.1,179,748,0
R,,317709,-0.528,1.777,-0.581,-211.8,13.8,-99.9,106,75,0
R,,317770,0.274,-0.214,0.614,-92.3,176.4,-46.7,164,361,0
R,,317830,-0.169,0.208,-0.502,34.6,235.5,65.3,216,447,0
R,,317890,-0.160,0.664,-0.589,80.9,175.0,160.5,247,605,0
R,,317950,-0.070,1.008,-0.432,143.0,166.8,175.7,320,610,0
R,,318009,-0.358,1.279,-0.552,197.0,172.3,150.0,253,664,0
R,,318070,-0.735,1.552,-0.558,189.7,146.0,102.6,255,686,0
R,,318129,-0.979,1.426,-0.011,103.3,50.6,51.1,222,594,0
R,,318219,0.886,0.968,-0.676,-34.9,-45.7,-104.1,672,776,0
R,,318310,-0.119,0.903,-0.244,-16.3,25.6,-95.4,808,882,0
R,,318370,-0.094,0.953,-0.349,-11.4,-9.8,-30.4,820,891,0
R,,318459,-0.033,0.975,-0.281,-8.8,-7.9,-12.2,824,895,0
R,,318520,-0.064,0.931,-0.337,-17.4,-4.4,-4.0,806,877,0
R,,318580,0.038,0.973,-0.247,-18.8,-9.5,-5.0,792,835,0
R,,318640,-0.086,0.927,-0.219,-20.5,-7.6,-3.1,801,887,0
R,,318700,-0.006,0.990,-0.220,-32.5,-12.8,1.8,722,822,0
R,,318759,0.087,1.008,-0.221,-45.9,-5.8,-0.2,554,703,0
R,,319264,-0.395,1.177,-0.703,213.2,190.6,121.8,248,640,0
R,,319274,-0.443,1.198,-0.752,228.9,184.7,119.8,233,634,0
R,,319299,-0.529,1.341,-0.760,253.4,164.2,115.5,254,635,0
R,,319360,-0.581,1.589,-0.316,200.4,28.0,123.3,275,697,0
R,,319419,-0.931,1.604,0.175,46.4,-32.3,43.2,244,610,0
R,,319480,0.441,0.675,0.578,-140.2,-105.2,-68.1,420,602,0
R,,319540,-0.435,1.509,0.346,-122.5,71.4,-146.1,746,813,0
R,,319600,-0.373,0.881,-0.360,-46.0,45.7,-100.1,806,878,0
R,,319660,-0.124,0.898,-0.392,-28.2,-9.3,-29.8,821,889,0
R,,319720,-0.009,0.932,-0.335,-11.6,4.1,-28.4,826,892,0
R,,319780,-0.099,0.944,-0.335,-19.6,-8.2,-12.9,825,893,0
R,,319839,-0.086,0.938,-0.325,-15.0,-13.2,-8.1,827,895,0
R,,319900,-0.084,0.951,-0.416,-1.1,-14.6,-3.9,796,867,0
R,,319959,-0.124,0.962,-0.323,-16.3,-17.0,-9.4,762,828,0
R,,320020,-0.155,0.990,-0.430,-30.4,-21.6,-12.6,758,843,0
R,,320080,0.040,1.183,-0.501,-65.3,-33.2,-26.3,575,689,0
R,,320140,0.130,1.228,-0.358,-80.7,-32.0,-52.9,600,884,0
R,,320200,0.107,1.567,-0.872,-130.2,-94.9,-87.0,351,846,0
R,,320260,0.070,1.622,-0.562,-158.1,-32.2,-135.3,43,506,0
R,,320320,-0.001,0.001,-0.177,-78.7,-117.4,-75.4,132,370,0
R,,320379,0.617,0.188,-0.155,45.2,-68.9,39.4,250,612,0
R,,320439,0.201,0.335,-0.129,164.4,77.8,64.8,223,565,0
R,,320500,0.002,0.781,-0.298,242.6,87.1,137.9,260,627,0
R,,320560,0.130,1.231,-0.319,242.0,27.5,188.7,273,668,0
R,,320620,-0.158,1.841,-0.472,242.3,8.4,193.4,267,652,0
R,,320680,-0.880,1.882,0.333,110.6,-2.6,101.5,205,713,0
R,,320740,-0.718,1.117,0.582,-131.3,-160.7,-78.3,372,443,0
R,,320799,-1.050,1.351,0.007,-121.5,78.4,-170.9,759,834,0
R,,320860,-0.432,0.848,-0.269,-48.0,40.9,-79.3,810,879,0
R,,320919,-0.218,0.899,-0.427,-23.1,-7.8,-23.3,826,894,0
R,,320980,-0.131,0.929,-0.440,-13.7,-8.8,-5.0,830,897,0
R,,321083,-0.124,0.887,-0.462,-5.5,-15.7,0.9,828,895,0
R,,321100,-0.085,0.886,-0.457,-6.2,-22.4,-1.5,825,895,0
R,,321160,-0.087,0.918,-0.462,-11.7,-27.3,-5.1,821,892,0
R,,321220,-0.068,0.952,-0.395,-18.6,-25.0,-12.6,809,888,0
R,,321280,-0.001,1.001,-0.499,-38.7,-35.2,-24.0,542,701,0
R,,321370,-0.038,1.375,-0.755,-100.7,-75.8,-64.1,558,788,0
R,,321430,0.616,1.329,-0.738,-142.8,-123.3,-119.6,107,553,0
R,,321490,-0.618,1.589,0.009,-163.8,-11.4,-137.0,151,617,0
R,,321550,-1.138,-0.536,-0.007,-27.7,-146.0,-26.9,198,494,0
R,,321610,0.665,0.237,-0.150,81.9,-121.4,67.9,177,525,0
R,,321669,0.218,0.555,-0.039,203.4,3.5,138.3,250,629,0
R,,321730,0.099,1.019,-0.169,224.4,-22.8,173.0,271,641,0
R,,321790,0.102,1.336,-0.223,229.9,-27.6,176.9,198,638,0
R,,321850,-0.426,1.939,-0.068,201.8,-42.4,172.8,91,607,0
R,,321910,-1.059,2.033,0.453,11.5,-204.7,64.3,189,656,0
R,,322655,0.844,1.323,-0.836,-108.1,-214.9,-127.6,182,740,0
R,,322665,0.795,1.432,-0.774,-111.1,-186.3,-138.8,110,624,0
R,,322690,0.284,1.533,-0.362,-175.8,-69.0,-140.0,77,664,0
R,,322750,-0.009,-0.185,-0.203,-28.2,-212.3,-64.5,200,538,0
R,,322810,0.793,0.276,-0.461,113.6,-137.2,39.5,147,524,0
R,,322900,0.391,0.782,-0.231,260.1,-23.5,152.8,306,699,0
R,,322959,0.525,1.321,-0.204,277.6,-41.2,206.7,243,634,0
R,,323020,0.131,1.924,-0.203,211.8,-15.1,230.5,202,635,0
R,,323080,-0.741,1.827,0.182,122.9,-89.0,163.6,128,658,0
R,,323140,-0.752,1.790,0.652,-91.9,-92.6,-18.4,206,689,0
R,,323200,1.723,0.438,-0.791,-50.4,-139.0,-98.2,535,631,0
R,,323260,0.258,1.073,-0.121,-119.4,47.3,-83.8,783,853,0
R,,323320,-0.165,0.962,-0.381,-47.3,1.9,-38.4,821,892,0
R,,323380,-0.213,0.870,-0.399,-32.9,-2.8,-6.0,827,895,0
R,,323440,-0.140,0.904,-0.401,-19.1,-11.5,2.3,830,898,0
R,,323500,-0.117,0.904,-0.395,-15.2,-19.1,6.7,824,897,0
R,,323559,-0.066,0.910,-0.399,-10.2,-14.1,1.4,823,900,0
R,,323620,-0.129,0.908,-0.379,-16.2,-18.1,-3.5,822,895,0
R,,323680,-0.088,0.955,-0.411,-24.5,-17.0,-10.9,810,893,0
R,,323740,-0.161,0.968,-0.424,-39.4,-19.7,-18.5,619,750,0
R,,323800,-0.039,1.147,-0.382,-77.6,-33.6,-31.9,512,731,0
R,,323860,-0.045,1.334,-0.460,-113.4,-62.0,-68.2,591,855,0
R,,323919,0.623,1.386,-0.955,-142.6,-87.4,-117.5,154,736,0
R,,323980,-0.729,1.794,-0.397,-138.3,-96.2,-147.0,83,643,0
R,,324040,-0.875,-0.166,0.280,-46.9,-197.0,-19.7,230,572,0
R,,324130,0.416,0.236,0.154,147.0,-25.2,56.0,224,624,0
R,,324190,0.278,0.590,-0.181,256.2,52.9,126.9,235,631,0
R,,324250,0.163,1.167,-0.269,273.1,23.9,183.0,265,658,0
R,,324310,-0.184,1.814,-0.328,246.0,-0.9,207.4,171,685,0
R,,324370,-0.638,1.972,-0.079,158.2,-88.3,142.4,119,653,0
R,,324430,-0.593,2.030,0.208,-23.3,-166.2,23.8,237,669,0
R,,324490,1.833,0.886,-1.428,-53.9,-93.3,-59.0,640,745,0
R,,324550,0.056,0.867,-0.102,-88.1,76.7,-106.8,794,868,0
R,,324610,-0.200,0.964,-0.453,-50.4,-5.8,-34.8,820,890,0
R,,324670,-0.141,0.860,-0.440,-17.0,-12.3,-7.5,826,895,0
R,,324730,-0.193,0.858,-0.501,-10.9,-8.9,-0.3,828,897,0
R,,324790,-0.094,0.854,-0.521,-6.7,-18.1,6.3,824,896,0
R,,324849,-0.092,0.881,-0.441,-13.0,-24.7,2.6,820,895,0
R,,324910,-0.137,0.890,-0.463,-18.6,-32.4,2.4,807,886,0
R,,324970,-0.091,0.856,-0.383,-20.0,-26.6,-7.4,558,632,0
R,,325030,-0.224,0.988,-0.516,-30.5,-34.9,-9.5,667,835,0
R,,325090,-0.049,1.050,-0.509,-37.7,-31.9,-25.4,271,334,0
R,,325150,-0.049,1.126,-0.463,-65.1,-48.7,-52.1,519,678,0
R,,325209,0.153,1.369,-0.604,-96.2,-85.1,-83.9,460,796,0
R,,325270,0.026,1.438,-0.497,-105.3,-21.1,-126.4,123,651,0
R,,325330,-0.366,1.252,-0.623,-73.5,-65.5,-110.4,116,552,0
R,,325834,0.784,0.788,-0.874,-66.4,-79.3,-96.6,577,648,0
R,,325844,0.944,1.347,-0.387,-87.4,-33.8,-99.3,545,635,0
R,,325870,-0.507,0.973,-0.244,-101.2,81.9,-158.7,750,833,0
R,,325930,-0.483,0.859,-0.288,-46.2,40.4,-76.5,804,879,0
R,,325990,-0.146,0.861,-0.390,-33.1,-16.1,-21.2,820,892,0
R,,326050,-0.085,0.894,-0.409,-12.1,-2.9,-13.7,827,894,0
R,,326139,-0.099,0.898,-0.466,-13.0,-13.7,3.3,831,896,0
R,,326200,-0.175,0.800,-0.340,-23.0,-16.6,9.4,828,896,0
R,,326260,0.006,0.888,-0.482,-12.8,-20.8,1.5,828,898,0
R,,326350,-0.072,0.924,-0.450,-22.0,-25.3,-3.0,807,880,0
R,,326453,-0.102,0.929,-0.436,-54.7,-22.6,-13.7,712,821,0
R,,326500,-0.096,1.133,-0.369,-76.4,-11.6,-22.4,565,757,0
R,,326590,-0.049,1.397,-0.475,-104.7,-60.6,-44.3,446,759,0
R,,326680,0.376,1.220,-0.427,-135.0,8.8,-143.1,69,539,0
R,,326740,-0.134,1.322,-0.317,-94.3,-38.1,-97.7,143,657,0
R,,326800,-0.936,-0.022,0.261,-38.7,-82.7,-9.1,238,548,0
R,,326860,0.350,0.321,-0.067,60.1,-42.7,59.0,179,578,0
R,,326950,0.043,0.854,-0.117,167.2,29.6,135.1,277,593,0
R,,327010,0.115,1.145,-0.230,183.4,24.5,153.2,278,627,0
R,,327070,0.100,1.362,-0.320,198.3,32.4,159.4,158,597,0
R,,327130,-0.387,1.626,-0.150,189.4,51.2,140.5,136,705,0
R,,327190,-0.549,1.507,-0.066,67.4,2.1,69.3,161,726,0
R,,327250,-0.723,1.572,0.078,-84.6,-142.6,-58.6,377,603,0
R,,327310,0.690,1.274,-0.387,-71.2,-68.9,-87.2,629,713,0
R,,327370,0.065,0.726,-0.314,-44.4,25.1,-106.8,781,860,0
R,,327429,-0.118,0.904,-0.340,-37.5,8.8,-50.8,809,881,0
R,,327490,-0.017,0.914,-0.426,-17.5,-12.6,-21.4,819,891,0
R,,327550,-0.039,0.898,-0.429,-7.1,-5.0,-23.9,825,896,0
R,,327610,-0.168,0.883,-0.457,-9.2,-10.9,-9.0,827,898,0
R,,327700,-0.081,0.911,-0.378,-8.2,-9.4,3.0,830,899,0
R,,327760,-0.063,0.908,-0.343,2.3,-7.9,2.2,831,900,0
R,,327820,-0.076,0.924,-0.421,-3.9,-9.0,4.4,832,900,0
R,,327880,-0.049,0.918,-0.457,-14.3,-10.1,2.5,829,898,0
R,,327940,0.040,0.946,-0.438,-37.2,-11.9,-10.9,825,895,0
R,,328043,-0.191,1.019,-0.269,-82.3,-15.3,-4.8,694,758,0
R,,328060,-0.090,1.066,-0.293,-83.3,-17.6,-2.1,614,733,0
R,,328150,0.102,1.421,-0.496,-111.0,-55.1,-27.0,420,779,0
R,,328210,0.164,1.149,-0.369,-119.1,-26.6,-83.0,131,735,0
R,,328270,-0.656,1.338,0.110,-139.3,-3.5,-106.6,112,563,0
R,,328330,0.030,-0.145,0.078,-19.5,-59.1,9.1,189,529,0
R,,328390,0.261,0.431,0.154,62.6,-7.4,72.1,251,508,0
R,,328480,-0.109,0.944,0.191,130.2,122.4,78.8,277,475,0
R,,328541,-0.319,1.243,0.022,111.6,156.2,70.0,333,531,0
R,,328630,-0.585,1.222,-0.061,48.0,46.6,43.4,340,538,0
R,,328690,-0.306,1.183,-0.035,29.4,9.9,-7.1,331,508,0
R,,328750,-0.238,0.897,0.037,-5.1,-21.0,-0.9,419,572,0
R,,329254,0.046,0.934,-0.355,5.6,-5.3,-0.2,702,788,0
R,,329264,0.043,0.932,-0.357,4.6,-5.2,-0.5,685,769,0
R,,329291,0.039,0.935,-0.355,1.4,-4.1,-1.5,715,800,0
R,,329350,0.020,0.933,-0.318,4.2,-4.4,0.0,709,793,0
R,,329410,0.016,0.936,-0.344,5.7,-6.1,3.0,667,748,0
R,,329470,0.036,0.921,-0.362,8.4,-7.1,5.3,663,741,0
R,,329530,0.047,0.928,-0.376,3.6,-6.6,1.2,644,720,0
R,,329590,0.052,0.929,-0.375,2.5,-5.6,0.2,716,801,0
R,,329650,0.041,0.927,-0.368,1.8,-4.4,-0.8,739,825,0
R,,329710,0.042,0.924,-0.382,0.8,-3.7,-1.6,661,735,0
R,,329770,0.044,0.928,-0.377,-1.1,-3.4,-2.8,722,802,0
R,,329831,0.035,0.926,-0.361,-1.6,-2.8,-3.2,708,783,0
R,,329890,0.023,0.926,-0.359,-0.5,-3.6,-2.4,714,793,0
R,,329950,0.030,0.926,-0.358,0.9,-3.7,-1.4,751,830,0
R,,330009,0.029,0.928,-0.368,2.0,-3.7,-1.3,760,841,0
R,,330070,0.030,0.925,-0.373,1.9,-3.6,-1.3,738,818,0
R,,330160,0.034,0.927,-0.378,0.6,-3.5,-2.4,752,830,0
R,,330220,0.024,0.926,-0.369,1.0,-3.3,-1.9,743,819,0
R,,330280,0.023,0.922,-0.372,2.0,-3.8,-1.7,748,823,0
R,,330340,0.035,0.927,-0.373,2.5,-3.3,-2.2,769,847,0
R,,330400,0.021,0.922,-0.379,1.7,-2.8,-2.0,773,851,0
R,,330460,0.024,0.922,-0.379,0.9,-3.4,-1.5,771,849,0
R,,330520,0.020,0.923,-0.369,0.7,-3.6,-1.5,777,855,0
R,,330581,0.016,0.920,-0.382,1.2,-3.7,-1.2,778,854,0
R,,330640,0.019,0.923,-0.378,0.7,-3.6,-0.9,775,850,0
R,,330700,0.017,0.922,-0.384,0.0,-3.9,-1.4,772,847,0
R,,330760,0.020,0.922,-0.385,0.7,-3.7,-1.2,773,848,0
R,,330820,0.017,0.924,-0.378,0.2,-3.5,-0.8,772,847,0
R,,330880,0.019,0.918,-0.382,0.0,-3.4,-0.8,771,848,0
R,,330940,0.019,0.922,-0.376,-0.1,-3.5,-1.2,773,847,0
R,,331000,0.017,0.923,-0.380,0.0,-3.4,-1.1,774,849,0
R,,331060,0.020,0.922,-0.376,0.1,-3.3,-1.1,774,852,0
R,,331121,0.016,0.924,-0.379,0.4,-3.5,-0.9,775,848,0
R,,331180,0.016,0.923,-0.376,0.4,-3.2,-0.9,774,848,0
R,,331240,0.015,0.920,-0.382,0.7,-3.4,-1.3,774,850,0
R,,331299,0.016,0.924,-0.379,0.3,-3.0,-0.7,777,849,0
R,,331360,0.014,0.921,-0.379,0.0,-3.3,-1.1,778,849,0
R,,331450,0.020,0.925,-0.382,0.3,-3.3,-0.9,775,849,0
R,,331510,0.015,0.921,-0.380,0.5,-3.5,-0.7,778,852,0
R,,331570,0.016,0.925,-0.379,0.5,-3.6,-0.7,778,852,0
R,,331630,0.020,0.924,-0.379,0.7,-3.5,-1.0,779,855,0
R,,331690,0.012,0.918,-0.383,0.5,-3.2,-0.7,780,855,0
R,,331750,0.019,0.920,-0.378,0.7,-3.5,-0.5,771,846,0
R,,331840,0.017,0.922,-0.388,2.0,-3.5,-0.3,774,849,0
R,,331900,0.018,0.919,-0.386,0.7,-3.5,-0.4,776,850,0
R,,331960,0.021,0.921,-0.382,-0.3,-2.9,-0.7,775,850,0
R,,332464,0.017,0.923,-0.376,0.1,-3.2,-0.7,784,858,0
R,,332474,0.017,0.920,-0.382,0.2,-3.2,-0.9,779,854,0
R,,332500,0.018,0.925,-0.378,0.1,-3.0,-0.6,778,853,0
R,,332560,0.015,0.921,-0.381,-0.1,-3.0,-0.9,779,852,0
R,,332621,0.015,0.925,-0.373,0.0,-3.1,-0.6,780,855,0
R,,332680,0.019,0.924,-0.380,0.2,-3.0,-0.7,779,853,0
R,,332740,0.016,0.924,-0.378,-0.2,-3.1,-0.8,777,852,0
R,,332800,0.017,0.922,-0.373,0.5,-3.0,-0.4,769,841,0
R,,332860,0.021,0.922,-0.380,0.8,-3.0,-0.4,775,847,0
R,,332920,0.020,0.923,-0.381,-0.1,-3.2,-0.3,776,849,0
R,,333010,0.020,0.922,-0.374,0.0,-2.9,-0.5,778,850,0
R,,333070,0.021,0.921,-0.375,-0.3,-3.3,-0.2,777,852,0
R,,333130,0.018,0.922,-0.378,-0.7,-3.3,-0.7,777,851,0
R,,333220,0.020,0.925,-0.369,0.1,-3.2,-0.4,778,849,0
R,,333280,0.021,0.925,-0.372,-0.3,-3.2,-0.5,779,852,0
R,,333340,0.021,0.924,-0.369,0.1,-3.0,-0.2,779,851,0
R,,333400,0.019,0.924,-0.371,0.9,-3.2,0.0,779,852,0
R,,333460,0.020,0.922,-0.376,0.9,-3.5,0.0,782,853,0
R,,333520,0.022,0.927,-0.373,0.5,-3.4,-0.3,778,850,0
R,,333581,0.025,0.924,-0.376,0.9,-3.2,-0.6,772,842,0
R,,333640,0.022,0.923,-0.374,0.9,-3.2,-0.7,772,843,0
R,,333701,0.022,0.922,-0.374,0.5,-3.2,-0.7,770,842,0
R,,333803,0.024,0.923,-0.377,0.4,-3.2,-0.9,775,845,0
R,,333820,0.020,0.920,-0.375,0.5,-3.0,-0.9,776,848,0
R,,333880,0.021,0.921,-0.373,0.5,-3.2,-0.8,776,847,0
R,,333940,0.022,0.921,-0.376,0.9,-3.2,-0.6,774,846,0
R,,334000,0.026,0.922,-0.383,0.8,-3.5,-0.7,739,810,0
R,,334060,0.021,0.924,-0.375,1.0,-3.4,-0.7,757,829,0
R,,334121,0.022,0.921,-0.379,0.9,-3.3,-0.4,761,832,0
R,,334180,0.023,0.926,-0.379,0.2,-3.3,-0.7,765,835,0
R,,334241,0.022,0.922,-0.380,0.4,-3.3,-0.7,767,837,0
R,,334300,0.028,0.922,-0.382,0.0,-3.4,-1.0,768,839,0
R,,334360,0.024,0.920,-0.384,0.7,-3.0,-0.8,767,836,0
R,,334420,0.022,0.920,-0.384,0.7,-3.3,-0.7,767,838,0
R,,334480,0.020,0.924,-0.381,0.6,-3.1,-0.5,769,839,0
R,,334541,0.026,0.924,-0.379,0.2,-3.5,-0.7,772,841,0
R,,334600,0.023,0.923,-0.379,-0.2,-3.0,-0.8,774,845,0
R,,334661,0.024,0.920,-0.379,0.0,-3.1,-1.0,775,846,0
R,,334720,0.023,0.922,-0.381,-0.2,-2.9,-0.8,778,848,0
R,,334810,0.018,0.923,-0.377,0.0,-3.1,-0.8,778,848,0
R,,334871,0.022,0.921,-0.381,0.3,-3.2,-0.4,778,845,0
R,,334930,0.021,0.922,-0.377,0.0,-3.2,-0.6,776,848,0
R,,334991,0.024,0.924,-0.375,0.0,-3.1,-0.5,776,848,0
R,,335050,0.024,0.922,-0.378,-0.2,-3.0,-0.8,775,845,0
R,,335110,0.022,0.923,-0.373,0.4,-3.4,-0.6,775,845,0
R,,335170,0.020,0.924,-0.379,0.8,-3.4,-0.6,777,847,0
R,,335915,0.023,0.920,-0.378,-0.3,-3.1,-0.5,783,852,0
R,,335925,0.025,0.920,-0.378,-0.2,-3.1,-0.6,781,851,0
R,,335951,0.027,0.924,-0.377,-0.1,-3.2,-0.4,782,852,0
R,,336010,0.026,0.923,-0.379,-0.7,-3.3,-0.7,785,859,0
R,,336070,0.025,0.923,-0.380,-1.1,-3.4,-1.1,790,860,0
R,,336161,0.026,0.927,-0.373,-1.0,-3.2,-1.5,791,861,0
R,,336250,0.021,0.924,-0.370,-0.3,-3.2,-0.9,792,862,0
R,,336340,0.021,0.924,-0.370,0.0,-3.5,-0.8,789,859,0
R,,336400,0.028,0.927,-0.370,1.1,-3.2,-0.8,787,860,0
R,,336460,0.023,0.924,-0.371,1.8,-2.8,-0.4,788,859,0
R,,336520,0.024,0.921,-0.380,1.8,-3.2,-0.2,789,860,0
R,,336581,0.029,0.921,-0.382,0.4,-3.2,-0.7,788,859,0
R,,336640,0.025,0.925,-0.375,0.0,-3.2,-0.7,789,859,0
R,,336701,0.023,0.921,-0.374,0.1,-3.3,-0.7,789,859,0
R,,336760,0.026,0.925,-0.372,0.0,-3.2,-0.8,789,861,0
R,,336821,0.023,0.922,-0.374,-0.1,-3.2,-1.0,789,859,0
R,,336880,0.020,0.924,-0.376,-0.7,-3.5,-1.4,793,863,0
R,,336940,0.021,0.922,-0.367,0.0,-3.2,-1.4,793,864,0
R,,337043,0.023,0.926,-0.374,-1.1,-2.7,-2.8,793,866,0
R,,337060,0.020,0.925,-0.368,-1.1,-2.9,-2.7,795,867,0
R,,337121,0.016,0.928,-0.363,-0.4,-3.2,-1.0,798,869,0
R,,337180,0.013,0.925,-0.360,2.2,-4.2,0.8,796,867,0
R,,337241,0.026,0.924,-0.372,3.0,-4.2,1.1,796,864,0
R,,337300,0.026,0.923,-0.383,1.4,-2.8,-17.9,796,869,0
R,,337390,0.022,0.924,-0.372,0.6,-3.3,0.0,796,870,0
R,,337451,0.027,0.927,-0.372,1.8,-3.9,0.0,796,868,0
R,,337510,0.023,0.922,-0.379,2.3,-3.9,0.4,796,868,0
R,,337600,0.029,0.923,-0.373,2.0,-3.1,0.0,795,866,0
R,,337661,0.023,0.916,-0.382,3.0,-2.3,0.6,796,866,0
R,,337720,0.025,0.920,-0.383,2.5,-3.0,0.7,795,868,0
R,,337781,0.039,0.920,-0.395,0.4,-2.8,-0.9,795,868,0
R,,337840,0.032,0.918,-0.389,-2.1,-2.5,-2.1,794,868,0
R,,337900,0.027,0.922,-0.375,-1.1,-2.9,-1.1,796,869,0
R,,337960,0.025,0.919,-0.379,-0.2,-3.2,-0.7,799,870,0
R,,338020,0.026,0.922,-0.383,-0.2,-3.7,-0.5,798,869,0
R,,338081,0.031,0.922,-0.377,-1.0,-3.4,-1.4,799,869,0
R,,338170,0.026,0.925,-0.376,-1.1,-3.2,-1.3,801,872,0
R,,338230,0.030,0.923,-0.374,-0.2,-3.0,-1.1,799,871,0
R,,338291,0.025,0.925,-0.379,0.0,-3.0,-0.8,800,871,0
R,,338350,0.026,0.925,-0.374,0.2,-3.2,-0.8,799,869,0
R,,338411,0.026,0.925,-0.374,0.6,-3.4,-0.5,799,870,0
R,,338470,0.026,0.924,-0.373,1.2,-3.2,-0.2,800,870,0
R,,338531,0.026,0.925,-0.380,0.9,-3.5,-0.4,799,871,0
R,,338590,0.026,0.921,-0.381,0.4,-3.2,-0.7,802,872,0
R,,338650,0.026,0.923,-0.375,0.3,-3.5,-0.7,799,871,0
R,,338710,0.028,0.922,-0.379,0.5,-3.2,-0.7,802,872,0
R,,339215,0.028,0.923,-0.374,1.4,-3.5,-0.3,804,875,0
R,,339225,0.025,0.925,-0.378,1.3,-3.3,-0.3,800,870,0
R,,339250,0.026,0.921,-0.385,1.4,-3.0,-0.6,802,871,0
R,,339310,0.027,0.921,-0.376,0.7,-3.6,-0.6,800,871,0
R,,339401,0.028,0.920,-0.381,0.6,-3.2,-0.7,802,871,0
R,,339460,0.031,0.918,-0.382,0.2,-3.4,-0.7,801,873,0
R,,339520,0.028,0.923,-0.379,0.2,-3.2,-0.9,802,871,0
R,,339581,0.025,0.923,-0.383,0.0,-3.5,-0.9,800,871,0
R,,339640,0.024,0.922,-0.380,0.1,-3.2,-0.6,803,872,0
R,,339730,0.027,0.923,-0.378,-0.1,-3.4,-0.8,801,871,0
R,,339791,0.029,0.923,-0.380,0.0,-3.1,-0.7,801,872,0
R,,339850,0.024,0.924,-0.376,-0.1,-3.1,-0.8,802,872,0
R,,339911,0.025,0.921,-0.377,0.2,-3.1,-0.7,802,872,0
R,,339970,0.024,0.922,-0.377,0.4,-3.2,-0.5,801,871,0
R,,340031,0.025,0.921,-0.377,0.8,-2.9,-0.2,802,873,0
R,,340090,0.026,0.921,-0.375,0.9,-3.7,0.1,803,876,0
R,,340151,0.037,0.922,-0.384,1.4,-2.7,-0.2,802,871,0
R,,340210,0.017,0.919,-0.381,-0.4,-3.5,-0.4,802,871,0
R,,340270,0.036,0.923,-0.375,1.3,-3.5,0.3,801,873,0
R,,340331,0.036,0.922,-0.389,0.4,-3.1,-0.2,802,873,0
R,,340390,0.028,0.921,-0.379,-0.2,-2.8,-0.7,803,872,0
R,,340451,0.028,0.923,-0.378,-0.4,-3.1,-0.8,802,874,0
R,,340510,0.035,0.925,-0.381,0.2,-2.7,-1.0,802,872,0
R,,340571,0.024,0.917,-0.378,-0.4,-3.2,-0.5,803,874,0
R,,340630,0.022,0.917,-0.374,0.6,-4.7,0.2,804,873,0
R,,340720,0.034,0.924,-0.380,3.5,-5.4,1.6,796,865,0
R,,340781,0.033,0.918,-0.390,3.1,-5.5,2.0,808,881,0
R,,340840,0.040,0.918,-0.387,2.3,-4.3,1.3,806,879,0
R,,340901,0.042,0.916,-0.389,-0.4,-3.4,-1.1,795,866,0
R,,340960,0.042,0.921,-0.388,-1.7,-0.9,-3.5,778,846,0
R,,341020,0.032,0.917,-0.389,-4.2,0.2,-4.9,789,857,0
R,,341081,0.026,0.924,-0.368,-3.5,-0.5,-4.6,783,853,0
R,,341140,0.023,0.922,-0.368,-0.8,-2.3,-3.1,766,833,0
R,,341201,0.020,0.919,-0.378,0.2,-3.3,-2.3,783,855,0
R,,341260,0.033,0.933,-0.369,1.9,-4.6,-0.6,793,864,0
R,,341321,0.014,0.917,-0.382,2.9,-4.3,1.3,808,883,0
R,,341380,0.014,0.915,-0.373,3.0,-5.6,3.7,797,866,0
R,,341441,0.053,0.926,-0.383,3.0,-4.4,2.1,793,861,0
R,,341500,0.041,0.917,-0.396,-1.4,-1.5,-3.1,752,815,0
R,,341560,0.018,0.914,-0.376,-2.9,-1.6,-3.7,755,823,0
R,,341621,0.028,0.924,-0.369,0.1,-2.1,-2.8,767,834,0
R,,341680,0.024,0.920,-0.381,1.4,-2.6,-1.9,775,846,0
R,,341741,0.019,0.919,-0.386,1.4,-3.9,-0.3,820,891,0
R,,341831,0.027,0.920,-0.386,0.7,-3.5,-0.7,734,799,0
R,,341890,0.023,0.919,-0.380,0.4,-3.5,-0.7,765,834,0
R,,341951,0.026,0.918,-0.384,1.3,-3.7,-0.2,743,809,0
R,,342455,0.034,0.921,-0.384,0.6,-2.6,-0.9,806,876,0
R,,342465,0.029,0.924,-0.385,0.6,-2.5,-1.1,803,872,0
R,,342491,0.028,0.921,-0.387,0.3,-2.4,-0.9,803,873,0
R,,342550,0.025,0.916,-0.383,-0.6,-2.9,-0.4,804,871,0
R,,342611,0.024,0.920,-0.379,0.0,-3.2,0.4,822,893,0
R,,342670,0.030,0.923,-0.372,1.1,-4.3,0.4,821,892,0
R,,342731,0.035,0.923,-0.380,4.1,-4.6,1.6,819,891,0
R,,342791,0.028,0.907,-0.394,2.3,-3.3,0.4,815,887,0
R,,342850,0.045,0.923,-0.378,2.7,-3.0,-0.7,812,885,0
R,,342911,0.040,0.916,-0.393,3.5,-1.4,-0.9,815,887,0
R,,342970,0.033,0.913,-0.410,-1.8,-1.2,-2.4,816,889,0
R,,343031,0.035,0.919,-0.378,-3.5,-2.3,-2.7,820,889,0
R,,343090,0.029,0.921,-0.383,-0.4,-2.9,-1.1,818,888,0
R,,343151,0.026,0.916,-0.386,0.4,-3.3,0.3,820,890,0
R,,343210,0.038,0.922,-0.386,0.1,-3.5,0.0,822,891,0
R,,343271,0.038,0.920,-0.385,-0.3,-2.3,-0.4,821,892,0
R,,343331,0.032,0.914,-0.380,-0.4,-3.0,-0.7,821,891,0
R,,343390,0.042,0.920,-0.384,-0.7,-1.8,-2.1,818,889,0
R,,343451,0.031,0.922,-0.383,-1.5,-1.6,-2.9,820,892,0
R,,343510,0.025,0.917,-0.382,-1.7,-2.4,-2.0,817,892,0
R,,343571,0.036,0.922,-0.386,-2.0,-3.1,-1.4,819,891,0
R,,343630,0.026,0.919,-0.369,-1.1,-3.5,-0.8,819,893,0
R,,343691,0.031,0.922,-0.373,0.5,-3.3,-0.7,819,893,0
R,,343750,0.030,0.924,-0.377,1.0,-3.3,-0.7,820,893,0
R,,343811,0.034,0.923,-0.373,0.3,-3.2,-1.1,822,894,0
R,,343871,0.029,0.925,-0.371,0.7,-3.5,-1.7,820,892,0
R,,343930,0.025,0.923,-0.373,0.8,-3.6,-1.0,820,891,0
R,,343990,0.030,0.920,-0.374,1.0,-3.6,-0.8,820,893,0
R,,344050,0.033,0.923,-0.388,0.4,-3.6,-0.9,820,891,0
R,,344111,0.028,0.924,-0.375,0.7,-3.7,-0.7,822,891,0
R,,344201,0.029,0.924,-0.381,1.1,-3.5,-0.7,821,894,0
R,,344260,0.033,0.924,-0.376,0.9,-2.8,-1.1,823,891,0
R,,344321,0.020,0.920,-0.376,0.8,-2.9,-0.4,779,848,0
R,,344380,0.024,0.919,-0.382,2.0,-3.2,1.8,745,810,0
R,,344441,0.031,0.915,-0.396,-0.1,-3.7,0.2,788,855,0
R,,344500,0.027,0.922,-0.387,-1.3,-2.8,0.8,789,857,0
R,,344561,0.036,0.924,-0.372,1.0,-2.4,2.1,729,793,0
R,,344621,0.060,0.926,-0.391,1.8,-0.4,2.6,740,807,0
R,,344680,0.040,0.921,-0.392,-3.0,0.7,2.5,700,774,0
R,,344741,0.067,0.923,-0.373,-8.2,-0.1,3.7,676,762,0
R,,344800,0.051,0.923,-0.369,-10.4,-1.1,1.8,605,707,0
R,,344861,0.055,0.936,-0.368,-13.0,-3.0,1.4,512,625,0
R,,344920,0.045,0.944,-0.320,-13.0,-10.1,4.6,477,644,0
R,,344981,0.044,0.948,-0.306,-4.2,-14.9,6.7,440,708,0
R,,345041,0.002,0.950,-0.303,11.8,-36.1,21.3,308,730,0
R,,345101,-0.385,1.117,-0.068,-10.1,-74.5,27.7,259,653,0
R,,345815,0.162,1.108,-0.302,73.7,14.5,12.9,588,809,0
R,,345825,0.119,1.101,-0.315,72.9,18.9,9.5,630,853,0
R,,345880,0.029,1.079,-0.232,58.6,29.0,-18.6,730,835,0
R,,345941,-0.014,0.991,-0.303,49.3,12.6,-11.4,807,897,0
R,,346031,-0.042,0.965,-0.316,33.7,-6.1,-1.5,817,900,0
R,,346090,-0.011,0.956,-0.330,31.0,-5.2,-1.2,820,899,0
R,,346151,-0.029,0.908,-0.389,25.6,-11.0,-2.1,823,900,0
R,,346210,-0.042,0.937,-0.369,23.1,-12.5,0.3,824,901,0
R,,346271,-0.046,0.916,-0.391,23.8,-2.3,-9.8,826,900,0
R,,346331,-0.014,0.915,-0.386,20.9,-7.4,-0.9,827,900,0
R,,346391,-0.020,0.908,-0.451,18.7,-8.7,1.4,831,900,0
R,,346494,-0.033,0.890,-0.465,13.0,-7.2,3.3,832,902,0
R,,346541,-0.047,0.879,-0.476,7.7,-6.2,4.0,831,901,0
R,,346644,-0.015,0.878,-0.476,-0.3,0.4,3.9,831,901,0
R,,346691,-0.039,0.869,-0.472,-1.0,-2.7,5.5,829,899,0
R,,346781,0.003,0.880,-0.472,-0.5,-3.2,3.9,830,898,0
R,,346840,-0.007,0.883,-0.453,-3.2,0.8,0.8,826,895,0
R,,346901,-0.005,0.886,-0.468,-4.9,0.2,1.4,825,893,0
R,,346991,-0.013,0.888,-0.453,-8.8,0.5,1.4,822,892,0
R,,347050,0.002,0.892,-0.446,-9.1,0.0,1.6,824,893,0
R,,347110,0.004,0.896,-0.441,-10.6,1.1,-0.2,822,894,0
R,,347201,0.008,0.908,-0.414,-14.5,3.8,-1.5,825,894,0
R,,347231,0.004,0.909,-0.417,-15.3,3.0,-1.0,826,894,0
R,,347291,0.005,0.903,-0.420,-18.2,3.2,-3.9,826,895,0
R,,347394,0.006,0.932,-0.369,-24.9,7.6,-8.7,826,895,0
R,,347441,0.005,0.945,-0.367,-34.4,4.5,-4.9,827,898,0
R,,347500,0.016,0.965,-0.395,-66.5,1.7,-5.8,824,894,0
R,,347561,-0.022,0.999,-0.374,-109.5,-7.9,9.2,815,900,0
R,,347621,0.308,1.750,-0.600,-144.2,-34.9,-25.1,737,898,0
R,,347681,0.276,1.432,-0.478,-160.5,-30.7,-74.2,643,880,0
R,,347741,0.041,1.333,-0.443,-136.2,38.4,-136.9,224,621,0
R,,347800,-0.032,0.329,0.253,-32.4,61.3,-39.7,337,596,0
R,,347861,0.024,0.316,-0.101,55.0,86.1,8.7,375,603,0
R,,347920,0.109,0.637,-0.120,119.2,95.7,71.8,346,526,0
R,,347981,-0.070,0.873,-0.257,135.8,70.6,125.6,370,570,0
R,,348041,0.012,1.131,-0.318,157.7,38.5,137.0,308,548,0
R,,348101,-0.010,1.384,-0.367,187.1,44.8,116.6,198,637,0
R,,348161,-0.196,1.357,-0.325,166.3,19.1,104.2,151,704,0
R,,348221,-0.108,1.350,-0.146,100.3,1.8,83.5,161,671,0
R,,348281,-0.044,2.224,-0.630,-16.3,-112.2,9.1,198,701,0
R,,348340,0.689,0.475,-0.970,-52.4,-157.7,-29.4,312,371,0
R,,348401,-0.402,0.949,-0.406,-84.0,25.0,-119.4,643,717,0
R,,348460,-0.258,0.764,-0.289,-53.8,32.6,-73.7,759,832,0
R,,348521,-0.107,0.865,-0.393,-30.2,-7.2,-37.6,812,884,0
R,,348581,0.050,0.936,-0.339,-8.0,-7.7,-20.5,825,892,0
R,,348641,-0.099,0.873,-0.465,5.7,-6.1,-13.7,829,898,0
R,,349145,-0.287,1.062,-0.794,-66.2,-44.9,-33.1,707,837,0
R,,349155,-0.099,1.029,-0.268,-43.4,-42.9,-32.9,557,752,0
R,,349181,0.108,1.129,-0.285,-58.7,-38.5,-41.2,617,852,0
R,,349241,-0.015,1.350,-0.592,-81.2,-81.8,-65.0,549,851,0
R,,349300,0.119,1.007,-0.689,-82.2,-122.5,-112.3,136,731,0
R,,349361,-0.544,1.326,0.119,-91.0,-119.4,-99.1,134,777,0
R,,349420,0.037,0.470,-0.109,-42.9,-197.8,-41.5,184,524,0
R,,349481,0.240,0.288,0.101,31.7,-135.3,55.0,101,404,0
R,,349541,0.425,0.402,0.259,128.3,27.5,68.0,169,573,0
R,,349601,0.086,0.858,-0.041,203.7,-3.5,139.7,259,597,0
R,,349661,0.266,1.227,-0.099,163.7,-40.3,163.4,269,585,0
R,,349721,0.166,1.401,-0.267,181.2,-37.1,150.9,210,603,0
R,,349781,0.117,1.407,-0.244,169.1,-22.0,140.7,161,656,0
R,,349871,-0.118,1.281,-0.032,66.3,-49.7,97.3,139,637,0
R,,349931,-0.345,1.104,0.012,-36.4,-105.3,40.6,179,674,0
R,,349991,0.683,0.385,-1.180,-52.7,-241.0,-6.3,247,314,0
R,,350051,-1.705,1.804,-0.038,-76.7,15.8,-110.5,776,852,0
R,,350111,-0.368,0.778,-0.513,-60.3,35.6,-52.4,806,875,0
R,,350214,0.021,0.901,-0.340,-4.7,9.8,-21.7,821,891,0
R,,350261,-0.171,0.965,-0.624,5.8,19.4,-10.5,823,891,0
R,,350321,-0.101,0.879,-0.466,-10.5,-6.0,-8.5,824,890,0
R,,350380,-0.036,0.889,-0.445,-10.2,-8.4,-9.1,828,895,0
R,,350441,-0.121,0.875,-0.451,-12.4,-13.5,-4.4,828,893,0
R,,350500,-0.056,0.911,-0.418,-10.2,-12.7,-5.4,831,898,0
R,,350561,-0.099,0.895,-0.410,-17.7,-20.3,-4.9,771,831,0
R,,350621,-0.100,0.928,-0.447,-26.5,-24.0,-8.8,810,876,0
R,,350681,-0.188,1.003,-0.439,-47.6,-34.0,-13.4,775,870,0
R,,350741,-0.076,1.093,-0.383,-58.9,-45.5,-31.7,600,747,0
R,,350801,-0.049,1.149,-0.371,-64.5,-56.9,-53.2,599,875,0
R,,350861,-0.162,1.247,-0.705,-92.3,-120.8,-65.8,382,763,0
R,,350920,-0.349,1.353,-0.729,-87.2,-151.3,-97.7,54,436,0
R,,350981,-0.112,0.790,-0.334,-45.1,-252.1,-65.9,75,322,0
R,,351071,0.816,0.451,0.329,60.0,-75.6,6.0,153,516,0
R,,351130,0.244,0.579,-0.050,181.1,48.2,23.3,219,464,0
R,,351191,0.333,1.020,-0.064,200.3,-65.6,113.5,326,597,0
R,,351250,0.335,1.220,-0.094,173.9,-56.1,146.2,362,587,0
R,,351311,0.241,1.334,-0.224,205.9,-34.4,140.9,274,654,0
R,,351371,0.081,1.441,-0.328,177.2,-2.5,137.9,190,549,0
R,,351460,-0.094,1.234,-0.120,76.8,-66.6,98.0,169,682,0
R,,351564,0.396,-0.188,-0.138,-114.5,-84.9,-34.4,169,245,0
R,,351581,0.712,0.480,-1.644,-24.0,-119.0,-57.4,420,516,0
R,,351641,0.273,1.206,-0.300,-79.7,23.8,-104.0,748,823,0
R,,351731,-0.263,0.819,-0.558,-48.3,6.3,-41.0,810,879,0
R,,351791,-0.099,0.871,-0.454,-29.9,-8.4,-15.0,820,887,0
R,,351851,-0.114,0.868,-0.486,-5.1,-3.5,-10.9,824,890,0
R,,351911,-0.144,0.851,-0.508,-3.7,-10.0,1.4,828,894,0
R,,352416,-0.002,1.209,-0.348,-77.3,-53.5,-45.7,622,873,0
R,,352426,-0.082,1.282,-0.475,-73.9,-55.3,-49.5,623,888,0
R,,352451,-0.039,1.263,-0.361,-87.1,-63.7,-53.6,578,843,0
R,,352511,0.253,1.192,-0.732,-99.1,-78.5,-90.7,146,747,0
R,,352571,-0.402,1.510,-0.161,-122.8,-66.1,-119.7,56,582,0
R,,352661,-0.670,0.350,0.255,-35.2,-223.1,24.7,157,469,0
R,,352721,0.621,0.322,0.072,70.0,-63.9,57.3,129,382,0
R,,352781,0.352,0.609,-0.123,197.0,78.7,92.2,195,443,0
R,,352841,0.072,1.013,-0.262,218.8,54.9,133.9,183,463,0
R,,352901,0.095,1.282,-0.354,191.3,28.8,165.6,230,546,0
R,,352960,-0.080,1.622,-0.406,224.7,2.4,166.2,126,542,0
R,,353051,-0.629,1.778,0.073,70.9,15.8,46.4,158,617,0
R,,353141,0.638,0.818,-1.140,-69.3,-121.8,-103.1,539,614,0
R,,353201,-0.088,0.931,-0.047,-86.4,36.8,-119.0,784,858,0
R,,353304,-0.073,0.970,-0.379,-28.7,-14.7,-26.0,823,892,0
R,,353321,-0.096,0.912,-0.395,-22.4,-12.9,-19.1,825,893,0
R,,353381,-0.088,0.915,-0.438,-5.3,-9.9,-15.8,830,895,0
R,,353441,-0.110,0.904,-0.419,-6.3,-14.9,-4.4,827,896,0
R,,353500,0.039,0.968,-0.407,-17.8,-11.3,-4.1,822,895,0
R,,353591,-0.083,0.899,-0.388,-27.4,-12.6,-8.4,625,688,0
R,,353651,-0.141,0.964,-0.293,-22.8,-16.0,-6.5,658,749,0
R,,353754,-0.087,0.987,-0.391,-35.4,-24.5,-15.2,504,671,0
R,,353771,-0.102,1.003,-0.375,-44.9,-24.9,-17.2,440,592,0
R,,353874,-0.081,1.170,-0.302,-77.9,-39.1,-38.6,521,856,0
R,,353891,-0.028,1.146,-0.309,-80.4,-48.9,-41.5,498,840,0
R,,353951,0.064,1.162,-0.498,-88.6,-49.7,-71.1,92,534,0
R,,354011,-0.111,1.328,-0.421,-117.6,-51.3,-89.3,57,503,0
R,,354071,-0.086,1.012,-0.514,-85.6,-113.1,-79.7,171,590,0
R,,354131,-0.554,0.429,0.279,-35.7,-230.8,38.7,145,464,0
R,,354191,0.482,0.356,0.066,47.3,-44.9,59.1,135,482,0
R,,354250,0.313,0.674,-0.061,170.1,103.4,66.9,198,556,0
R,,354311,-0.021,1.060,-0.301,190.8,98.2,104.0,262,610,0
R,,354370,-0.086,1.208,-0.365,157.4,56.2,136.0,261,559,0
R,,354431,-0.142,1.275,-0.541,191.7,18.4,134.0,201,660,0
R,,354521,-0.317,1.472,-0.142,181.0,-4.6,77.2,133,691,0
R,,354581,-0.626,1.403,0.019,31.2,19.2,14.4,183,704,0
R,,354641,0.425,0.273,-0.287,-59.9,-53.4,-99.8,363,431,0
R,,354701,0.340,1.294,-0.183,-97.0,28.9,-118.3,732,812,0
R,,354761,-0.437,0.851,-0.348,-63.7,52.4,-101.3,794,869,0
R,,354821,-0.111,0.891,-0.383,-42.5,-15.0,-33.3,818,888,0
R,,354881,-0.078,0.885,-0.447,-16.0,2.9,-26.4,824,893,0
R,,354941,-0.145,0.924,-0.416,-15.7,-11.2,-8.0,825,897,0
R,,355000,-0.092,0.892,-0.420,-12.8,-10.9,-4.2,826,896,0
R,,355061,-0.085,0.904,-0.387,-15.4,-9.3,-3.9,829,897,0
R,,355121,-0.039,0.902,-0.354,-12.0,-2.1,-2.3,829,898,0
R,,355181,-0.095,0.922,-0.379,-7.4,-5.4,1.4,833,899,0
R,,355685,0.012,1.028,-0.362,-108.2,-125.4,-74.8,143,547,0
R,,355695,0.084,0.825,-0.264,-97.0,-125.6,-68.9,145,545,0
R,,355721,-0.096,-0.074,-0.084,-52.6,-135.5,-22.0,152,484,0
R,,355811,0.309,0.375,0.078,83.5,47.5,27.0,156,532,0
R,,355915,-0.026,0.935,-0.243,205.8,74.4,107.8,260,548,0
R,,355961,0.103,1.148,-0.226,185.9,36.4,138.5,311,604,0
R,,356051,0.098,1.478,-0.457,221.2,0.1,154.3,67,548,0
R,,356111,-0.415,1.535,0.003,170.5,-5.6,121.5,132,538,0
R,,356171,-0.489,1.473,-0.007,26.6,3.4,32.9,173,565,0
R,,356274,0.544,1.228,-0.465,-57.4,-56.5,-108.9,632,705,0
R,,356291,-0.126,1.530,-0.287,-70.4,41.9,-140.2,706,788,0
R,,356351,-0.231,0.742,-0.473,-66.2,51.4,-92.4,788,858,0
R,,356411,-0.023,0.922,-0.270,-43.8,4.8,-61.3,808,881,0
R,,356471,-0.014,0.915,-0.344,-16.1,9.8,-35.5,821,887,0
R,,356531,-0.090,0.886,-0.387,-11.3,-0.6,-18.2,828,892,0
R,,356591,-0.131,0.906,-0.454,-5.0,-5.9,-4.9,824,895,0
R,,356651,-0.067,0.890,-0.399,-5.1,-7.2,-2.7,827,894,0
R,,356711,-0.083,0.895,-0.417,-9.8,-9.8,-5.3,822,893,0
R,,356771,-0.086,0.914,-0.390,-14.4,-9.5,-5.7,820,896,0
R,,356831,-0.072,0.903,-0.324,-12.8,-3.1,0.6,822,894,0
R,,356891,-0.084,0.922,-0.421,-13.6,-6.5,1.8,818,887,0
R,,356951,-0.082,0.939,-0.398,-22.8,-7.6,-5.4,800,868,0
R,,357011,-0.063,0.965,-0.418,-35.6,-10.2,-8.5,550,631,0
R,,357071,-0.110,0.949,-0.299,-49.8,-20.5,-9.1,462,543,0
R,,357131,0.102,1.055,-0.222,-54.9,-30.1,-22.8,589,771,0
R,,357221,-0.099,1.146,-0.383,-72.2,-41.1,-41.7,565,884,0
R,,357281,-0.027,1.126,-0.472,-106.9,-70.4,-57.6,202,704,0
R,,357341,-0.282,1.220,-0.386,-96.0,-80.1,-82.4,74,475,0
R,,357401,-0.242,1.006,-0.104,-73.6,-167.8,-60.4,93,323,0
R,,357461,-0.303,0.182,0.471,-15.1,-155.8,14.9,144,541,0
R,,357551,0.344,0.508,0.131,123.5,60.0,49.9,262,612,0
R,,357611,0.111,0.976,-0.001,161.2,59.7,91.0,415,684,0
R,,357671,-0.018,1.224,-0.130,126.7,42.9,122.3,399,655,0
R,,357731,0.038,1.269,-0.259,130.2,34.9,90.5,414,666,0
R,,357821,-0.011,1.143,-0.343,132.0,33.6,62.4,217,657,0
R,,357881,-0.188,1.142,-0.332,110.3,-20.4,77.8,160,692,0
R,,357941,-0.005,1.022,-0.352,67.6,-72.5,91.2,177,728,0
R,,358001,-0.025,0.982,-0.240,33.5,-100.8,70.0,184,731,0
R,,358061,0.034,1.969,-0.236,-15.2,-58.3,-61.7,278,724,0
R,,358151,0.242,0.965,-0.631,-30.8,-37.4,-82.8,621,718,0
R,,358211,-0.442,1.076,-0.371,-53.9,14.3,-76.5,756,832,0
R,,358271,-0.222,0.837,-0.485,-56.4,2.3,-33.9,793,865,0
R,,358332,-0.023,0.891,-0.425,-19.4,-9.4,-22.8,816,887,0
R,,358391,-0.140,0.845,-0.528,-10.7,-5.4,-18.5,825,893,0
R,,358451,-0.130,0.869,-0.508,-10.8,-11.2,-5.6,826,895,0
R,,358541,-0.061,0.895,-0.432,-5.6,-16.9,0.6,825,896,0
R,,359675,0.164,1.420,-0.390,215.2,-61.8,163.1,153,577,0
R,,359685,0.157,1.424,-0.360,218.1,-53.6,160.3,143,626,0
R,,359711,0.146,1.421,-0.303,204.0,-35.4,146.3,143,530,0
R,,359771,-0.130,1.377,-0.031,127.5,-16.1,103.8,173,613,0
R,,359832,-0.316,1.300,0.049,-10.3,-37.1,1.2,176,622,0
R,,359891,-0.089,-0.659,-0.517,-71.3,-45.0,-41.2,364,457,0
R,,359981,-0.830,1.183,-0.268,-66.3,32.4,-128.4,769,844,0
R,,360041,-0.375,0.848,-0.515,-37.5,25.9,-74.4,804,875,0
R,,360101,-0.118,0.897,-0.417,-36.8,-13.6,-19.2,821,889,0
R,,360161,-0.109,0.879,-0.484,-15.1,-6.5,-18.5,824,892,0
R,,360221,-0.191,0.851,-0.475,-19.3,-16.8,-6.9,826,895,0
R,,360311,-0.119,0.910,-0.434,-11.5,-18.3,-3.8,823,897,0
R,,360372,-0.090,0.907,-0.406,-17.1,-20.5,-7.9,817,898,0
R,,360431,-0.198,0.951,-0.495,-21.4,-29.4,-5.6,757,861,0
R,,360491,-0.136,0.951,-0.408,-26.0,-32.0,-9.5,539,696,0
R,,360551,-0.238,0.947,-0.403,-21.2,-30.9,-17.6,462,610,0
R,,360641,-0.133,1.065,-0.441,-45.8,-44.1,-31.2,488,654,0
R,,360731,-0.005,1.193,-0.456,-71.2,-74.9,-62.6,502,888,0
R,,360791,0.071,1.385,-0.693,-73.4,-64.4,-81.4,116,592,0
R,,360851,-0.371,1.434,-0.415,-96.3,-57.5,-119.0,101,590,0
R,,360912,-0.779,0.034,-0.397,-60.2,-193.2,-33.0,144,454,0
R,,360971,0.208,0.337,-0.318,7.3,-230.4,82.1,143,592,0
R,,361031,0.615,0.424,0.217,94.6,-41.9,71.9,101,418,0
R,,361090,0.281,0.812,-0.077,211.7,82.6,97.5,175,464,0
R,,361151,0.088,1.126,-0.296,202.5,75.1,138.6,246,573,0
R,,361211,-0.010,1.346,-0.476,195.0,61.2,165.6,189,616,0
R,,361271,-0.075,1.576,-0.586,217.1,0.9,173.1,127,584,0
R,,361361,-0.438,1.467,-0.006,73.9,-4.6,73.8,150,706,0
R,,361421,-0.313,2.815,0.324,-99.4,-44.8,-153.7,162,613,0
R,,361481,0.093,1.060,-0.591,-80.2,-133.1,-107.3,673,778,0
R,,361541,-0.468,1.161,-0.348,-89.3,25.6,-123.4,776,852,0
R,,361631,-0.169,0.889,-0.360,-62.2,-14.5,-42.2,822,892,0
R,,361691,-0.051,0.914,-0.410,-26.0,-13.5,-27.3,829,897,0
R,,361781,-0.160,0.917,-0.391,-12.5,-17.8,-2.5,826,898,0
R,,361872,-0.126,0.854,-0.260,-13.3,-11.7,-2.3,806,892,0
R,,361931,-0.143,0.931,-0.366,-15.3,-18.9,-3.5,758,852,0
R,,362021,-0.175,0.971,-0.422,-20.9,-26.1,0.3,644,800,0
R,,362111,-0.077,1.059,-0.400,-53.0,-22.8,-19.0,537,727,0
R,,362171,-0.051,1.154,-0.598,-79.3,-37.8,-35.2,597,843,0
R,,362231,-0.035,1.208,-0.302,-103.8,-58.5,-47.8,493,849,0
R,,362321,0.049,1.469,-0.666,-138.8,-55.0,-97.6,49,597,0
R,,362424,-0.656,0.012,0.189,-76.3,-105.6,-30.1,148,410,0
R,,362441,-0.696,0.378,0.273,-48.9,-121.1,18.0,123,401,0
R,,362531,0.258,0.286,0.115,106.6,13.0,84.5,150,539,0
R,,362591,0.075,0.813,-0.074,187.3,89.6,107.1,214,551,0
